image_list,key_resp_intructions.keys,key_resp_intructions.rt,key_resp_intructions_3.keys,key_resp_intructions_3.rt,PracticeComplete_2.keys,PracticeComplete_2.rt,PracticeComplete_3.keys,PracticeComplete_3.rt,demo_trials.thisRepN,demo_trials.thisTrialN,demo_trials.thisN,demo_trials.thisIndex,demo_trials.ran,demo_images,path_images,participant,date,expName,psychopyVersion,OS,frameRate,windowSize,drawing,numDrawings,drawingSizes,practice_complete.keys,practice_complete.rt,PracticeComplete.keys,PracticeComplete.rt,practice_trials.thisRepN,practice_trials.thisTrialN,practice_trials.thisN,practice_trials.thisIndex,practice_trials.ran,practice_images,feedback_images,key_resp_intructions_2.keys,key_resp_intructions_2.rt,Image_List_1,trial_complete.keys,trial_complete.rt,trials.thisRepN,trials.thisTrialN,trials.thisN,trials.thisIndex,trials.ran,Image_List_2,Image_List_3,Image_List_4,Image_List_5,key_resp.keys,key_resp.rt
Image_List_1,space,36.26072,space,5.37006,space,6.01824,space,1.77431,0,0,0,5,1,right.jpg,right_path.jpg,43851,2020-11-06_18h53.45.153,analogCatScenes,2020.1.3,Win32,60,,,,,,,,,,,,,,,,,,,,,,,,,,,,,,,
Image_List_1,,,,,space,2.736915,space,2.41096,0,1,1,1,1,ahead_left.jpg,ahead_left_path.jpg,43851,2020-11-06_18h53.45.153,analogCatScenes,2020.1.3,Win32,60,,,,,,,,,,,,,,,,,,,,,,,,,,,,,,,
Image_List_1,,,,,space,2.657575,space,5.48823,0,2,2,3,1,ahead_right_left.jpg,ahead_right_left_path.jpg,43851,2020-11-06_18h53.45.153,analogCatScenes,2020.1.3,Win32,60,,,,,,,,,,,,,,,,,,,,,,,,,,,,,,,
Image_List_1,,,,,space,1.04023,space,1.522155,0,3,3,0,1,ahead.jpg,ahead_path.jpg,43851,2020-11-06_18h53.45.153,analogCatScenes,2020.1.3,Win32,60,,,,,,,,,,,,,,,,,,,,,,,,,,,,,,,
Image_List_1,,,,,space,1.062505,space,0.69404,0,4,4,6,1,right_left.jpg,right_left_path.jpg,43851,2020-11-06_18h53.45.153,analogCatScenes,2020.1.3,Win32,60,,,,,,,,,,,,,,,,,,,,,,,,,,,,,,,
Image_List_1,,,,,space,1.245495,space,2.65009,0,5,5,2,1,ahead_right.jpg,ahead_right_path.jpg,43851,2020-11-06_18h53.45.153,analogCatScenes,2020.1.3,Win32,60,,,,,,,,,,,,,,,,,,,,,,,,,,,,,,,
Image_List_1,,,,,space,0.990845,space,0.885165,0,6,6,4,1,left.jpg,left_path.jpg,43851,2020-11-06_18h53.45.153,analogCatScenes,2020.1.3,Win32,60,,,,,,,,,,,,,,,,,,,,,,,,,,,,,,,
Image_List_1,,,,,,,,,,,,,,,,43851,2020-11-06_18h53.45.153,analogCatScenes,2020.1.3,Win32,60,"[1368,912]","[[[-0.008223684210526315,-0.19901315789473684],[-0.008223684210526315,-0.19901315789473684],[-0.008223684210526315,-0.19901315789473684],[-0.008223684210526315,-0.19901315789473684],[-0.008223684210526315,-0.19901315789473684],[-0.008223684210526315,-0.19901315789473684],[-0.008223684210526315,-0.19901315789473684],[-0.008223684210526315,-0.19901315789473684],[-0.008223684210526315,-0.19901315789473684],[-0.008223684210526315,-0.19901315789473684],[-0.008223684210526315,-0.19901315789473684],[-0.008223684210526315,-0.19901315789473684],[-0.008223684210526315,-0.19901315789473684],[-0.008223684210526315,-0.19901315789473684],[-0.0010964912280701754,-0.19462719298245615],[0.003289473684210526,-0.1913377192982456],[0.006030701754385965,-0.18804824561403508],[0.010964912280701754,-0.18421052631578946],[0.013706140350877192,-0.18201754385964913],[0.018092105263157895,-0.17927631578947367],[0.022478070175438597,-0.17708333333333334],[0.025219298245614034,-0.17489035087719298],[0.02905701754385965,-0.17160087719298245],[0.03234649122807018,-0.16831140350877194],[0.03673245614035088,-0.16447368421052633],[0.0400219298245614,-0.16228070175438597],[0.041666666666666664,-0.16063596491228072],[0.04550438596491228,-0.15734649122807018],[0.04824561403508772,-0.15460526315789475],[0.05317982456140351,-0.15076754385964913],[0.05592105263157895,-0.14857456140350878],[0.05921052631578947,-0.14638157894736842],[0.06304824561403509,-0.14144736842105263],[0.06633771929824561,-0.1387061403508772],[0.06907894736842106,-0.13706140350877194],[0.07291666666666667,-0.13322368421052633],[0.0762061403508772,-0.13103070175438597],[0.08223684210526316,-0.12719298245614036],[0.08826754385964912,-0.12335526315789473],[0.09484649122807018,-0.11896929824561403],[0.10032894736842106,-0.11567982456140351],[0.10526315789473684,-0.1112938596491228],[0.1118421052631579,-0.10635964912280702],[0.11842105263157894,-0.1025219298245614],[0.1206140350877193,-0.10087719298245613],[0.1299342105263158,-0.09539473684210527],[0.13486842105263158,-0.09320175438596491],[0.14035087719298245,-0.08991228070175439],[0.14364035087719298,-0.08771929824561403],[0.14638157894736842,-0.08607456140350878],[0.15186403508771928,-0.08278508771929824],[0.15953947368421054,-0.07839912280701754],[0.16940789473684212,-0.0712719298245614],[0.17543859649122806,-0.06853070175438597],[0.18146929824561403,-0.06469298245614036],[0.18640350877192982,-0.06195175438596491],[0.1913377192982456,-0.05866228070175439],[0.20010964912280702,-0.05482456140350877],[0.20559210526315788,-0.05317982456140351],[0.20942982456140352,-0.05043859649122807],[0.21600877192982457,-0.047149122807017545],[0.21984649122807018,-0.044407894736842105],[0.2275219298245614,-0.0400219298245614],[0.23026315789473684,-0.03837719298245614],[0.2324561403508772,-0.03728070175438596],[0.23574561403508773,-0.0356359649122807],[0.24067982456140352,-0.03399122807017544],[0.25109649122807015,-0.03070175438596491],[0.2571271929824561,-0.027960526315789474],[0.2631578947368421,-0.024671052631578948],[0.26918859649122806,-0.023026315789473683],[0.27247807017543857,-0.02138157894736842],[0.27850877192982454,-0.01918859649122807],[0.28344298245614036,-0.017543859649122806],[0.2894736842105263,-0.015899122807017545],[0.2916666666666667,-0.015350877192982455],[0.29385964912280704,-0.013706140350877192],[0.2982456140350877,-0.012609649122807017],[0.3031798245614035,-0.00932017543859649],[0.31085526315789475,-0.004934210526315789],[0.31469298245614036,-0.0027412280701754384],[0.31853070175438597,-0.0005482456140350877],[0.32401315789473684,0.0027412280701754384],[0.32730263157894735,0.0043859649122807015],[0.3300438596491228,0.006030701754385965],[0.33168859649122806,0.00712719298245614],[0.33278508771929827,0.007675438596491228],[0.3338815789473684,0.007675438596491228],[0.3344298245614035,0.007675438596491228],[0.3360745614035088,0.007675438596491228],[0.33826754385964913,0.008771929824561403],[0.3393640350877193,0.008771929824561403],[0.3399122807017544,0.008771929824561403],[0.34155701754385964,0.008771929824561403],[0.34155701754385964,0.008771929824561403],[0.34155701754385964,0.008771929824561403],[0.34155701754385964,0.008771929824561403],[0.34155701754385964,0.008771929824561403],[0.34155701754385964,0.008771929824561403],[0.34155701754385964,0.008771929824561403],[0.34155701754385964,0.008771929824561403],[0.34155701754385964,0.008771929824561403],[0.34155701754385964,0.008771929824561403],[0.34155701754385964,0.008771929824561403],[0.34155701754385964,0.008771929824561403],[0.34155701754385964,0.008771929824561403],[0.34155701754385964,0.008771929824561403],[0.34155701754385964,0.008771929824561403],[0.34155701754385964,0.008771929824561403],[0.34155701754385964,0.008771929824561403],[0.34155701754385964,0.008771929824561403],[0.34155701754385964,0.008771929824561403],[0.34155701754385964,0.008771929824561403]]]",1,[113],space,49.645535,space,2.054995,0,0,0,5,1,right_2.jpg,right_2_path.jpg,,,,,,,,,,,,,,,,
Image_List_1,,,,,,,,,,,,,,,,43851,2020-11-06_18h53.45.153,analogCatScenes,2020.1.3,Win32,60,"[1368,912]","[[[-0.0005482456140350877,-0.1962719298245614],[-0.0005482456140350877,-0.1962719298245614],[-0.0005482456140350877,-0.1962719298245614],[-0.0005482456140350877,-0.1962719298245614],[-0.0005482456140350877,-0.1962719298245614],[-0.0005482456140350877,-0.1962719298245614],[-0.0005482456140350877,-0.1962719298245614],[-0.0005482456140350877,-0.1962719298245614],[-0.0005482456140350877,-0.1962719298245614],[-0.0005482456140350877,-0.1962719298245614],[-0.0005482456140350877,-0.1962719298245614],[-0.0005482456140350877,-0.1962719298245614],[-0.0005482456140350877,-0.1962719298245614],[-0.0005482456140350877,-0.1962719298245614],[-0.0005482456140350877,-0.18969298245614036],[0.001644736842105263,-0.17489035087719298],[0.0027412280701754384,-0.15679824561403508],[0.0027412280701754384,-0.13760964912280702],[0.003837719298245614,-0.12280701754385964],[0.004934210526315789,-0.10800438596491228],[0.00712719298245614,-0.08662280701754387],[0.00932017543859649,-0.07456140350877193],[0.01206140350877193,-0.05866228070175439],[0.013706140350877192,-0.05043859649122807],[0.015350877192982455,-0.043859649122807015],[0.018092105263157895,-0.03453947368421053],[0.01864035087719298,-0.027960526315789474],[0.01864035087719298,-0.023574561403508772],[0.01864035087719298,-0.020833333333333332],[0.01864035087719298,-0.017543859649122806],[0.019736842105263157,-0.013157894736842105],[0.020285087719298246,-0.00712719298245614],[0.02138157894736842,0.001644736842105263],[0.02138157894736842,0.00712719298245614],[0.02138157894736842,0.01206140350877193],[0.02138157894736842,0.023026315789473683],[0.023574561403508772,0.03508771929824561],[0.025219298245614034,0.05098684210526316],[0.02631578947368421,0.05756578947368421],[0.02631578947368421,0.06469298245614036],[0.02631578947368421,0.06743421052631579],[0.02631578947368421,0.07182017543859649],[0.02631578947368421,0.0800438596491228],[0.02631578947368421,0.08662280701754387],[0.02631578947368421,0.09210526315789473],[0.02631578947368421,0.0981359649122807],[0.02631578947368421,0.10307017543859649],[0.02631578947368421,0.10910087719298246],[0.0268640350877193,0.11567982456140351],[0.0268640350877193,0.12006578947368421],[0.0268640350877193,0.12664473684210525],[0.0268640350877193,0.12938596491228072],[0.0268640350877193,0.1337719298245614],[0.0268640350877193,0.13651315789473684],[0.02631578947368421,0.14144736842105263],[0.02631578947368421,0.14418859649122806],[0.02631578947368421,0.14692982456140352],[0.02631578947368421,0.15076754385964913],[0.02631578947368421,0.1524122807017544],[0.02631578947368421,0.15625],[0.02631578947368421,0.16228070175438597],[0.02631578947368421,0.16611842105263158],[0.02631578947368421,0.17050438596491227],[0.02631578947368421,0.17324561403508773],[0.02631578947368421,0.17543859649122806],[0.02631578947368421,0.1787280701754386],[0.02631578947368421,0.17982456140350878],[0.02631578947368421,0.18146929824561403],[0.02631578947368421,0.1825657894736842],[0.02631578947368421,0.18421052631578946],[0.02631578947368421,0.18585526315789475],[0.02631578947368421,0.18640350877192982],[0.025767543859649123,0.18695175438596492],[0.024671052631578948,0.18804824561403508],[0.024671052631578948,0.18914473684210525],[0.024671052631578948,0.18969298245614036],[0.024671052631578948,0.19078947368421054],[0.024671052631578948,0.19078947368421054],[0.024671052631578948,0.19078947368421054],[0.024671052631578948,0.19078947368421054],[0.024671052631578948,0.19078947368421054],[0.024671052631578948,0.19078947368421054],[0.024671052631578948,0.19078947368421054],[0.024671052631578948,0.19078947368421054],[0.024671052631578948,0.19078947368421054],[0.024671052631578948,0.19078947368421054],[0.024671052631578948,0.19078947368421054],[0.024671052631578948,0.19078947368421054],[0.024671052631578948,0.19078947368421054],[0.024671052631578948,0.19078947368421054],[0.024671052631578948,0.19078947368421054],[0.024671052631578948,0.19078947368421054],[0.024671052631578948,0.19078947368421054],[0.024671052631578948,0.19078947368421054],[0.024671052631578948,0.19078947368421054],[0.024671052631578948,0.19078947368421054],[0.024671052631578948,0.19078947368421054],[0.024671052631578948,0.19078947368421054],[0.024671052631578948,0.19078947368421054],[0.024671052631578948,0.19078947368421054],[0.024671052631578948,0.19078947368421054],[0.024671052631578948,0.19078947368421054],[0.024671052631578948,0.19078947368421054],[0.024671052631578948,0.19078947368421054],[0.024671052631578948,0.19078947368421054],[0.024671052631578948,0.19078947368421054],[0.024671052631578948,0.19078947368421054],[0.024671052631578948,0.19078947368421054],[0.024671052631578948,0.19078947368421054],[0.024671052631578948,0.19078947368421054],[0.024671052631578948,0.19078947368421054],[0.024671052631578948,0.19078947368421054],[0.024671052631578948,0.19078947368421054],[0.024671052631578948,0.19078947368421054],[0.024671052631578948,0.19078947368421054],[0.024671052631578948,0.19078947368421054],[0.024671052631578948,0.19078947368421054],[0.024671052631578948,0.19078947368421054],[0.024671052631578948,0.19078947368421054],[0.024671052631578948,0.19078947368421054],[0.024671052631578948,0.19078947368421054],[0.024671052631578948,0.19078947368421054],[0.024671052631578948,0.19078947368421054],[0.024671052631578948,0.19078947368421054],[0.024671052631578948,0.19078947368421054],[0.024671052631578948,0.19078947368421054],[0.024671052631578948,0.19078947368421054],[0.024671052631578948,0.19078947368421054],[0.024671052631578948,0.19078947368421054],[0.024671052631578948,0.19078947368421054],[0.024671052631578948,0.19078947368421054],[0.024671052631578948,0.19078947368421054],[0.024671052631578948,0.19078947368421054],[0.024671052631578948,0.19078947368421054],[0.024671052631578948,0.19078947368421054],[0.024671052631578948,0.19078947368421054],[0.024671052631578948,0.19078947368421054],[0.024671052631578948,0.19078947368421054],[0.024671052631578948,0.19078947368421054],[0.024671052631578948,0.19078947368421054],[0.024671052631578948,0.19078947368421054],[0.024671052631578948,0.19078947368421054],[0.024671052631578948,0.19078947368421054],[0.024671052631578948,0.19078947368421054],[0.024671052631578948,0.19078947368421054],[0.024671052631578948,0.19078947368421054]]]",1,[146],space,8.24019,space,3.573485,0,1,1,1,1,ahead_left_2.jpg,ahead_left_2_path.jpg,,,,,,,,,,,,,,,,
Image_List_1,,,,,,,,,,,,,,,,43851,2020-11-06_18h53.45.153,analogCatScenes,2020.1.3,Win32,60,"[1368,912]","[[[-0.0027412280701754384,-0.20614035087719298],[-0.0027412280701754384,-0.20614035087719298],[-0.0027412280701754384,-0.20614035087719298],[-0.0027412280701754384,-0.20614035087719298],[-0.0027412280701754384,-0.20614035087719298],[-0.0027412280701754384,-0.20614035087719298],[-0.0027412280701754384,-0.20614035087719298],[-0.0027412280701754384,-0.20614035087719298],[-0.0027412280701754384,-0.20614035087719298],[-0.0027412280701754384,-0.20614035087719298],[-0.0027412280701754384,-0.20614035087719298],[-0.0027412280701754384,-0.20614035087719298],[-0.001644736842105263,-0.20175438596491227],[0.00932017543859649,-0.1836622807017544],[0.01864035087719298,-0.15953947368421054],[0.030153508771929825,-0.13322368421052633],[0.03837719298245614,-0.1162280701754386],[0.046600877192982455,-0.09868421052631579],[0.05756578947368421,-0.07675438596491228],[0.06140350877192982,-0.0668859649122807],[0.06524122807017543,-0.05537280701754386],[0.06743421052631579,-0.043859649122807015],[0.06907894736842106,-0.03892543859649123],[0.07182017543859649,-0.027960526315789474],[0.07456140350877193,-0.01918859649122807],[0.07730263157894737,-0.009868421052631578],[0.08278508771929824,0.0010964912280701754],[0.08771929824561403,0.010964912280701754],[0.09484649122807018,0.02631578947368421],[0.09978070175438597,0.03618421052631579],[0.10471491228070176,0.043859649122807015],[0.11019736842105263,0.05592105263157895],[0.11513157894736842,0.06469298245614036],[0.12225877192982457,0.08223684210526316],[0.12719298245614036,0.08991228070175439],[0.12938596491228072,0.09375],[0.13322368421052633,0.09923245614035088],[0.13486842105263158,0.1025219298245614],[0.13760964912280702,0.10635964912280702],[0.14089912280701755,0.10910087719298246],[0.14418859649122806,0.11348684210526316],[0.14912280701754385,0.11951754385964912],[0.15021929824561403,0.12390350877192982],[0.15296052631578946,0.13103070175438597],[0.15460526315789475,0.13651315789473684],[0.15679824561403508,0.1425438596491228],[0.16282894736842105,0.15460526315789475],[0.16721491228070176,0.16173245614035087],[0.17214912280701755,0.17050438596491227],[0.17489035087719298,0.17434210526315788],[0.17543859649122806,0.17817982456140352],[0.17708333333333334,0.18475877192982457],[0.17763157894736842,0.18859649122807018],[0.18037280701754385,0.19572368421052633],[0.18092105263157895,0.19956140350877194],[0.1825657894736842,0.20285087719298245],[0.18311403508771928,0.20778508771929824],[0.18421052631578946,0.21162280701754385],[0.18421052631578946,0.21546052631578946],[0.18421052631578946,0.21820175438596492],[0.18421052631578946,0.22039473684210525],[0.18421052631578946,0.22313596491228072]],[[-0.0010964912280701754,-0.19956140350877194],[-0.0010964912280701754,-0.19956140350877194],[-0.0010964912280701754,-0.19956140350877194],[-0.0010964912280701754,-0.19956140350877194],[-0.0010964912280701754,-0.19956140350877194],[-0.0010964912280701754,-0.19956140350877194],[-0.0010964912280701754,-0.19956140350877194],[-0.0010964912280701754,-0.19956140350877194],[-0.0010964912280701754,-0.19956140350877194],[-0.0010964912280701754,-0.19956140350877194],[-0.0010964912280701754,-0.19956140350877194],[-0.0010964912280701754,-0.19956140350877194],[-0.0027412280701754384,-0.1924342105263158],[-0.004934210526315789,-0.1787280701754386],[-0.00712719298245614,-0.16228070175438597],[-0.00932017543859649,-0.14418859649122806],[-0.013706140350877192,-0.11842105263157894],[-0.017543859649122806,-0.11019736842105263],[-0.019736842105263157,-0.10416666666666667],[-0.024671052631578948,-0.09649122807017543],[-0.027412280701754384,-0.09046052631578948],[-0.03344298245614035,-0.08278508771929824],[-0.04111842105263158,-0.06798245614035088],[-0.046052631578947366,-0.06030701754385965],[-0.052083333333333336,-0.05043859649122807],[-0.05592105263157895,-0.041666666666666664],[-0.05975877192982456,-0.03618421052631579],[-0.06853070175438597,-0.023026315789473683],[-0.07456140350877193,-0.010416666666666666],[-0.08223684210526316,0],[-0.08442982456140351,0.003837719298245614],[-0.08662280701754387,0.007675438596491228],[-0.09210526315789473,0.015350877192982455],[-0.09539473684210527,0.02138157894736842],[-0.10416666666666667,0.03673245614035088],[-0.10910087719298246,0.043859649122807015],[-0.11239035087719298,0.048793859649122806],[-0.11732456140350878,0.05537280701754386],[-0.11896929824561403,0.06030701754385965],[-0.12280701754385964,0.06743421052631579],[-0.12554824561403508,0.07236842105263158],[-0.1288377192982456,0.0800438596491228],[-0.13103070175438597,0.08388157894736842],[-0.13157894736842105,0.08662280701754387],[-0.13486842105263158,0.09320175438596491],[-0.13651315789473684,0.09703947368421052],[-0.1387061403508772,0.10197368421052631],[-0.14199561403508773,0.10800438596491228],[-0.14418859649122806,0.1112938596491228],[-0.14638157894736842,0.11458333333333333],[-0.14857456140350878,0.11677631578947369],[-0.15186403508771928,0.12225877192982457],[-0.15405701754385964,0.12554824561403508],[-0.15515350877192982,0.12774122807017543],[-0.15734649122807018,0.1299342105263158],[-0.15789473684210525,0.13212719298245615],[-0.15844298245614036,0.13322368421052633],[-0.1600877192982456,0.13541666666666666],[-0.1611842105263158,0.13651315789473684],[-0.16282894736842105,0.14089912280701755],[-0.16337719298245615,0.1425438596491228],[-0.16392543859649122,0.14473684210526316],[-0.16557017543859648,0.14912280701754385],[-0.16666666666666666,0.15186403508771928],[-0.16831140350877194,0.15625],[-0.16885964912280702,0.15844298245614036],[-0.1699561403508772,0.1611842105263158],[-0.1699561403508772,0.16337719298245615],[-0.1699561403508772,0.1650219298245614],[-0.17105263157894737,0.16885964912280702],[-0.17269736842105263,0.17160087719298245],[-0.17324561403508773,0.1737938596491228],[-0.17489035087719298,0.17653508771929824],[-0.17543859649122806,0.17817982456140352],[-0.17543859649122806,0.18037280701754385],[-0.17598684210526316,0.18146929824561403],[-0.17653508771929824,0.1825657894736842],[-0.17653508771929824,0.18475877192982457],[-0.17653508771929824,0.18585526315789475],[-0.17653508771929824,0.1924342105263158],[-0.17653508771929824,0.19846491228070176],[-0.17653508771929824,0.20175438596491227],[-0.17653508771929824,0.20723684210526316],[-0.17653508771929824,0.2099780701754386],[-0.17653508771929824,0.21600877192982457],[-0.17653508771929824,0.21875],[-0.17653508771929824,0.2225877192982456],[-0.17653508771929824,0.2275219298245614],[-0.17653508771929824,0.23135964912280702],[-0.17653508771929824,0.23574561403508773],[-0.17653508771929824,0.23848684210526316],[-0.17653508771929824,0.24177631578947367],[-0.17653508771929824,0.24451754385964913],[-0.17653508771929824,0.24671052631578946],[-0.17653508771929824,0.24890350877192982],[-0.17598684210526316,0.25109649122807015],[-0.17543859649122806,0.25164473684210525]]]",2,"[62,97]",space,21.33388,space,1.305075,0,2,2,6,1,right_left_2.jpg,right_left_2_path.jpg,,,,,,,,,,,,,,,,
Image_List_1,,,,,,,,,,,,,,,,43851,2020-11-06_18h53.45.153,analogCatScenes,2020.1.3,Win32,60,"[1368,912]","[[[-0.0010964912280701754,-0.1924342105263158],[-0.0010964912280701754,-0.1924342105263158],[-0.0010964912280701754,-0.1924342105263158],[-0.0010964912280701754,-0.1924342105263158],[-0.0010964912280701754,-0.1924342105263158],[-0.0010964912280701754,-0.1924342105263158],[-0.0010964912280701754,-0.1924342105263158],[-0.0010964912280701754,-0.1924342105263158],[-0.0010964912280701754,-0.1924342105263158],[-0.0010964912280701754,-0.1924342105263158],[-0.0005482456140350877,-0.18914473684210525],[0.003837719298245614,-0.1650219298245614],[0.004934210526315789,-0.15570175438596492],[0.004934210526315789,-0.15021929824561403],[0.004934210526315789,-0.13925438596491227],[0.00712719298245614,-0.12664473684210525],[0.008223684210526315,-0.1074561403508772],[0.010964912280701754,-0.09594298245614036],[0.012609649122807017,-0.08607456140350878],[0.012609649122807017,-0.0800438596491228],[0.012609649122807017,-0.07236842105263158],[0.013706140350877192,-0.06140350877192982],[0.01425438596491228,-0.05537280701754386],[0.01425438596491228,-0.05098684210526316],[0.01425438596491228,-0.044956140350877194],[0.01425438596491228,-0.0400219298245614],[0.01425438596491228,-0.03125],[0.01425438596491228,-0.0268640350877193],[0.01425438596491228,-0.023026315789473683],[0.01425438596491228,-0.017543859649122806],[0.01425438596491228,-0.013157894736842105],[0.01425438596491228,-0.0043859649122807015],[0.01425438596491228,0.001644736842105263],[0.01425438596491228,0.00932017543859649],[0.01425438596491228,0.013157894736842105],[0.01425438596491228,0.01864035087719298],[0.01425438596491228,0.027960526315789474],[0.015350877192982455,0.03179824561403509],[0.015899122807017545,0.03618421052631579],[0.017543859649122806,0.04331140350877193],[0.017543859649122806,0.046052631578947366],[0.017543859649122806,0.049890350877192985],[0.017543859649122806,0.05263157894736842],[0.01864035087719298,0.06140350877192982],[0.01918859649122807,0.06743421052631579],[0.01918859649122807,0.07182017543859649],[0.01918859649122807,0.07785087719298246],[0.01918859649122807,0.0805921052631579],[0.01918859649122807,0.08388157894736842],[0.01918859649122807,0.08607456140350878],[0.01918859649122807,0.08771929824561403],[0.01918859649122807,0.09100877192982457],[0.01918859649122807,0.09484649122807018],[0.01918859649122807,0.10142543859649122],[0.020285087719298246,0.10910087719298246],[0.020285087719298246,0.11293859649122807],[0.020285087719298246,0.11842105263157894],[0.020285087719298246,0.12225877192982457],[0.020285087719298246,0.12719298245614036],[0.020833333333333332,0.13267543859649122],[0.020833333333333332,0.13760964912280702],[0.022478070175438597,0.14583333333333334],[0.02412280701754386,0.15021929824561403],[0.02412280701754386,0.15515350877192982],[0.02412280701754386,0.16228070175438597],[0.02412280701754386,0.1650219298245614],[0.02412280701754386,0.1699561403508772],[0.02412280701754386,0.17269736842105263],[0.02412280701754386,0.1787280701754386],[0.02412280701754386,0.1825657894736842],[0.02412280701754386,0.18530701754385964],[0.02412280701754386,0.18969298245614036],[0.02412280701754386,0.19188596491228072],[0.02412280701754386,0.19572368421052633],[0.02412280701754386,0.19791666666666666],[0.02412280701754386,0.20065789473684212],[0.02412280701754386,0.20394736842105263],[0.02412280701754386,0.20614035087719298],[0.02412280701754386,0.20723684210526316]]]",1,[79],space,5.263415,space,0.92819,0,3,3,0,1,ahead_2.jpg,ahead_2_path.jpg,,,,,,,,,,,,,,,,
Image_List_1,,,,,,,,,,,,,,,,43851,2020-11-06_18h53.45.153,analogCatScenes,2020.1.3,Win32,60,"[1368,912]","[[[-0.0027412280701754384,-0.19682017543859648],[-0.0027412280701754384,-0.19682017543859648],[-0.0027412280701754384,-0.19682017543859648],[-0.0027412280701754384,-0.19682017543859648],[-0.0027412280701754384,-0.19682017543859648],[-0.0027412280701754384,-0.19682017543859648],[-0.0027412280701754384,-0.19682017543859648],[-0.0027412280701754384,-0.19682017543859648],[-0.0027412280701754384,-0.19682017543859648],[-0.0027412280701754384,-0.19682017543859648],[-0.0027412280701754384,-0.19682017543859648],[-0.0027412280701754384,-0.19682017543859648],[-0.0027412280701754384,-0.19682017543859648],[-0.0027412280701754384,-0.19682017543859648],[-0.0021929824561403508,-0.1875],[-0.0005482456140350877,-0.1737938596491228],[0.0005482456140350877,-0.16282894736842105],[0.0027412280701754384,-0.15679824561403508],[0.003289473684210526,-0.14967105263157895],[0.003837719298245614,-0.14638157894736842],[0.003837719298245614,-0.14418859649122806],[0.003837719298245614,-0.1425438596491228],[0.003837719298245614,-0.14144736842105263],[0.003837719298245614,-0.14035087719298245],[0.003837719298245614,-0.13815789473684212],[0.004934210526315789,-0.1337719298245614],[0.005482456140350877,-0.13103070175438597],[0.005482456140350877,-0.1288377192982456],[0.006030701754385965,-0.125],[0.00712719298245614,-0.12171052631578948],[0.00712719298245614,-0.11787280701754387],[0.00712719298245614,-0.11513157894736842],[0.00712719298245614,-0.1118421052631579],[0.007675438596491228,-0.1069078947368421],[0.007675438596491228,-0.10307017543859649],[0.008771929824561403,-0.0981359649122807],[0.00932017543859649,-0.09429824561403509],[0.009868421052631578,-0.09100877192982457],[0.009868421052631578,-0.08717105263157894],[0.009868421052631578,-0.08388157894736842],[0.009868421052631578,-0.08168859649122807],[0.009868421052631578,-0.07949561403508772],[0.009868421052631578,-0.07675438596491228],[0.010964912280701754,-0.07346491228070176],[0.011513157894736841,-0.07072368421052631],[0.011513157894736841,-0.06853070175438597],[0.011513157894736841,-0.06798245614035088],[0.011513157894736841,-0.0668859649122807],[0.011513157894736841,-0.06414473684210527],[0.01206140350877193,-0.06140350877192982],[0.013157894736842105,-0.05701754385964912],[0.013157894736842105,-0.05482456140350877],[0.013157894736842105,-0.054276315789473686],[0.01425438596491228,-0.05317982456140351],[0.01425438596491228,-0.052083333333333336],[0.01425438596491228,-0.05043859649122807],[0.014802631578947368,-0.049890350877192985],[0.014802631578947368,-0.049890350877192985],[0.014802631578947368,-0.049342105263157895],[0.015350877192982455,-0.049342105263157895],[0.015899122807017545,-0.048793859649122806],[0.015899122807017545,-0.04824561403508772],[0.015899122807017545,-0.047697368421052634],[0.01699561403508772,-0.047697368421052634],[0.01699561403508772,-0.047697368421052634],[0.01699561403508772,-0.047697368421052634],[0.01699561403508772,-0.047697368421052634]],[[0.001644736842105263,-0.18914473684210525],[0.001644736842105263,-0.18914473684210525],[0.001644736842105263,-0.18914473684210525],[0.001644736842105263,-0.18914473684210525],[0.001644736842105263,-0.18914473684210525],[0.001644736842105263,-0.18914473684210525],[0.001644736842105263,-0.18914473684210525],[0.001644736842105263,-0.18914473684210525],[0.001644736842105263,-0.18914473684210525],[0.001644736842105263,-0.18914473684210525],[0.001644736842105263,-0.18914473684210525],[0.001644736842105263,-0.18914473684210525],[0.001644736842105263,-0.18914473684210525],[0.001644736842105263,-0.18914473684210525],[0.001644736842105263,-0.18914473684210525],[0.001644736842105263,-0.18914473684210525],[0.001644736842105263,-0.18914473684210525],[0.001644736842105263,-0.18914473684210525],[0.004934210526315789,-0.18530701754385964],[0.00712719298245614,-0.1825657894736842],[0.01206140350877193,-0.17817982456140352],[0.015350877192982455,-0.17489035087719298],[0.01864035087719298,-0.17050438596491227],[0.02412280701754386,-0.1650219298245614],[0.030153508771929825,-0.15953947368421054],[0.03673245614035088,-0.15515350877192982],[0.046600877192982455,-0.14692982456140352],[0.05043859649122807,-0.14309210526315788],[0.05592105263157895,-0.13760964912280702],[0.05866228070175439,-0.13432017543859648],[0.06414473684210527,-0.12938596491228072],[0.06907894736842106,-0.12609649122807018],[0.07401315789473684,-0.12280701754385964],[0.08114035087719298,-0.12006578947368421],[0.0849780701754386,-0.11732456140350878],[0.08826754385964912,-0.11458333333333333],[0.09484649122807018,-0.10964912280701754],[0.10197368421052631,-0.10471491228070176],[0.11074561403508772,-0.09868421052631579],[0.11567982456140351,-0.09539473684210527],[0.12225877192982457,-0.09100877192982457],[0.12609649122807018,-0.08771929824561403],[0.13212719298245615,-0.08442982456140351],[0.14089912280701755,-0.0800438596491228],[0.14583333333333334,-0.07730263157894737],[0.15186403508771928,-0.0756578947368421],[0.15460526315789475,-0.07456140350877193],[0.15789473684210525,-0.07456140350877193],[0.1611842105263158,-0.07291666666666667],[0.1650219298245614,-0.0712719298245614],[0.16940789473684212,-0.06962719298245613],[0.17214912280701755,-0.06853070175438597],[0.17543859649122806,-0.0668859649122807],[0.1825657894736842,-0.06414473684210527],[0.18640350877192982,-0.06359649122807018],[0.19078947368421054,-0.06304824561403509],[0.19188596491228072,-0.06304824561403509],[0.1924342105263158,-0.06304824561403509],[0.19298245614035087,-0.06304824561403509],[0.19298245614035087,-0.06304824561403509],[0.19462719298245615,-0.06304824561403509],[0.19462719298245615,-0.06304824561403509],[0.19517543859649122,-0.06304824561403509],[0.19736842105263158,-0.06195175438596491],[0.19846491228070176,-0.06195175438596491],[0.19956140350877194,-0.06140350877192982],[0.19956140350877194,-0.06140350877192982],[0.19956140350877194,-0.06140350877192982],[0.19956140350877194,-0.06140350877192982],[0.19956140350877194,-0.06140350877192982],[0.19956140350877194,-0.06140350877192982]],[[-0.00932017543859649,-0.2012061403508772],[-0.00932017543859649,-0.2012061403508772],[-0.00932017543859649,-0.2012061403508772],[-0.00932017543859649,-0.2012061403508772],[-0.00932017543859649,-0.2012061403508772],[-0.00932017543859649,-0.2012061403508772],[-0.00932017543859649,-0.2012061403508772],[-0.00932017543859649,-0.2012061403508772],[-0.00932017543859649,-0.2012061403508772],[-0.00932017543859649,-0.2012061403508772],[-0.00932017543859649,-0.2012061403508772],[-0.00932017543859649,-0.2012061403508772],[-0.017543859649122806,-0.19462719298245615],[-0.025219298245614034,-0.18859649122807018],[-0.039473684210526314,-0.17982456140350878],[-0.047697368421052634,-0.17598684210526316],[-0.06414473684210527,-0.16776315789473684],[-0.07949561403508772,-0.16337719298245615],[-0.09265350877192982,-0.15679824561403508],[-0.11074561403508772,-0.14857456140350878],[-0.12335526315789473,-0.14199561403508773],[-0.1425438596491228,-0.13432017543859648],[-0.1513157894736842,-0.13048245614035087],[-0.15679824561403508,-0.1288377192982456],[-0.16885964912280702,-0.12554824561403508],[-0.17708333333333334,-0.12280701754385964],[-0.1913377192982456,-0.11896929824561403],[-0.20010964912280702,-0.1162280701754386],[-0.21710526315789475,-0.1118421052631579],[-0.2236842105263158,-0.11019736842105263],[-0.23355263157894737,-0.10800438596491228],[-0.2450657894736842,-0.10471491228070176],[-0.25603070175438597,-0.1025219298245614],[-0.2669956140350877,-0.09868421052631579],[-0.2856359649122807,-0.09429824561403509],[-0.2949561403508772,-0.09265350877192982],[-0.3053728070175439,-0.08881578947368421],[-0.31030701754385964,-0.08717105263157894],[-0.31524122807017546,-0.08552631578947369],[-0.32346491228070173,-0.08333333333333333],[-0.32839912280701755,-0.08223684210526316],[-0.33114035087719296,-0.08223684210526316],[-0.33223684210526316,-0.08223684210526316],[-0.33223684210526316,-0.08223684210526316],[-0.33223684210526316,-0.08223684210526316],[-0.33223684210526316,-0.08223684210526316],[-0.33223684210526316,-0.08223684210526316],[-0.33223684210526316,-0.08223684210526316],[-0.33223684210526316,-0.08223684210526316],[-0.33223684210526316,-0.08223684210526316],[-0.33223684210526316,-0.08223684210526316]]]",3,"[67,71,51]",space,19.389595,space,2.319885,0,4,4,3,1,ahead_right_left_2.jpg,ahead_right_left_2_path.jpg,,,,,,,,,,,,,,,,
Image_List_1,,,,,,,,,,,,,,,,43851,2020-11-06_18h53.45.153,analogCatScenes,2020.1.3,Win32,60,"[1368,912]","[[[0.0010964912280701754,-0.1913377192982456],[0.0010964912280701754,-0.1913377192982456],[0.0010964912280701754,-0.1913377192982456],[0.0010964912280701754,-0.1913377192982456],[0.0010964912280701754,-0.1913377192982456],[0.0010964912280701754,-0.1913377192982456],[0.0010964912280701754,-0.1913377192982456],[0.0010964912280701754,-0.1913377192982456],[0.0010964912280701754,-0.1913377192982456],[0.0010964912280701754,-0.1913377192982456],[0.0010964912280701754,-0.1913377192982456],[0.0010964912280701754,-0.1913377192982456],[0.0010964912280701754,-0.1913377192982456],[0.0010964912280701754,-0.18914473684210525],[-0.0010964912280701754,-0.17982456140350878],[-0.0043859649122807015,-0.16885964912280702],[-0.008223684210526315,-0.16173245614035087],[-0.014802631578947368,-0.14802631578947367],[-0.01864035087719298,-0.13980263157894737],[-0.021929824561403508,-0.13432017543859648],[-0.025219298245614034,-0.12828947368421054],[-0.0268640350877193,-0.12445175438596491],[-0.03179824561403509,-0.11787280701754387],[-0.03508771929824561,-0.11348684210526316],[-0.03673245614035088,-0.10910087719298246],[-0.04057017543859649,-0.10361842105263158],[-0.04276315789473684,-0.10032894736842106],[-0.04550438596491228,-0.09649122807017543],[-0.047149122807017545,-0.09375],[-0.049342105263157895,-0.08881578947368421],[-0.05263157894736842,-0.08442982456140351],[-0.0537280701754386,-0.08333333333333333],[-0.05592105263157895,-0.0805921052631579],[-0.05701754385964912,-0.07785087719298246],[-0.05975877192982456,-0.07456140350877193],[-0.06359649122807018,-0.06798245614035088],[-0.06578947368421052,-0.06414473684210527],[-0.07017543859649122,-0.05756578947368421],[-0.07291666666666667,-0.0537280701754386],[-0.0762061403508772,-0.048793859649122806],[-0.08278508771929824,-0.039473684210526314],[-0.08607456140350878,-0.03453947368421053],[-0.08991228070175439,-0.027960526315789474],[-0.09155701754385964,-0.024671052631578948],[-0.09375,-0.019736842105263157],[-0.0981359649122807,-0.012609649122807017],[-0.10032894736842106,-0.008771929824561403],[-0.10416666666666667,-0.003837719298245614],[-0.10526315789473684,-0.001644736842105263],[-0.10910087719298246,0.0005482456140350877],[-0.1162280701754386,0.007675438596491228],[-0.12171052631578948,0.015350877192982455],[-0.12774122807017543,0.023026315789473683],[-0.1299342105263158,0.02631578947368421],[-0.13212719298245615,0.02905701754385965],[-0.13706140350877194,0.03399122807017544],[-0.14089912280701755,0.03728070175438596],[-0.14857456140350878,0.042214912280701754],[-0.15460526315789475,0.04550438596491228],[-0.15844298245614036,0.048793859649122806],[-0.1650219298245614,0.05263157894736842],[-0.16831140350877194,0.05646929824561404],[-0.17105263157894737,0.06140350877192982],[-0.17324561403508773,0.06359649122807018],[-0.17543859649122806,0.06524122807017543],[-0.17817982456140352,0.0668859649122807],[-0.17927631578947367,0.06798245614035088],[-0.1836622807017544,0.07072368421052631],[-0.18585526315789475,0.07182017543859649],[-0.18804824561403508,0.07291666666666667],[-0.19024122807017543,0.07456140350877193],[-0.19188596491228072,0.0756578947368421],[-0.19462719298245615,0.07785087719298246],[-0.1962719298245614,0.07894736842105263],[-0.19846491228070176,0.08114035087719298],[-0.2012061403508772,0.08333333333333333],[-0.20285087719298245,0.08552631578947369],[-0.20559210526315788,0.08881578947368421],[-0.20942982456140352,0.09210526315789473],[-0.21436403508771928,0.09758771929824561],[-0.21655701754385964,0.10142543859649122],[-0.21875,0.10581140350877193],[-0.22203947368421054,0.1118421052631579],[-0.22478070175438597,0.11567982456140351],[-0.22587719298245615,0.11951754385964912],[-0.22916666666666666,0.125],[-0.23135964912280702,0.12938596491228072],[-0.23410087719298245,0.13541666666666666],[-0.23464912280701755,0.13925438596491227],[-0.23684210526315788,0.14473684210526316],[-0.23739035087719298,0.14638157894736842],[-0.23793859649122806,0.14912280701754385],[-0.23793859649122806,0.15350877192982457],[-0.23793859649122806,0.15570175438596492],[-0.23793859649122806,0.15844298245614036],[-0.23793859649122806,0.1611842105263158]],[[0.004934210526315789,-0.19956140350877194],[0.004934210526315789,-0.19956140350877194],[0.004934210526315789,-0.19956140350877194],[0.004934210526315789,-0.19956140350877194],[0.004934210526315789,-0.19956140350877194],[0.004934210526315789,-0.19956140350877194],[0.004934210526315789,-0.19956140350877194],[0.004934210526315789,-0.19956140350877194],[0.004934210526315789,-0.19956140350877194],[0.004934210526315789,-0.19956140350877194],[0.004934210526315789,-0.19956140350877194],[0.014802631578947368,-0.19956140350877194],[0.025767543859649123,-0.19956140350877194],[0.049342105263157895,-0.20065789473684212],[0.0625,-0.20175438596491227],[0.07456140350877193,-0.20285087719298245],[0.09923245614035088,-0.20723684210526316],[0.10800438596491228,-0.20723684210526316],[0.11842105263157894,-0.20833333333333334],[0.125,-0.20888157894736842],[0.13651315789473684,-0.21107456140350878],[0.15186403508771928,-0.21326754385964913],[0.16173245614035087,-0.2149122807017544],[0.17982456140350878,-0.21710526315789475],[0.19188596491228072,-0.21820175438596492],[0.19956140350877194,-0.21820175438596492],[0.21326754385964913,-0.21875],[0.22697368421052633,-0.22094298245614036],[0.24396929824561403,-0.22203947368421054],[0.2505482456140351,-0.2225877192982456],[0.2598684210526316,-0.22478070175438597],[0.2713815789473684,-0.22642543859649122],[0.2779605263157895,-0.2275219298245614],[0.28618421052631576,-0.22971491228070176],[0.2911184210526316,-0.22971491228070176],[0.29276315789473684,-0.23026315789473684],[0.2949561403508772,-0.23026315789473684],[0.29605263157894735,-0.23026315789473684],[0.29605263157894735,-0.23081140350877194],[0.29660087719298245,-0.23081140350877194],[0.29660087719298245,-0.23081140350877194],[0.29660087719298245,-0.23081140350877194],[0.29660087719298245,-0.23081140350877194],[0.29660087719298245,-0.23081140350877194],[0.29660087719298245,-0.23081140350877194],[0.29660087719298245,-0.23081140350877194],[0.29660087719298245,-0.23081140350877194],[0.29660087719298245,-0.23081140350877194]]]",2,"[96,48]",space,11.788965,space,3.83152,0,5,5,4,1,left_2.jpg,left_2_path.jpg,,,,,,,,,,,,,,,,
Image_List_1,,,,,,,,,,,,,,,,43851,2020-11-06_18h53.45.153,analogCatScenes,2020.1.3,Win32,60,"[1368,912]","[[[0.0010964912280701754,-0.19517543859649122],[0.0010964912280701754,-0.19517543859649122],[0.0010964912280701754,-0.19517543859649122],[0.0010964912280701754,-0.19517543859649122],[0.0010964912280701754,-0.19517543859649122],[0.0010964912280701754,-0.19517543859649122],[0.0010964912280701754,-0.19517543859649122],[0.0010964912280701754,-0.19517543859649122],[0.0010964912280701754,-0.19517543859649122],[0.0010964912280701754,-0.19517543859649122],[0.0010964912280701754,-0.19517543859649122],[0.0010964912280701754,-0.19517543859649122],[0.0005482456140350877,-0.19078947368421054],[-0.0005482456140350877,-0.18037280701754385],[-0.0021929824561403508,-0.16447368421052633],[-0.0021929824561403508,-0.1513157894736842],[-0.003289473684210526,-0.13486842105263158],[-0.003289473684210526,-0.12719298245614036],[-0.0043859649122807015,-0.11787280701754387],[-0.005482456140350877,-0.0981359649122807],[-0.006578947368421052,-0.08333333333333333],[-0.006578947368421052,-0.0625],[-0.00712719298245614,-0.05317982456140351],[-0.00712719298245614,-0.046600877192982455],[-0.008223684210526315,-0.04057017543859649],[-0.008223684210526315,-0.03508771929824561],[-0.008223684210526315,-0.01864035087719298],[-0.008223684210526315,-0.00932017543859649],[-0.008223684210526315,-0.003837719298245614],[-0.008223684210526315,0],[-0.008223684210526315,0.003837719298245614],[-0.008223684210526315,0.010964912280701754],[-0.008223684210526315,0.015899122807017545],[-0.008223684210526315,0.01864035087719298],[-0.008223684210526315,0.019736842105263157],[-0.008771929824561403,0.021929824561403508],[-0.00932017543859649,0.02412280701754386],[-0.00932017543859649,0.027960526315789474],[-0.00932017543859649,0.03179824561403509],[-0.00932017543859649,0.03618421052631579],[-0.010964912280701754,0.03728070175438596],[-0.011513157894736841,0.039473684210526314],[-0.01206140350877193,0.04057017543859649],[-0.012609649122807017,0.04331140350877193],[-0.01425438596491228,0.047697368421052634],[-0.014802631578947368,0.05043859649122807],[-0.01644736842105263,0.05482456140350877],[-0.01699561403508772,0.05701754385964912],[-0.017543859649122806,0.05975877192982456],[-0.01918859649122807,0.06524122807017543],[-0.01918859649122807,0.06798245614035088],[-0.020833333333333332,0.07182017543859649],[-0.02138157894736842,0.07291666666666667],[-0.02138157894736842,0.07456140350877193],[-0.021929824561403508,0.07675438596491228],[-0.021929824561403508,0.07785087719298246],[-0.023026315789473683,0.0800438596491228],[-0.02412280701754386,0.08114035087719298],[-0.024671052631578948,0.08223684210526316],[-0.025767543859649123,0.08388157894736842],[-0.025767543859649123,0.08607456140350878],[-0.0268640350877193,0.08662280701754387],[-0.0268640350877193,0.08662280701754387],[-0.0268640350877193,0.08662280701754387],[-0.0268640350877193,0.08662280701754387]],[[0.003289473684210526,-0.1924342105263158],[0.003289473684210526,-0.1924342105263158],[0.003289473684210526,-0.1924342105263158],[0.003289473684210526,-0.1924342105263158],[0.003289473684210526,-0.1924342105263158],[0.003289473684210526,-0.1924342105263158],[0.003289473684210526,-0.1924342105263158],[0.003289473684210526,-0.1924342105263158],[0.003289473684210526,-0.1924342105263158],[0.003289473684210526,-0.1924342105263158],[0.008771929824561403,-0.1913377192982456],[0.039473684210526314,-0.18475877192982457],[0.07346491228070176,-0.17982456140350878],[0.09539473684210527,-0.1787280701754386],[0.11787280701754387,-0.17543859649122806],[0.13322368421052633,-0.17434210526315788],[0.1524122807017544,-0.17434210526315788],[0.15789473684210525,-0.17543859649122806],[0.16173245614035087,-0.17543859649122806],[0.1650219298245614,-0.17543859649122806],[0.16666666666666666,-0.17543859649122806],[0.16940789473684212,-0.17543859649122806],[0.17214912280701755,-0.17543859649122806],[0.18146929824561403,-0.17434210526315788],[0.1962719298245614,-0.17050438596491227],[0.20449561403508773,-0.16885964912280702],[0.21107456140350878,-0.16611842105263158],[0.21875,-0.16447368421052633],[0.2225877192982456,-0.16337719298245615],[0.22861842105263158,-0.16228070175438597],[0.2324561403508772,-0.1611842105263158],[0.23793859649122806,-0.15953947368421054],[0.23958333333333334,-0.15953947368421054],[0.24067982456140352,-0.15953947368421054],[0.24232456140350878,-0.15953947368421054],[0.24342105263157895,-0.15899122807017543],[0.2461622807017544,-0.15844298245614036],[0.24725877192982457,-0.15844298245614036],[0.24835526315789475,-0.15844298245614036],[0.25,-0.15844298245614036],[0.2505482456140351,-0.15844298245614036],[0.25109649122807015,-0.15789473684210525],[0.25164473684210525,-0.15789473684210525],[0.25164473684210525,-0.15789473684210525],[0.25164473684210525,-0.15789473684210525],[0.25164473684210525,-0.15789473684210525]]]",2,"[65,46]",space,15.219495,space,0.72153,0,6,6,2,1,ahead_right_2.jpg,ahead_right_2_path.jpg,,,,,,,,,,,,,,,,
Image_List_1,,,,,,,,,,,,,,,,43851,2020-11-06_18h53.45.153,analogCatScenes,2020.1.3,Win32,60,"[1368,912]","[[[-0.001644736842105263,-0.19956140350877194],[-0.001644736842105263,-0.19956140350877194],[-0.001644736842105263,-0.19956140350877194],[-0.001644736842105263,-0.19956140350877194],[-0.001644736842105263,-0.19956140350877194],[-0.001644736842105263,-0.19956140350877194],[-0.001644736842105263,-0.19956140350877194],[-0.001644736842105263,-0.19956140350877194],[-0.001644736842105263,-0.19956140350877194],[-0.001644736842105263,-0.19956140350877194],[-0.001644736842105263,-0.19956140350877194],[-0.001644736842105263,-0.19956140350877194],[-0.0027412280701754384,-0.18585526315789475],[-0.003837719298245614,-0.16228070175438597],[-0.003837719298245614,-0.13048245614035087],[-0.003837719298245614,-0.10855263157894737],[-0.003837719298245614,-0.0805921052631579],[-0.003837719298245614,-0.06030701754385965],[-0.003837719298245614,-0.043859649122807015],[-0.003837719298245614,-0.027412280701754384],[-0.003837719298245614,-0.015899122807017545],[-0.003837719298245614,-0.004934210526315789],[-0.004934210526315789,0],[-0.005482456140350877,0.004934210526315789],[-0.006578947368421052,0.01206140350877193],[-0.00712719298245614,0.015899122807017545],[-0.008771929824561403,0.024671052631578948],[-0.008771929824561403,0.03234649122807018],[-0.00932017543859649,0.03837719298245614],[-0.010416666666666666,0.046052631578947366],[-0.011513157894736841,0.052083333333333336],[-0.011513157894736841,0.06085526315789474],[-0.011513157894736841,0.07017543859649122],[-0.011513157894736841,0.0756578947368421],[-0.010964912280701754,0.08278508771929824],[-0.010964912280701754,0.08552631578947369],[-0.010964912280701754,0.08991228070175439],[-0.010964912280701754,0.09429824561403509],[-0.010964912280701754,0.10087719298245613],[-0.011513157894736841,0.10800438596491228],[-0.011513157894736841,0.11074561403508772],[-0.01206140350877193,0.11403508771929824],[-0.012609649122807017,0.11787280701754387],[-0.012609649122807017,0.12280701754385964],[-0.012609649122807017,0.13157894736842105],[-0.013157894736842105,0.13541666666666666],[-0.01425438596491228,0.1387061403508772],[-0.014802631578947368,0.14089912280701755],[-0.014802631578947368,0.14364035087719298],[-0.015899122807017545,0.1524122807017544],[-0.01644736842105263,0.15844298245614036],[-0.017543859649122806,0.16447368421052633],[-0.018092105263157895,0.16940789473684212],[-0.018092105263157895,0.1737938596491228],[-0.018092105263157895,0.18092105263157895],[-0.018092105263157895,0.1836622807017544],[-0.018092105263157895,0.18804824561403508],[-0.018092105263157895,0.19024122807017543],[-0.018092105263157895,0.19407894736842105]]]",1,[59],,,,,,,,,,,,space,5.66391,dining_car.jpg,space,3.19298,0,0,0,37,1,driveway4.jpg,dinosaur4.jpg,driveway7.jpg,citystreet9.jpg,,
Image_List_1,,,,,,,,,,,,,,,,43851,2020-11-06_18h53.45.153,analogCatScenes,2020.1.3,Win32,60,"[1368,912]","[[[0.0027412280701754384,-0.2012061403508772],[0.0027412280701754384,-0.2012061403508772],[0.0027412280701754384,-0.2012061403508772],[0.0027412280701754384,-0.2012061403508772],[0.0027412280701754384,-0.2012061403508772],[0.0027412280701754384,-0.2012061403508772],[0.0027412280701754384,-0.2012061403508772],[0.0027412280701754384,-0.2012061403508772],[0.0027412280701754384,-0.2012061403508772],[0.0027412280701754384,-0.2012061403508772],[0.0027412280701754384,-0.2012061403508772],[0.0027412280701754384,-0.2012061403508772],[0.0010964912280701754,-0.20010964912280702],[-0.003837719298245614,-0.19682017543859648],[-0.018092105263157895,-0.19078947368421054],[-0.03125,-0.18530701754385964],[-0.041666666666666664,-0.17708333333333334],[-0.05592105263157895,-0.16611842105263158],[-0.06633771929824561,-0.15844298245614036],[-0.07730263157894737,-0.15296052631578946],[-0.08333333333333333,-0.14967105263157895],[-0.09155701754385964,-0.14473684210526316],[-0.0981359649122807,-0.13925438596491227],[-0.10416666666666667,-0.13486842105263158],[-0.11019736842105263,-0.13267543859649122],[-0.11348684210526316,-0.13103070175438597],[-0.11677631578947369,-0.1299342105263158],[-0.11896929824561403,-0.12828947368421054],[-0.12116228070175439,-0.12719298245614036],[-0.12335526315789473,-0.12609649122807018],[-0.125,-0.12554824561403508],[-0.12554824561403508,-0.12554824561403508],[-0.12664473684210525,-0.125],[-0.12719298245614036,-0.12445175438596491],[-0.1288377192982456,-0.12390350877192982],[-0.1288377192982456,-0.12390350877192982],[-0.1288377192982456,-0.12390350877192982],[-0.1288377192982456,-0.12390350877192982]]]",1,[38],,,,,,,,,,,,,,liquorstore7.jpg,space,2.91068,0,1,1,68,1,parkinglot.jpg,lightingstore4.jpg,lockerroom2.jpg,hospitalroom3.jpg,,
Image_List_1,,,,,,,,,,,,,,,,43851,2020-11-06_18h53.45.153,analogCatScenes,2020.1.3,Win32,60,"[1368,912]","[[[0.0021929824561403508,-0.20285087719298245],[0,-0.20614035087719298],[-0.0005482456140350877,-0.20614035087719298],[-0.0005482456140350877,-0.20614035087719298],[-0.001644736842105263,-0.20559210526315788],[-0.0027412280701754384,-0.20449561403508773],[-0.003289473684210526,-0.20394736842105263],[-0.005482456140350877,-0.20175438596491227],[-0.008771929824561403,-0.19956140350877194],[-0.011513157894736841,-0.19736842105263158],[-0.018092105263157895,-0.19298245614035087],[-0.02631578947368421,-0.1875],[-0.03070175438596491,-0.18421052631578946],[-0.043859649122807015,-0.17214912280701755],[-0.05756578947368421,-0.15789473684210525],[-0.06743421052631579,-0.1474780701754386],[-0.07730263157894737,-0.13760964912280702],[-0.08168859649122807,-0.13212719298245615],[-0.09100877192982457,-0.1206140350877193],[-0.09539473684210527,-0.11513157894736842],[-0.10307017543859649,-0.10307017543859649],[-0.1112938596491228,-0.09155701754385964],[-0.11513157894736842,-0.08552631578947369],[-0.12280701754385964,-0.07401315789473684],[-0.1288377192982456,-0.0625],[-0.13432017543859648,-0.05098684210526316],[-0.13706140350877194,-0.04550438596491228],[-0.14144736842105263,-0.03618421052631579],[-0.14583333333333334,-0.027960526315789474],[-0.14802631578947367,-0.02412280701754386],[-0.15076754385964913,-0.015350877192982455],[-0.1524122807017544,-0.006030701754385965],[-0.15296052631578946,-0.0010964912280701754],[-0.15350877192982457,0.008771929824561403],[-0.15350877192982457,0.013706140350877192],[-0.15296052631578946,0.02412280701754386],[-0.1513157894736842,0.03508771929824561],[-0.14967105263157895,0.04550438596491228],[-0.14802631578947367,0.05098684210526316],[-0.14528508771929824,0.06304824561403509],[-0.14199561403508773,0.07456140350877193],[-0.13980263157894737,0.0805921052631579],[-0.13541666666666666,0.09100877192982457],[-0.13103070175438597,0.10032894736842106],[-0.12828947368421054,0.10416666666666667],[-0.12390350877192982,0.1118421052631579],[-0.11896929824561403,0.11787280701754387],[-0.1162280701754386,0.1206140350877193],[-0.11019736842105263,0.12664473684210525],[-0.10307017543859649,0.1337719298245614],[-0.09923245614035088,0.13706140350877194],[-0.09210526315789473,0.14364035087719298],[-0.08442982456140351,0.15076754385964913],[-0.0805921052631579,0.15460526315789475],[-0.07236842105263158,0.16063596491228072],[-0.06359649122807018,0.16666666666666666],[-0.05921052631578947,0.1699561403508772],[-0.05043859649122807,0.17708333333333334],[-0.041666666666666664,0.18311403508771928],[-0.03673245614035088,0.18640350877192982],[-0.0268640350877193,0.19298245614035087],[-0.01644736842105263,0.19956140350877194],[-0.010964912280701754,0.20285087719298245],[-0.0021929824561403508,0.20778508771929824],[0.00712719298245614,0.21107456140350878],[0.011513157894736841,0.21271929824561403],[0.020833333333333332,0.21546052631578946],[0.030153508771929825,0.21820175438596492],[0.0356359649122807,0.21984649122807018],[0.046052631578947366,0.22313596491228072],[0.05866228070175439,0.22697368421052633],[0.06469298245614036,0.22916666666666666],[0.07839912280701754,0.2324561403508772],[0.09210526315789473,0.23684210526315788],[0.09978070175438597,0.23903508771929824],[0.11513157894736842,0.24561403508771928],[0.13267543859649122,0.2532894736842105],[0.14144736842105263,0.25603070175438597],[0.15899122807017543,0.26206140350877194],[0.17598684210526316,0.2675438596491228],[0.18421052631578946,0.26973684210526316],[0.20175438596491227,0.27521929824561403],[0.21710526315789475,0.27905701754385964],[0.22532894736842105,0.2807017543859649],[0.23958333333333334,0.28344298245614036],[0.25219298245614036,0.2850877192982456],[0.2571271929824561,0.2850877192982456],[0.2669956140350877,0.28673245614035087],[0.2774122807017544,0.2905701754385965],[0.28234649122807015,0.29221491228070173],[0.2905701754385965,0.2949561403508772],[0.29769736842105265,0.29660087719298245],[0.29989035087719296,0.29769736842105265],[0.30372807017543857,0.2987938596491228],[0.30372807017543857,0.2987938596491228],[0.30372807017543857,0.2987938596491228]]]",1,[96],,,,,,,,,,,,,,HorseRaceTrack.jpg,space,31.57923,0,2,2,61,1,metroInside4.jpg,homegarden6.jpg,kindergarten_classroom7.jpg,hayfield6.jpg,,
Image_List_1,,,,,,,,,,,,,,,,43851,2020-11-06_18h53.45.153,analogCatScenes,2020.1.3,Win32,60,"[1368,912]","[[[-0.003837719298245614,-0.20668859649122806],[-0.001644736842105263,-0.20833333333333334],[-0.001644736842105263,-0.20833333333333334],[-0.001644736842105263,-0.20723684210526316],[-0.0010964912280701754,-0.20449561403508773],[-0.0005482456140350877,-0.20285087719298245],[0.0010964912280701754,-0.19901315789473684],[0.004934210526315789,-0.19462719298245615],[0.007675438596491228,-0.1924342105263158],[0.011513157894736841,-0.19078947368421054],[0.020285087719298246,-0.18804824561403508],[0.03179824561403509,-0.18530701754385964],[0.05646929824561404,-0.18146929824561403],[0.06304824561403509,-0.18146929824561403],[0.07510964912280702,-0.18311403508771928],[0.08717105263157894,-0.18585526315789475],[0.09375,-0.18695175438596492],[0.10635964912280702,-0.18914473684210525],[0.11896929824561403,-0.19078947368421054],[0.125,-0.1913377192982456],[0.13706140350877194,-0.1913377192982456],[0.14802631578947367,-0.1924342105263158],[0.15296052631578946,-0.19298245614035087],[0.16337719298245615,-0.19353070175438597],[0.17324561403508773,-0.19407894736842105],[0.17817982456140352,-0.19407894736842105],[0.18640350877192982,-0.19353070175438597],[0.19188596491228072,-0.19407894736842105],[0.19407894736842105,-0.19462719298245615],[0.19736842105263158,-0.19517543859649122],[0.20175438596491227,-0.19462719298245615],[0.20449561403508773,-0.19407894736842105],[0.21052631578947367,-0.1913377192982456],[0.21820175438596492,-0.18804824561403508],[0.22203947368421054,-0.18640350877192982],[0.22532894736842105,-0.18475877192982457],[0.22532894736842105,-0.18475877192982457]]]",1,[37],,,,,,,,,,,,,,fittingroom2.jpg,space,6.222605,0,3,3,45,1,frontFoyer7.jpg,factory1.jpg,forestpath4.jpg,dock4.jpg,,
Image_List_1,,,,,,,,,,,,,,,,43851,2020-11-06_18h53.45.153,analogCatScenes,2020.1.3,Win32,60,"[1368,912]","[[[0.006578947368421052,-0.21052631578947367],[0.003837719298245614,-0.20833333333333334],[0.001644736842105263,-0.20559210526315788],[0.0005482456140350877,-0.20175438596491227],[-0.001644736842105263,-0.19846491228070176],[-0.0027412280701754384,-0.19572368421052633],[-0.0043859649122807015,-0.18969298245614036],[-0.006030701754385965,-0.18201754385964913],[-0.00712719298245614,-0.17763157894736842],[-0.007675438596491228,-0.17269736842105263],[-0.009868421052631578,-0.16282894736842105],[-0.011513157894736841,-0.1513157894736842],[-0.01425438596491228,-0.14035087719298245],[-0.01864035087719298,-0.12280701754385964],[-0.021929824561403508,-0.1112938596491228],[-0.025219298245614034,-0.09978070175438597],[-0.0268640350877193,-0.09375],[-0.02905701754385965,-0.08114035087719298],[-0.03125,-0.06853070175438597],[-0.03179824561403509,-0.0625],[-0.03344298245614035,-0.05098684210526316],[-0.03453947368421053,-0.042214912280701754],[-0.03453947368421053,-0.03782894736842105],[-0.03453947368421053,-0.02850877192982456],[-0.03453947368421053,-0.020833333333333332],[-0.03399122807017544,-0.018092105263157895],[-0.03344298245614035,-0.01425438596491228],[-0.03344298245614035,-0.012609649122807017],[-0.03344298245614035,-0.01206140350877193],[-0.03344298245614035,-0.01206140350877193],[-0.03344298245614035,-0.01206140350877193],[-0.03399122807017544,-0.013706140350877192]],[[0,-0.20285087719298245],[0,-0.20285087719298245],[0,-0.20285087719298245],[0.0043859649122807015,-0.19956140350877194],[0.009868421052631578,-0.19462719298245615],[0.013157894736842105,-0.1913377192982456],[0.019736842105263157,-0.1836622807017544],[0.0268640350877193,-0.17324561403508773],[0.03070175438596491,-0.16776315789473684],[0.0356359649122807,-0.1611842105263158],[0.044407894736842105,-0.14692982456140352],[0.05317982456140351,-0.13157894736842105],[0.0625,-0.11732456140350878],[0.07510964912280702,-0.09649122807017543],[0.08442982456140351,-0.08442982456140351],[0.09265350877192982,-0.07291666666666667],[0.09649122807017543,-0.06798245614035088],[0.10361842105263158,-0.06030701754385965],[0.10910087719298246,-0.052083333333333336],[0.1118421052631579,-0.04824561403508772],[0.11677631578947369,-0.041666666666666664],[0.12006578947368421,-0.03618421052631579],[0.12171052631578948,-0.03399122807017544],[0.12390350877192982,-0.03179824561403509],[0.12554824561403508,-0.030153508771929825],[0.12609649122807018,-0.029605263157894735],[0.12774122807017543,-0.02905701754385965],[0.12774122807017543,-0.02850877192982456],[0.12774122807017543,-0.02850877192982456],[0.12774122807017543,-0.030153508771929825]]]",2,"[32,30]",,,,,,,,,,,,,,tollbooth8.jpg,space,10.508555,0,4,4,93,1,volleyballcourt4.jpg,staircase4.jpg,warehouseoutside2.jpg,tenniscourt.jpg,,
Image_List_1,,,,,,,,,,,,,,,,43851,2020-11-06_18h53.45.153,analogCatScenes,2020.1.3,Win32,60,"[1368,912]","[[[0.008223684210526315,-0.19846491228070176],[0.004934210526315789,-0.19846491228070176],[0.003837719298245614,-0.19846491228070176],[0.0027412280701754384,-0.19791666666666666],[0.0010964912280701754,-0.1962719298245614],[0.0005482456140350877,-0.19517543859649122],[-0.0005482456140350877,-0.1924342105263158],[-0.001644736842105263,-0.18804824561403508],[-0.0027412280701754384,-0.18037280701754385],[-0.0027412280701754384,-0.18037280701754385],[-0.003289473684210526,-0.17050438596491227],[-0.003837719298245614,-0.15953947368421054],[-0.003837719298245614,-0.15296052631578946],[-0.003837719298245614,-0.1299342105263158],[-0.003289473684210526,-0.10361842105263158],[-0.0027412280701754384,-0.08662280701754387],[-0.0021929824561403508,-0.07785087719298246],[-0.0021929824561403508,-0.0625],[-0.0027412280701754384,-0.04824561403508772],[-0.0027412280701754384,-0.042214912280701754],[-0.003837719298245614,-0.029605263157894735],[-0.005482456140350877,-0.019736842105263157],[-0.006030701754385965,-0.014802631578947368],[-0.007675438596491228,-0.005482456140350877],[-0.008771929824561403,0.0027412280701754384],[-0.008771929824561403,0.00712719298245614],[-0.00932017543859649,0.01699561403508772],[-0.009868421052631578,0.02631578947368421],[-0.009868421052631578,0.03070175438596491],[-0.010964912280701754,0.0400219298245614],[-0.012609649122807017,0.046600877192982455],[-0.013157894736842105,0.049890350877192985],[-0.014802631578947368,0.05646929824561404],[-0.015899122807017545,0.0625],[-0.01644736842105263,0.06578947368421052],[-0.01699561403508772,0.07072368421052631],[-0.01644736842105263,0.07675438596491228],[-0.015899122807017545,0.07949561403508772],[-0.015350877192982455,0.08662280701754387],[-0.015350877192982455,0.09210526315789473],[-0.014802631578947368,0.09429824561403509],[-0.015350877192982455,0.09868421052631579],[-0.015350877192982455,0.10361842105263158],[-0.015350877192982455,0.10635964912280702],[-0.01425438596491228,0.11239035087719298],[-0.013157894736842105,0.1162280701754386],[-0.012609649122807017,0.11732456140350878],[-0.011513157894736841,0.11951754385964912],[-0.010964912280701754,0.1206140350877193],[-0.010964912280701754,0.12116228070175439]]]",1,[50],,,,,,,,,,,,,,wineVineyard9.jpg,space,2.645095,0,5,5,99,1,yogastudio4.jpg,windmill2.jpg,wrestlingring7.jpg,yogastudio1.jpg,,
Image_List_1,,,,,,,,,,,,,,,,43851,2020-11-06_18h53.45.153,analogCatScenes,2020.1.3,Win32,60,"[1368,912]","[[[-0.007675438596491228,-0.19682017543859648],[-0.006030701754385965,-0.20065789473684212],[-0.005482456140350877,-0.20394736842105263],[-0.006030701754385965,-0.20559210526315788],[-0.00712719298245614,-0.20614035087719298],[-0.007675438596491228,-0.20559210526315788],[-0.009868421052631578,-0.2050438596491228],[-0.012609649122807017,-0.20339912280701755],[-0.01425438596491228,-0.20285087719298245],[-0.01644736842105263,-0.20175438596491227],[-0.020833333333333332,-0.20010964912280702],[-0.025767543859649123,-0.19846491228070176],[-0.043859649122807015,-0.19078947368421054],[-0.049342105263157895,-0.1875],[-0.06359649122807018,-0.17982456140350878],[-0.07839912280701754,-0.1699561403508772],[-0.08662280701754387,-0.1650219298245614],[-0.1025219298245614,-0.15460526315789475],[-0.12006578947368421,-0.14364035087719298],[-0.1288377192982456,-0.13760964912280702],[-0.14692982456140352,-0.12445175438596491],[-0.16557017543859648,-0.1112938596491228],[-0.17434210526315788,-0.10416666666666667],[-0.19298245614035087,-0.09046052631578948],[-0.21052631578947367,-0.07785087719298246],[-0.21929824561403508,-0.0712719298245614],[-0.23574561403508773,-0.05921052631578947],[-0.25164473684210525,-0.046600877192982455],[-0.2593201754385965,-0.04057017543859649],[-0.2730263157894737,-0.027960526315789474],[-0.2856359649122807,-0.015350877192982455],[-0.2905701754385965,-0.008771929824561403],[-0.29769736842105265,0.003289473684210526],[-0.30098684210526316,0.012609649122807017],[-0.3020833333333333,0.01644736842105263],[-0.30098684210526316,0.021929824561403508],[-0.30098684210526316,0.021929824561403508],[-0.30098684210526316,0.021929824561403508]]]",1,[38],,,,,,,,,,,,,,baggageClaim4.jpg,space,12.64307,0,6,6,12,1,bedroom6.jpg,bambooforest5.jpg,bleachers7.jpg,backyard5.jpg,,
Image_List_1,,,,,,,,,,,,,,,,43851,2020-11-06_18h53.45.153,analogCatScenes,2020.1.3,Win32,60,"[1368,912]","[[[0.005482456140350877,-0.19517543859649122],[0.0043859649122807015,-0.18859649122807018],[0.004934210526315789,-0.18421052631578946],[0.006030701754385965,-0.18201754385964913],[0.008771929824561403,-0.1787280701754386],[0.013706140350877192,-0.1737938596491228],[0.01644736842105263,-0.17160087719298245],[0.023026315789473683,-0.16721491228070176],[0.03234649122807018,-0.16173245614035087],[0.042214912280701754,-0.15405701754385964],[0.047697368421052634,-0.14967105263157895],[0.0537280701754386,-0.14473684210526316],[0.0668859649122807,-0.13486842105263158],[0.07346491228070176,-0.12828947368421054],[0.0893640350877193,-0.11567982456140351],[0.1069078947368421,-0.10142543859649122],[0.14364035087719298,-0.07236842105263158],[0.15350877192982457,-0.06578947368421052],[0.17214912280701755,-0.05263157894736842],[0.18969298245614036,-0.042214912280701754],[0.19682017543859648,-0.03782894736842105],[0.20942982456140352,-0.029605263157894735],[0.21984649122807018,-0.022478070175438597],[0.22423245614035087,-0.01918859649122807],[0.23190789473684212,-0.013706140350877192],[0.23739035087719298,-0.008771929824561403],[0.23848684210526316,-0.00712719298245614],[0.23903508771929824,-0.006030701754385965],[0.23903508771929824,-0.006030701754385965],[0.23903508771929824,-0.006030701754385965]],[[0.009868421052631578,-0.19682017543859648],[0.009868421052631578,-0.19682017543859648],[0.008223684210526315,-0.19298245614035087],[0.006578947368421052,-0.1924342105263158],[0.003837719298245614,-0.19188596491228072],[-0.0005482456140350877,-0.19188596491228072],[-0.004934210526315789,-0.1924342105263158],[-0.007675438596491228,-0.1924342105263158],[-0.010416666666666666,-0.19188596491228072],[-0.017543859649122806,-0.1913377192982456],[-0.02138157894736842,-0.1913377192982456],[-0.03289473684210526,-0.18859649122807018],[-0.047149122807017545,-0.18475877192982457],[-0.05701754385964912,-0.18146929824561403],[-0.06962719298245613,-0.17653508771929824],[-0.0756578947368421,-0.17324561403508773],[-0.0893640350877193,-0.16666666666666666],[-0.10471491228070176,-0.15953947368421054],[-0.11348684210526316,-0.15515350877192982],[-0.13103070175438597,-0.14528508771929824],[-0.15021929824561403,-0.13596491228070176],[-0.16063596491228072,-0.1299342105263158],[-0.18092105263157895,-0.11896929824561403],[-0.2012061403508772,-0.1074561403508772],[-0.21162280701754385,-0.10087719298245613],[-0.23135964912280702,-0.08881578947368421],[-0.2505482456140351,-0.0756578947368421],[-0.2604166666666667,-0.06907894736842106],[-0.27850877192982454,-0.05592105263157895],[-0.2944078947368421,-0.044407894736842105],[-0.3020833333333333,-0.039473684210526314],[-0.31524122807017546,-0.03289473684210526],[-0.32346491228070173,-0.027960526315789474],[-0.3262061403508772,-0.0268640350877193],[-0.32785087719298245,-0.025767543859649123]]]",2,"[30,35]",,,,,,,,,,,,,,parkinggarage.jpg,space,6.55607,0,7,7,76,1,playroom4.jpg,parkinggarage3.jpg,park2.jpg,lookout4.jpg,,
Image_List_1,,,,,,,,,,,,,,,,43851,2020-11-06_18h53.45.153,analogCatScenes,2020.1.3,Win32,60,"[1368,912]","[[[-0.003289473684210526,-0.20065789473684212],[-0.0021929824561403508,-0.20559210526315788],[-0.0027412280701754384,-0.20723684210526316],[-0.0027412280701754384,-0.20723684210526316],[-0.003837719298245614,-0.20778508771929824],[-0.005482456140350877,-0.20723684210526316],[-0.006578947368421052,-0.20723684210526316],[-0.009868421052631578,-0.20559210526315788],[-0.012609649122807017,-0.2050438596491228],[-0.01918859649122807,-0.20230263157894737],[-0.022478070175438597,-0.20010964912280702],[-0.03399122807017544,-0.19407894736842105],[-0.04824561403508772,-0.1875],[-0.05866228070175439,-0.18311403508771928],[-0.06524122807017543,-0.18037280701754385],[-0.07785087719298246,-0.1737938596491228],[-0.09265350877192982,-0.16721491228070176],[-0.09923245614035088,-0.16392543859649122],[-0.11403508771929824,-0.15789473684210525],[-0.1288377192982456,-0.1513157894736842],[-0.13706140350877194,-0.1474780701754386],[-0.1524122807017544,-0.14035087719298245],[-0.16776315789473684,-0.1337719298245614],[-0.17489035087719298,-0.13048245614035087],[-0.18969298245614036,-0.12171052631578948],[-0.20339912280701755,-0.11403508771929824],[-0.21052631578947367,-0.11019736842105263],[-0.2225877192982456,-0.10032894736842106],[-0.23519736842105263,-0.09155701754385964],[-0.24067982456140352,-0.08771929824561403],[-0.25109649122807015,-0.07949561403508772],[-0.26260964912280704,-0.07182017543859649],[-0.2675438596491228,-0.06907894736842106],[-0.2768640350877193,-0.06359649122807018],[-0.28673245614035087,-0.05756578947368421],[-0.2905701754385965,-0.05482456140350877],[-0.29660087719298245,-0.05043859649122807],[-0.29989035087719296,-0.047697368421052634],[-0.30043859649122806,-0.047149122807017545]]]",1,[39],,,,,,,,,,,,,,airportTerminal4.jpg,space,4.12125,0,8,8,1,1,apartmentBuilding1.jpg,applestore1.jpg,airportTerminal3.jpg,airportTerminal2.jpg,,
Image_List_1,,,,,,,,,,,,,,,,43851,2020-11-06_18h53.45.153,analogCatScenes,2020.1.3,Win32,60,"[1368,912]","[[[-0.00932017543859649,-0.2012061403508772],[-0.011513157894736841,-0.19736842105263158],[-0.013706140350877192,-0.19572368421052633],[-0.01918859649122807,-0.19298245614035087],[-0.025767543859649123,-0.1913377192982456],[-0.02905701754385965,-0.18969298245614036],[-0.03728070175438596,-0.1875],[-0.046600877192982455,-0.18530701754385964],[-0.05098684210526316,-0.18421052631578946],[-0.05646929824561404,-0.18311403508771928],[-0.06743421052631579,-0.17982456140350878],[-0.07839912280701754,-0.17489035087719298],[-0.09046052631578948,-0.16885964912280702],[-0.10855263157894737,-0.15899122807017543],[-0.12116228070175439,-0.1513157894736842],[-0.13267543859649122,-0.1425438596491228],[-0.13925438596491227,-0.1387061403508772],[-0.15021929824561403,-0.12938596491228072],[-0.1611842105263158,-0.1206140350877193],[-0.16611842105263158,-0.11677631578947369],[-0.17434210526315788,-0.11019736842105263],[-0.18146929824561403,-0.10307017543859649],[-0.18530701754385964,-0.09923245614035088],[-0.19078947368421054,-0.09265350877192982],[-0.19407894736842105,-0.08881578947368421],[-0.19353070175438597,-0.08717105263157894],[-0.19188596491228072,-0.08771929824561403],[-0.19188596491228072,-0.08771929824561403],[-0.19188596491228072,-0.08771929824561403]],[[-0.005482456140350877,-0.19188596491228072],[-0.003289473684210526,-0.19572368421052633],[-0.0021929824561403508,-0.19736842105263158],[-0.001644736842105263,-0.19791666666666666],[0,-0.19901315789473684],[0.0021929824561403508,-0.20010964912280702],[0.003837719298245614,-0.20065789473684212],[0.007675438596491228,-0.20285087719298245],[0.013706140350877192,-0.20559210526315788],[0.01699561403508772,-0.20668859649122806],[0.020285087719298246,-0.20778508771929824],[0.02905701754385965,-0.20833333333333334],[0.039473684210526314,-0.20778508771929824],[0.06469298245614036,-0.20175438596491227],[0.0712719298245614,-0.19956140350877194],[0.08717105263157894,-0.19407894736842105],[0.10416666666666667,-0.18914473684210525],[0.11293859649122807,-0.18640350877192982],[0.13103070175438597,-0.18037280701754385],[0.14802631578947367,-0.17324561403508773],[0.15679824561403508,-0.16940789473684212],[0.17434210526315788,-0.16228070175438597],[0.19078947368421054,-0.15405701754385964],[0.19901315789473684,-0.14967105263157895],[0.2138157894736842,-0.14089912280701755],[0.22587719298245615,-0.1337719298245614],[0.23081140350877194,-0.12938596491228072],[0.23958333333333334,-0.12225877192982457],[0.2461622807017544,-0.11677631578947369],[0.24835526315789475,-0.11513157894736842],[0.25109649122807015,-0.1118421052631579],[0.25164473684210525,-0.11019736842105263],[0.25164473684210525,-0.10855263157894737],[0.2505482456140351,-0.10800438596491228],[0.2505482456140351,-0.10800438596491228]]]",2,"[29,35]",,,,,,,,,,,,,,hayfield5.jpg,space,13.260915,0,9,9,57,1,jail1.jpg,hallway4.jpg,hut5.jpg,gazebo.jpg,,
Image_List_1,,,,,,,,,,,,,,,,43851,2020-11-06_18h53.45.153,analogCatScenes,2020.1.3,Win32,60,"[1368,912]","[[[-0.001644736842105263,-0.2050438596491228],[-0.001644736842105263,-0.2050438596491228],[-0.003837719298245614,-0.20230263157894737],[-0.00712719298245614,-0.20175438596491227],[-0.008771929824561403,-0.20230263157894737],[-0.014802631578947368,-0.20339912280701755],[-0.021929824561403508,-0.20394736842105263],[-0.025767543859649123,-0.20394736842105263],[-0.03070175438596491,-0.20394736842105263],[-0.042214912280701754,-0.20230263157894737],[-0.0537280701754386,-0.19901315789473684],[-0.06085526315789474,-0.19736842105263158],[-0.08168859649122807,-0.1913377192982456],[-0.10361842105263158,-0.18475877192982457],[-0.11787280701754387,-0.17927631578947367],[-0.12445175438596491,-0.17598684210526316],[-0.13760964912280702,-0.16940789473684212],[-0.14857456140350878,-0.16228070175438597],[-0.15296052631578946,-0.15844298245614036],[-0.1611842105263158,-0.15021929824561403],[-0.16831140350877194,-0.14364035087719298],[-0.1699561403508772,-0.14089912280701755],[-0.17214912280701755,-0.13815789473684212],[-0.17105263157894737,-0.13706140350877194],[-0.16885964912280702,-0.13706140350877194],[-0.16885964912280702,-0.13706140350877194]]]",1,[26],,,,,,,,,,,,,,backstage2.jpg,space,2.469415,0,10,10,10,1,barbershop3.jpg,ballroom4.jpg,basketballcourt3.jpg,ATM4.jpg,,
Image_List_1,,,,,,,,,,,,,,,,43851,2020-11-06_18h53.45.153,analogCatScenes,2020.1.3,Win32,60,"[1368,912]","[[[-0.01206140350877193,-0.19188596491228072],[-0.01206140350877193,-0.19188596491228072],[-0.01206140350877193,-0.19188596491228072],[-0.01206140350877193,-0.19188596491228072],[-0.01206140350877193,-0.19188596491228072],[-0.01206140350877193,-0.19188596491228072],[-0.01206140350877193,-0.19188596491228072],[-0.01206140350877193,-0.19188596491228072],[-0.01206140350877193,-0.19188596491228072],[-0.01206140350877193,-0.19188596491228072],[-0.01206140350877193,-0.19188596491228072],[-0.01206140350877193,-0.19188596491228072],[-0.01206140350877193,-0.19188596491228072],[0.0021929824561403508,-0.19353070175438597],[0.011513157894736841,-0.19407894736842105],[0.02631578947368421,-0.19572368421052633],[0.047149122807017545,-0.19572368421052633],[0.05646929824561404,-0.19572368421052633],[0.06962719298245613,-0.19572368421052633],[0.07730263157894737,-0.19572368421052633],[0.08607456140350878,-0.19572368421052633],[0.09320175438596491,-0.1962719298245614],[0.0981359649122807,-0.19682017543859648],[0.10526315789473684,-0.19791666666666666],[0.11019736842105263,-0.19791666666666666],[0.11458333333333333,-0.19791666666666666],[0.12171052631578948,-0.19791666666666666],[0.12609649122807018,-0.19791666666666666],[0.13048245614035087,-0.19791666666666666],[0.13267543859649122,-0.19791666666666666],[0.1337719298245614,-0.19791666666666666],[0.13596491228070176,-0.19791666666666666],[0.13925438596491227,-0.19791666666666666],[0.15076754385964913,-0.19572368421052633],[0.15899122807017543,-0.19407894736842105],[0.16721491228070176,-0.1924342105263158],[0.1825657894736842,-0.19024122807017543],[0.20065789473684212,-0.18695175438596492],[0.22642543859649122,-0.18037280701754385],[0.2461622807017544,-0.17434210526315788],[0.2642543859649123,-0.1699561403508772],[0.28289473684210525,-0.16392543859649122],[0.29331140350877194,-0.15953947368421054],[0.3092105263157895,-0.15460526315789475],[0.31743421052631576,-0.15186403508771928],[0.3256578947368421,-0.14912280701754385],[0.3366228070175439,-0.14473684210526316],[0.34265350877192985,-0.14199561403508773],[0.3475877192982456,-0.14035087719298245],[0.34923245614035087,-0.13980263157894737]],[[-0.006578947368421052,-0.19298245614035087],[-0.006578947368421052,-0.19298245614035087],[-0.006578947368421052,-0.19298245614035087],[-0.006578947368421052,-0.19298245614035087],[-0.006578947368421052,-0.19298245614035087],[-0.006578947368421052,-0.19298245614035087],[-0.006578947368421052,-0.19298245614035087],[-0.006578947368421052,-0.19298245614035087],[-0.006578947368421052,-0.19298245614035087],[-0.006578947368421052,-0.19298245614035087],[-0.006578947368421052,-0.19298245614035087],[-0.006578947368421052,-0.19298245614035087],[-0.011513157894736841,-0.19298245614035087],[-0.02631578947368421,-0.19353070175438597],[-0.03837719298245614,-0.19462719298245615],[-0.05701754385964912,-0.19791666666666666],[-0.06633771929824561,-0.19846491228070176],[-0.08168859649122807,-0.20175438596491227],[-0.08991228070175439,-0.20230263157894737],[-0.09868421052631579,-0.20230263157894737],[-0.1069078947368421,-0.20230263157894737],[-0.11348684210526316,-0.20339912280701755],[-0.12445175438596491,-0.2050438596491228],[-0.13267543859649122,-0.20668859649122806],[-0.13925438596491227,-0.20778508771929824],[-0.15021929824561403,-0.20833333333333334],[-0.15953947368421054,-0.20942982456140352],[-0.1737938596491228,-0.21217105263157895],[-0.18311403508771928,-0.21436403508771928],[-0.19024122807017543,-0.21710526315789475],[-0.19956140350877194,-0.21929824561403508],[-0.2050438596491228,-0.22039473684210525],[-0.21107456140350878,-0.22149122807017543],[-0.21600877192982457,-0.2225877192982456],[-0.21875,-0.2225877192982456],[-0.22149122807017543,-0.2225877192982456],[-0.2236842105263158,-0.22313596491228072],[-0.22532894736842105,-0.2236842105263158],[-0.22642543859649122,-0.2236842105263158],[-0.22807017543859648,-0.2236842105263158],[-0.23026315789473684,-0.2236842105263158],[-0.23300438596491227,-0.2236842105263158],[-0.23739035087719298,-0.2236842105263158],[-0.24013157894736842,-0.2236842105263158],[-0.24232456140350878,-0.2236842105263158],[-0.24561403508771928,-0.2236842105263158],[-0.24835526315789475,-0.2236842105263158],[-0.25274122807017546,-0.2236842105263158],[-0.2543859649122807,-0.2236842105263158],[-0.2571271929824561,-0.2236842105263158],[-0.26151315789473684,-0.2236842105263158],[-0.2637061403508772,-0.2236842105263158],[-0.26589912280701755,-0.2236842105263158],[-0.26644736842105265,-0.2236842105263158],[-0.2675438596491228,-0.2236842105263158],[-0.2680921052631579,-0.22532894736842105],[-0.2680921052631579,-0.22532894736842105],[-0.26644736842105265,-0.22587719298245615],[-0.26644736842105265,-0.22587719298245615]]]",2,"[50,59]",,,,,,,,,,,,,,apartmentBuilding2.jpg,space,15.41426,0,11,11,3,1,attic1.jpg,aquarium1.jpg,appleorchard2.jpg,alley3.jpg,,
Image_List_1,,,,,,,,,,,,,,,,43851,2020-11-06_18h53.45.153,analogCatScenes,2020.1.3,Win32,60,"[1368,912]","[[[-0.008223684210526315,-0.20339912280701755],[-0.008223684210526315,-0.20339912280701755],[-0.008223684210526315,-0.20339912280701755],[-0.008223684210526315,-0.20339912280701755],[-0.008223684210526315,-0.20339912280701755],[-0.008223684210526315,-0.20339912280701755],[-0.008223684210526315,-0.20339912280701755],[-0.008223684210526315,-0.20339912280701755],[-0.008223684210526315,-0.20339912280701755],[-0.008223684210526315,-0.20339912280701755],[-0.008223684210526315,-0.20339912280701755],[-0.008223684210526315,-0.20339912280701755],[-0.008223684210526315,-0.20339912280701755],[-0.008223684210526315,-0.20339912280701755],[-0.008223684210526315,-0.20339912280701755],[-0.008223684210526315,-0.20339912280701755],[-0.008223684210526315,-0.20339912280701755],[-0.007675438596491228,-0.20339912280701755],[-0.003289473684210526,-0.20175438596491227],[0,-0.20065789473684212],[0.0027412280701754384,-0.19846491228070176],[0.00932017543859649,-0.19407894736842105],[0.015350877192982455,-0.19078947368421054],[0.02138157894736842,-0.18859649122807018],[0.029605263157894735,-0.18421052631578946],[0.03453947368421053,-0.1825657894736842],[0.0400219298245614,-0.17763157894736842],[0.043859649122807015,-0.17543859649122806],[0.05098684210526316,-0.17105263157894737],[0.06633771929824561,-0.16392543859649122],[0.07456140350877193,-0.1611842105263158],[0.08552631578947369,-0.15570175438596492],[0.09539473684210527,-0.15186403508771928],[0.1162280701754386,-0.14199561403508773],[0.12719298245614036,-0.13706140350877194],[0.13760964912280702,-0.13157894736842105],[0.15679824561403508,-0.12225877192982457],[0.16831140350877194,-0.11677631578947369],[0.17817982456140352,-0.11293859649122807],[0.1962719298245614,-0.10471491228070176],[0.21162280701754385,-0.10032894736842106],[0.2275219298245614,-0.09375],[0.23519736842105263,-0.09046052631578948],[0.24890350877192982,-0.08223684210526316],[0.2604166666666667,-0.0762061403508772],[0.26918859649122806,-0.07236842105263158],[0.27631578947368424,-0.06907894736842106],[0.28015350877192985,-0.06743421052631579],[0.28234649122807015,-0.0668859649122807],[0.2850877192982456,-0.06578947368421052],[0.28728070175438597,-0.06469298245614036],[0.2894736842105263,-0.06414473684210527],[0.2916666666666667,-0.06359649122807018],[0.2944078947368421,-0.06359649122807018],[0.29605263157894735,-0.06195175438596491],[0.2982456140350877,-0.06140350877192982],[0.30098684210526316,-0.06140350877192982],[0.30153508771929827,-0.06140350877192982],[0.30153508771929827,-0.06140350877192982],[0.30153508771929827,-0.06140350877192982],[0.30153508771929827,-0.06140350877192982]]]",1,[61],,,,,,,,,,,,,,deck5.jpg,space,9.415635,0,12,12,35,1,dock3.jpg,cubicle7.jpg,dining_car6.jpg,carmechanic2.jpg,,
Image_List_1,,,,,,,,,,,,,,,,43851,2020-11-06_18h53.45.153,analogCatScenes,2020.1.3,Win32,60,"[1368,912]","[[[-0.0027412280701754384,-0.20010964912280702],[-0.0027412280701754384,-0.20010964912280702],[-0.0027412280701754384,-0.20010964912280702],[-0.0027412280701754384,-0.20010964912280702],[-0.0027412280701754384,-0.20010964912280702],[-0.0027412280701754384,-0.20010964912280702],[-0.0027412280701754384,-0.20010964912280702],[-0.0027412280701754384,-0.20010964912280702],[-0.0027412280701754384,-0.20010964912280702],[-0.0027412280701754384,-0.20010964912280702],[-0.0027412280701754384,-0.20010964912280702],[-0.008771929824561403,-0.20065789473684212],[-0.025219298245614034,-0.20175438596491227],[-0.03892543859649123,-0.2012061403508772],[-0.05701754385964912,-0.20010964912280702],[-0.06907894736842106,-0.20010964912280702],[-0.0849780701754386,-0.20010964912280702],[-0.11732456140350878,-0.20010964912280702],[-0.13596491228070176,-0.20010964912280702],[-0.15953947368421054,-0.20010964912280702],[-0.17324561403508773,-0.20010964912280702],[-0.18311403508771928,-0.19846491228070176],[-0.1875,-0.19791666666666666],[-0.1924342105263158,-0.19682017543859648],[-0.19791666666666666,-0.19407894736842105],[-0.20175438596491227,-0.1913377192982456],[-0.20833333333333334,-0.18640350877192982],[-0.21436403508771928,-0.18146929824561403],[-0.22149122807017543,-0.1737938596491228],[-0.22532894736842105,-0.16721491228070176],[-0.2275219298245614,-0.16392543859649122],[-0.23081140350877194,-0.15844298245614036],[-0.23355263157894737,-0.15405701754385964],[-0.23574561403508773,-0.14802631578947367],[-0.23739035087719298,-0.13541666666666666],[-0.23848684210526316,-0.12719298245614036],[-0.23848684210526316,-0.12116228070175439],[-0.23848684210526316,-0.11896929824561403],[-0.23848684210526316,-0.11842105263157894],[-0.23848684210526316,-0.11787280701754387],[-0.23848684210526316,-0.11787280701754387],[-0.23848684210526316,-0.11787280701754387],[-0.23848684210526316,-0.11787280701754387],[-0.23848684210526316,-0.11787280701754387],[-0.23848684210526316,-0.11787280701754387],[-0.23848684210526316,-0.11787280701754387],[-0.23848684210526316,-0.11787280701754387]],[[-0.003837719298245614,-0.20339912280701755],[-0.003837719298245614,-0.20339912280701755],[-0.003837719298245614,-0.20339912280701755],[-0.003837719298245614,-0.20339912280701755],[-0.003837719298245614,-0.20339912280701755],[-0.003837719298245614,-0.20339912280701755],[-0.003837719298245614,-0.20339912280701755],[-0.003837719298245614,-0.20339912280701755],[-0.003837719298245614,-0.20339912280701755],[-0.003837719298245614,-0.20339912280701755],[0.014802631578947368,-0.20230263157894737],[0.05482456140350877,-0.1924342105263158],[0.07291666666666667,-0.18804824561403508],[0.09703947368421052,-0.18037280701754385],[0.12445175438596491,-0.17160087719298245],[0.13706140350877194,-0.16831140350877194],[0.15296052631578946,-0.16337719298245615],[0.1600877192982456,-0.1611842105263158],[0.16721491228070176,-0.15953947368421054],[0.18311403508771928,-0.15350877192982457],[0.2012061403508772,-0.14912280701754385],[0.22587719298245615,-0.1425438596491228],[0.24561403508771928,-0.13432017543859648],[0.2642543859649123,-0.125],[0.2883771929824561,-0.11403508771929824],[0.3053728070175439,-0.1069078947368421],[0.32127192982456143,-0.10087719298245613],[0.3262061403508772,-0.09758771929824561],[0.3333333333333333,-0.09429824561403509],[0.3442982456140351,-0.08881578947368421],[0.3481359649122807,-0.08552631578947369]]]",2,"[47,31]",,,,,,,,,,,,,,cubicle4.jpg,space,5.84891,0,13,13,31,1,desertvegetation6.jpg,conference4.jpg,courtroom2.jpg,cabin3.jpg,,
Image_List_1,,,,,,,,,,,,,,,,43851,2020-11-06_18h53.45.153,analogCatScenes,2020.1.3,Win32,60,"[1368,912]","[[[-0.006578947368421052,-0.1962719298245614],[-0.006578947368421052,-0.1962719298245614],[-0.006578947368421052,-0.1962719298245614],[-0.006578947368421052,-0.1962719298245614],[-0.006578947368421052,-0.1962719298245614],[-0.006578947368421052,-0.1962719298245614],[-0.006578947368421052,-0.1962719298245614],[-0.006578947368421052,-0.1962719298245614],[-0.006578947368421052,-0.1962719298245614],[-0.006578947368421052,-0.1962719298245614],[-0.006578947368421052,-0.1962719298245614],[-0.006578947368421052,-0.1962719298245614],[-0.006578947368421052,-0.1962719298245614],[-0.006578947368421052,-0.19517543859649122],[-0.006578947368421052,-0.1875],[-0.006578947368421052,-0.1737938596491228],[-0.006578947368421052,-0.16063596491228072],[-0.006578947368421052,-0.13103070175438597],[-0.008223684210526315,-0.12006578947368421],[-0.009868421052631578,-0.11458333333333333],[-0.011513157894736841,-0.10307017543859649],[-0.01206140350877193,-0.0981359649122807],[-0.01206140350877193,-0.09484649122807018],[-0.01206140350877193,-0.09100877192982457],[-0.01206140350877193,-0.09046052631578948],[-0.01206140350877193,-0.08991228070175439],[-0.01206140350877193,-0.08991228070175439],[-0.01206140350877193,-0.08991228070175439],[-0.01206140350877193,-0.08991228070175439],[-0.01206140350877193,-0.09046052631578948],[-0.01206140350877193,-0.09046052631578948],[-0.01206140350877193,-0.09155701754385964],[-0.01206140350877193,-0.09155701754385964]]]",1,[33],,,,,,,,,,,,,,frontDoor.jpg,space,2.604165,0,14,14,47,1,gasstation8.jpg,firestation4.jpg,fountain7.jpg,elevatorOutside2.jpg,,
Image_List_1,,,,,,,,,,,,,,,,43851,2020-11-06_18h53.45.153,analogCatScenes,2020.1.3,Win32,60,"[1368,912]","[[[0,-0.20723684210526316],[0,-0.20723684210526316],[0,-0.20723684210526316],[0,-0.20723684210526316],[0,-0.20723684210526316],[0,-0.20723684210526316],[0,-0.20723684210526316],[0,-0.20723684210526316],[0,-0.20723684210526316],[0,-0.20723684210526316],[0,-0.20723684210526316],[0,-0.19407894736842105],[0,-0.1836622807017544],[0,-0.17324561403508773],[0,-0.15953947368421054],[0,-0.15076754385964913],[0,-0.12828947368421054],[0,-0.10800438596491228],[0.0021929824561403508,-0.08607456140350878],[0.0043859649122807015,-0.05921052631578947],[0.0043859649122807015,-0.05263157894736842],[0.0043859649122807015,-0.041666666666666664],[0.0043859649122807015,-0.03289473684210526],[0.005482456140350877,-0.023574561403508772],[0.006578947368421052,-0.010964912280701754],[0.006578947368421052,-0.003289473684210526],[0.006578947368421052,0.007675438596491228],[0.006578947368421052,0.01425438596491228],[0.006578947368421052,0.019736842105263157],[0.006578947368421052,0.02412280701754386],[0.006578947368421052,0.02631578947368421],[0.006578947368421052,0.030153508771929825],[0.006578947368421052,0.03234649122807018],[0.006578947368421052,0.03508771929824561],[0.006578947368421052,0.03782894736842105],[0.006578947368421052,0.039473684210526314],[0.006578947368421052,0.042214912280701754],[0.006578947368421052,0.044407894736842105]]]",1,[38],,,,,,,,,,,,,,deck1.jpg,space,4.48582,0,15,15,33,1,diningroom1.jpg,courthouse2.jpg,diner10.jpg,cabinIndoors5.jpg,,
Image_List_1,,,,,,,,,,,,,,,,43851,2020-11-06_18h53.45.153,analogCatScenes,2020.1.3,Win32,60,"[1368,912]","[[[0.001644736842105263,-0.21052631578947367],[0.001644736842105263,-0.21052631578947367],[0.001644736842105263,-0.21052631578947367],[0.001644736842105263,-0.21052631578947367],[0.001644736842105263,-0.21052631578947367],[0.001644736842105263,-0.21052631578947367],[0.001644736842105263,-0.21052631578947367],[0.001644736842105263,-0.21052631578947367],[0.001644736842105263,-0.21052631578947367],[0.001644736842105263,-0.21052631578947367],[0.001644736842105263,-0.20175438596491227],[0.0005482456140350877,-0.17708333333333334],[-0.0005482456140350877,-0.14912280701754385],[-0.0010964912280701754,-0.13980263157894737],[-0.0021929824561403508,-0.13486842105263158],[-0.0021929824561403508,-0.12719298245614036],[-0.0027412280701754384,-0.11896929824561403],[-0.004934210526315789,-0.0981359649122807],[-0.006030701754385965,-0.08607456140350878],[-0.006578947368421052,-0.07949561403508772],[-0.007675438596491228,-0.06798245614035088],[-0.008223684210526315,-0.0625],[-0.00932017543859649,-0.05756578947368421],[-0.00932017543859649,-0.05592105263157895],[-0.00932017543859649,-0.05592105263157895],[-0.00932017543859649,-0.05592105263157895],[-0.00932017543859649,-0.05592105263157895],[-0.00932017543859649,-0.05592105263157895],[-0.00932017543859649,-0.05592105263157895],[-0.00932017543859649,-0.05592105263157895],[-0.00932017543859649,-0.05756578947368421],[-0.00932017543859649,-0.0581140350877193]]]",1,[32],,,,,,,,,,,,,,frontDoor2.jpg,space,2.862855,0,16,16,48,1,golfcourse6.jpg,fittingroom5.jpg,golfcourse7.jpg,fabricstore2.jpg,,
Image_List_1,,,,,,,,,,,,,,,,43851,2020-11-06_18h53.45.153,analogCatScenes,2020.1.3,Win32,60,"[1368,912]","[[[-0.006030701754385965,-0.20394736842105263],[-0.006030701754385965,-0.20394736842105263],[-0.006030701754385965,-0.20394736842105263],[-0.006030701754385965,-0.20394736842105263],[-0.006030701754385965,-0.20394736842105263],[-0.006030701754385965,-0.20394736842105263],[-0.006030701754385965,-0.20394736842105263],[-0.006030701754385965,-0.20394736842105263],[-0.006030701754385965,-0.20394736842105263],[-0.006030701754385965,-0.20394736842105263],[-0.006030701754385965,-0.20394736842105263],[-0.006030701754385965,-0.20394736842105263],[-0.006030701754385965,-0.20394736842105263],[-0.0021929824561403508,-0.20285087719298245],[0.003837719298245614,-0.20065789473684212],[0.008771929824561403,-0.19736842105263158],[0.01425438596491228,-0.1924342105263158],[0.017543859649122806,-0.19024122807017543],[0.020285087719298246,-0.1875],[0.023026315789473683,-0.18475877192982457],[0.02631578947368421,-0.1825657894736842],[0.03070175438596491,-0.17982456140350878],[0.0356359649122807,-0.17817982456140352],[0.043859649122807015,-0.17269736842105263],[0.048793859649122806,-0.17105263157894737],[0.05263157894736842,-0.16831140350877194],[0.06030701754385965,-0.16337719298245615],[0.06633771929824561,-0.15953947368421054],[0.07346491228070176,-0.15679824561403508],[0.0762061403508772,-0.15570175438596492],[0.08114035087719298,-0.15405701754385964],[0.08771929824561403,-0.15021929824561403],[0.09265350877192982,-0.1474780701754386],[0.10197368421052631,-0.1425438596491228],[0.11074561403508772,-0.1387061403508772],[0.12171052631578948,-0.13486842105263158],[0.1337719298245614,-0.1299342105263158],[0.14528508771929824,-0.125],[0.17050438596491227,-0.11239035087719298],[0.18201754385964913,-0.10581140350877193],[0.19353070175438597,-0.10087719298245613],[0.21271929824561403,-0.09210526315789473],[0.22423245614035087,-0.08717105263157894],[0.23355263157894737,-0.08278508771929824],[0.23848684210526316,-0.08114035087719298],[0.24671052631578946,-0.07785087719298246],[0.25274122807017546,-0.07456140350877193],[0.2565789473684211,-0.07182017543859649],[0.26096491228070173,-0.07072368421052631],[0.26206140350877194,-0.07017543859649122],[0.2631578947368421,-0.07017543859649122],[0.2642543859649123,-0.06907894736842106],[0.26480263157894735,-0.06853070175438597],[0.26589912280701755,-0.06743421052631579],[0.26589912280701755,-0.06743421052631579]],[[0,-0.20285087719298245],[0,-0.20285087719298245],[0,-0.20285087719298245],[0,-0.20285087719298245],[0,-0.20285087719298245],[0,-0.20285087719298245],[0,-0.20285087719298245],[0,-0.20285087719298245],[0,-0.20285087719298245],[0,-0.20285087719298245],[0,-0.20285087719298245],[0,-0.20285087719298245],[0,-0.20285087719298245],[0,-0.20285087719298245],[0,-0.20285087719298245],[0,-0.20285087719298245],[-0.0021929824561403508,-0.20175438596491227],[-0.01425438596491228,-0.1962719298245614],[-0.023026315789473683,-0.1924342105263158],[-0.03508771929824561,-0.18585526315789475],[-0.043859649122807015,-0.18201754385964913],[-0.05756578947368421,-0.17598684210526316],[-0.0668859649122807,-0.17324561403508773],[-0.07730263157894737,-0.16940789473684212],[-0.09320175438596491,-0.16228070175438597],[-0.1074561403508772,-0.15789473684210525],[-0.13706140350877194,-0.14967105263157895],[-0.14364035087719298,-0.1474780701754386],[-0.15625,-0.14199561403508773],[-0.16611842105263158,-0.13925438596491227],[-0.17708333333333334,-0.1337719298245614],[-0.18421052631578946,-0.13103070175438597],[-0.19298245614035087,-0.12774122807017543],[-0.19901315789473684,-0.125],[-0.20723684210526316,-0.12171052631578948],[-0.21326754385964913,-0.12006578947368421],[-0.21929824561403508,-0.11677631578947369],[-0.22861842105263158,-0.1118421052631579],[-0.23519736842105263,-0.11019736842105263],[-0.24013157894736842,-0.10855263157894737],[-0.24561403508771928,-0.1069078947368421],[-0.24780701754385964,-0.10635964912280702],[-0.24890350877192982,-0.10635964912280702],[-0.24945175438596492,-0.10635964912280702],[-0.2505482456140351,-0.10526315789473684],[-0.25219298245614036,-0.10471491228070176],[-0.25274122807017546,-0.10416666666666667],[-0.2538377192982456,-0.1025219298245614],[-0.2543859649122807,-0.10197368421052631],[-0.2571271929824561,-0.09923245614035088],[-0.25877192982456143,-0.09703947368421052],[-0.2604166666666667,-0.09484649122807018],[-0.2637061403508772,-0.09210526315789473],[-0.26480263157894735,-0.09155701754385964],[-0.26644736842105265,-0.09100877192982457],[-0.26864035087719296,-0.0893640350877193],[-0.26973684210526316,-0.08881578947368421],[-0.2719298245614035,-0.08826754385964912],[-0.27247807017543857,-0.08826754385964912],[-0.27247807017543857,-0.08826754385964912],[-0.2713815789473684,-0.08881578947368421],[-0.2708333333333333,-0.0893640350877193]]]",2,"[55,62]",,,,,,,,,,,,,,gasstation7.jpg,space,11.600715,0,17,17,52,1,hardwarestore1.jpg,frontFoyer6.jpg,highway.jpg,forestpath2.jpg,,
Image_List_1,,,,,,,,,,,,,,,,43851,2020-11-06_18h53.45.153,analogCatScenes,2020.1.3,Win32,60,"[1368,912]","[[[-0.004934210526315789,-0.1924342105263158],[-0.004934210526315789,-0.1924342105263158],[-0.004934210526315789,-0.1924342105263158],[-0.004934210526315789,-0.1924342105263158],[-0.004934210526315789,-0.1924342105263158],[-0.004934210526315789,-0.1924342105263158],[-0.004934210526315789,-0.1924342105263158],[-0.004934210526315789,-0.1924342105263158],[-0.004934210526315789,-0.1924342105263158],[-0.004934210526315789,-0.1924342105263158],[-0.004934210526315789,-0.1924342105263158],[-0.004934210526315789,-0.1924342105263158],[-0.004934210526315789,-0.1924342105263158],[-0.004934210526315789,-0.1924342105263158],[-0.006030701754385965,-0.19188596491228072],[-0.01699561403508772,-0.18640350877192982],[-0.025767543859649123,-0.1825657894736842],[-0.03289473684210526,-0.17927631578947367],[-0.044407894736842105,-0.17050438596491227],[-0.05043859649122807,-0.16611842105263158],[-0.05921052631578947,-0.1611842105263158],[-0.06304824561403509,-0.15953947368421054],[-0.06578947368421052,-0.15789473684210525],[-0.07236842105263158,-0.15460526315789475],[-0.07730263157894737,-0.15296052631578946],[-0.08771929824561403,-0.14857456140350878],[-0.09649122807017543,-0.14583333333333334],[-0.10416666666666667,-0.14418859649122806],[-0.11513157894736842,-0.1387061403508772],[-0.12280701754385964,-0.1337719298245614],[-0.1299342105263158,-0.12938596491228072],[-0.13980263157894737,-0.12390350877192982],[-0.14583333333333334,-0.12171052631578948],[-0.15186403508771928,-0.11842105263157894],[-0.15679824561403508,-0.11567982456140351],[-0.16447368421052633,-0.11239035087719298],[-0.1699561403508772,-0.11074561403508772],[-0.17489035087719298,-0.10910087719298246],[-0.18311403508771928,-0.10581140350877193],[-0.18804824561403508,-0.10416666666666667],[-0.1962719298245614,-0.10197368421052631],[-0.2012061403508772,-0.10032894736842106],[-0.2050438596491228,-0.0981359649122807],[-0.21107456140350878,-0.09649122807017543],[-0.2149122807017544,-0.09484649122807018],[-0.22149122807017543,-0.08991228070175439],[-0.22642543859649122,-0.08662280701754387],[-0.22971491228070176,-0.08333333333333333],[-0.23300438596491227,-0.07456140350877193],[-0.23464912280701755,-0.0712719298245614],[-0.23793859649122806,-0.06414473684210527],[-0.23958333333333334,-0.05921052631578947],[-0.2412280701754386,-0.054276315789473686],[-0.24451754385964913,-0.046052631578947366],[-0.24671052631578946,-0.042214912280701754],[-0.24835526315789475,-0.03618421052631579],[-0.24890350877192982,-0.03344298245614035],[-0.2505482456140351,-0.029605263157894735],[-0.25219298245614036,-0.023026315789473683],[-0.2538377192982456,-0.01918859649122807],[-0.25548245614035087,-0.015350877192982455],[-0.25548245614035087,-0.013157894736842105],[-0.25548245614035087,-0.00932017543859649],[-0.2543859649122807,-0.006578947368421052],[-0.2538377192982456,-0.004934210526315789]],[[0,-0.20175438596491227],[0,-0.20175438596491227],[0,-0.20175438596491227],[0,-0.20175438596491227],[0,-0.20175438596491227],[0,-0.20175438596491227],[0,-0.20175438596491227],[0,-0.20175438596491227],[0,-0.20175438596491227],[0,-0.20175438596491227],[0,-0.20175438596491227],[0.0043859649122807015,-0.20175438596491227],[0.021929824561403508,-0.2050438596491228],[0.03125,-0.20723684210526316],[0.03673245614035088,-0.20888157894736842],[0.044956140350877194,-0.21107456140350878],[0.052083333333333336,-0.21271929824561403],[0.06085526315789474,-0.21546052631578946],[0.0668859649122807,-0.21710526315789475],[0.07182017543859649,-0.21875],[0.07785087719298246,-0.22039473684210525],[0.08114035087719298,-0.22203947368421054],[0.08717105263157894,-0.2225877192982456],[0.09155701754385964,-0.2236842105263158],[0.09868421052631579,-0.22423245614035087],[0.10526315789473684,-0.22532894736842105],[0.10964912280701754,-0.22642543859649122],[0.11293859649122807,-0.22807017543859648],[0.11513157894736842,-0.22807017543859648],[0.11787280701754387,-0.22807017543859648],[0.12390350877192982,-0.22807017543859648],[0.12774122807017543,-0.22861842105263158],[0.1337719298245614,-0.22971491228070176],[0.13760964912280702,-0.22971491228070176],[0.14144736842105263,-0.22971491228070176],[0.1474780701754386,-0.22971491228070176],[0.15186403508771928,-0.22971491228070176],[0.15789473684210525,-0.22971491228070176],[0.16282894736842105,-0.22971491228070176],[0.16666666666666666,-0.22971491228070176],[0.17269736842105263,-0.22971491228070176],[0.17653508771929824,-0.22971491228070176],[0.18037280701754385,-0.22971491228070176],[0.18530701754385964,-0.22916666666666666],[0.19188596491228072,-0.22861842105263158],[0.20230263157894737,-0.22587719298245615],[0.20723684210526316,-0.22532894736842105],[0.21326754385964913,-0.2225877192982456],[0.21820175438596492,-0.22039473684210525],[0.22423245614035087,-0.21875],[0.22807017543859648,-0.21710526315789475],[0.23026315789473684,-0.21600877192982457],[0.23574561403508773,-0.21326754385964913],[0.24287280701754385,-0.20888157894736842],[0.24890350877192982,-0.20668859649122806],[0.25548245614035087,-0.20339912280701755],[0.2582236842105263,-0.20230263157894737],[0.26480263157894735,-0.19846491228070176],[0.26973684210526316,-0.19572368421052633],[0.27247807017543857,-0.19462719298245615],[0.27631578947368424,-0.19298245614035087],[0.2774122807017544,-0.19188596491228072],[0.28015350877192985,-0.18859649122807018],[0.28234649122807015,-0.1875],[0.2850877192982456,-0.18475877192982457],[0.2850877192982456,-0.18475877192982457],[0.2850877192982456,-0.18475877192982457],[0.2856359649122807,-0.18475877192982457],[0.2856359649122807,-0.18475877192982457],[0.2856359649122807,-0.18475877192982457],[0.2856359649122807,-0.18475877192982457],[0.2856359649122807,-0.18475877192982457],[0.2856359649122807,-0.18475877192982457],[0.2856359649122807,-0.18475877192982457]]]",2,"[65,74]",,,,,,,,,,,,,,homegarden7.jpg,space,8.54017,0,18,18,59,1,library_aisle8.jpg,highway4.jpg,kindergarten_classroom5.jpg,grocerystore3.jpg,,
