image_list,key_resp_intructions.keys,key_resp_intructions.rt,key_resp_intructions_3.keys,key_resp_intructions_3.rt,PracticeComplete_2.keys,PracticeComplete_2.rt,PracticeComplete_3.keys,PracticeComplete_3.rt,demo_trials.thisRepN,demo_trials.thisTrialN,demo_trials.thisN,demo_trials.thisIndex,demo_trials.ran,demo_images,path_images,participant,date,expName,psychopyVersion,OS,frameRate,windowSize,practice_complete.keys,practice_complete.rt,boxes_checked,PracticeComplete.keys,PracticeComplete.rt,practice_trials.thisRepN,practice_trials.thisTrialN,practice_trials.thisN,practice_trials.thisIndex,practice_trials.ran,practice_images,feedback_images,key_resp_intructions_2.keys,key_resp_intructions_2.rt,Image_List_5,trial_complete.keys,trial_complete.rt,trial_mouse.x,trial_mouse.y,trial_mouse.leftButton,trial_mouse.midButton,trial_mouse.rightButton,trial_mouse.time,trial_mouse.clicked_name,trials.thisRepN,trials.thisTrialN,trials.thisN,trials.thisIndex,trials.ran,Image_List_1,Image_List_2,Image_List_3,Image_List_4,key_resp.keys,key_resp.rt
Image_List_5,space,9.87986,space,2.86521,space,12.52254,space,2.244855,0,0,0,5,1,right.jpg,right_path.jpg,43899,2020-11-12_13h29.54.903,lingCatScenes,2020.1.3,MacIntel,60,,,,,,,,,,,,,,,,,,,,,,,,,,,,,,,,,,,,
Image_List_5,,,,,space,3.25574,space,1.45792,0,1,1,2,1,ahead_right.jpg,ahead_right_path.jpg,43899,2020-11-12_13h29.54.903,lingCatScenes,2020.1.3,MacIntel,60,,,,,,,,,,,,,,,,,,,,,,,,,,,,,,,,,,,,
Image_List_5,,,,,space,2.107795,space,1.078825,0,2,2,0,1,ahead.jpg,ahead_path.jpg,43899,2020-11-12_13h29.54.903,lingCatScenes,2020.1.3,MacIntel,60,,,,,,,,,,,,,,,,,,,,,,,,,,,,,,,,,,,,
Image_List_5,,,,,space,2.34437,space,2.12787,0,3,3,3,1,ahead_right_left.jpg,ahead_right_left_path.jpg,43899,2020-11-12_13h29.54.903,lingCatScenes,2020.1.3,MacIntel,60,,,,,,,,,,,,,,,,,,,,,,,,,,,,,,,,,,,,
Image_List_5,,,,,space,1.235005,space,1.270465,0,4,4,1,1,ahead_left.jpg,ahead_left_path.jpg,43899,2020-11-12_13h29.54.903,lingCatScenes,2020.1.3,MacIntel,60,,,,,,,,,,,,,,,,,,,,,,,,,,,,,,,,,,,,
Image_List_5,,,,,space,1.75981,space,1.275515,0,5,5,4,1,left.jpg,left_path.jpg,43899,2020-11-12_13h29.54.903,lingCatScenes,2020.1.3,MacIntel,60,,,,,,,,,,,,,,,,,,,,,,,,,,,,,,,,,,,,
Image_List_5,,,,,space,1.681095,space,1.002085,0,6,6,6,1,right_left.jpg,right_left_path.jpg,43899,2020-11-12_13h29.54.903,lingCatScenes,2020.1.3,MacIntel,60,,,,,,,,,,,,,,,,,,,,,,,,,,,,,,,,,,,,
Image_List_5,,,,,,,,,,,,,,,,43899,2020-11-12_13h29.54.903,lingCatScenes,2020.1.3,MacIntel,60,"[1440,900]",space,3.097705,[],space,1.122035,0,0,0,5,1,right_2.jpg,right_2_path.jpg,,,,,,,,,,,,,,,,,,,,,,,
Image_List_5,,,,,,,,,,,,,,,,43899,2020-11-12_13h29.54.903,lingCatScenes,2020.1.3,MacIntel,60,"[1440,900]",space,1.746975,[],space,1.481175,0,1,1,3,1,ahead_right_left_2.jpg,ahead_right_left_2_path.jpg,,,,,,,,,,,,,,,,,,,,,,,
Image_List_5,,,,,,,,,,,,,,,,43899,2020-11-12_13h29.54.903,lingCatScenes,2020.1.3,MacIntel,60,"[1440,900]",space,8.314185,"[""ahead_box""]",space,1.031185,0,2,2,1,1,ahead_left_2.jpg,ahead_left_2_path.jpg,,,,,,,,,,,,,,,,,,,,,,,
Image_List_5,,,,,,,,,,,,,,,,43899,2020-11-12_13h29.54.903,lingCatScenes,2020.1.3,MacIntel,60,"[1440,900]",space,3.5336,"[""left_box""]",space,1.943365,0,3,3,4,1,left_2.jpg,left_2_path.jpg,,,,,,,,,,,,,,,,,,,,,,,
Image_List_5,,,,,,,,,,,,,,,,43899,2020-11-12_13h29.54.903,lingCatScenes,2020.1.3,MacIntel,60,"[1440,900]",space,1.69033,"[""ahead_box""]",space,0.76313,0,4,4,0,1,ahead_2.jpg,ahead_2_path.jpg,,,,,,,,,,,,,,,,,,,,,,,
Image_List_5,,,,,,,,,,,,,,,,43899,2020-11-12_13h29.54.903,lingCatScenes,2020.1.3,MacIntel,60,"[1440,900]",space,3.06118,"[""ahead_box"",""sharp_right_box""]",space,0.99759,0,5,5,2,1,ahead_right_2.jpg,ahead_right_2_path.jpg,,,,,,,,,,,,,,,,,,,,,,,
Image_List_5,,,,,,,,,,,,,,,,43899,2020-11-12_13h29.54.903,lingCatScenes,2020.1.3,MacIntel,60,"[1440,900]",space,7.549465,"[""slight_right_box"",""slight_left_box""]",space,0.787865,0,6,6,6,1,right_left_2.jpg,right_left_2_path.jpg,,,,,,,,,,,,,,,,,,,,,,,
Image_List_5,,,,,,,,,,,,,,,,43899,2020-11-12_13h29.54.903,lingCatScenes,2020.1.3,MacIntel,60,"[1440,900]",,,"[""trial_slight_right_box""]",,,,,,,,,,space,3.696805,highway2.jpg,space,4.281335,[0.18318142361111112],[-0.2913845486111111],[1],[0],[0],[3.6395550000015646],"[""trial_slight_right_box""]",0,0,0,63,1,hut2.jpg,museum6.jpg,hotelRoom2.jpg,lab4.jpg,,
Image_List_5,,,,,,,,,,,,,,,,43899,2020-11-12_13h29.54.903,lingCatScenes,2020.1.3,MacIntel,60,"[1440,900]",,,"[""trial_ahead_box""]",,,,,,,,,,,,arcade2.jpg,space,2.830995,[-0.01900607638888889],[-0.3187934027777778],[1],[0],[0],[2.511530000017956],"[""trial_ahead_box""]",0,1,1,9,1,auto_showroom3.jpg,bar2.jpg,ballroom2.jpg,basement5.jpg,,
Image_List_5,,,,,,,,,,,,,,,,43899,2020-11-12_13h29.54.903,lingCatScenes,2020.1.3,MacIntel,60,"[1440,900]",,,"[""trial_sharp_right_box"",""trial_sharp_left_box""]",,,,,,,,,,,,baseball6.jpg,space,5.926905,"[0.6196050347222222,-0.38101996527777776,-0.5790277777777778,-0.4069140625]","[-0.276796875,-0.3024609375,-0.3073784722222222,-0.2986024305555556]","[1,1,1,1]","[0,0,0,0]","[0,0,0,0]","[2.43018500006292,4.129504999960773,4.880959999980405,5.66304500005208]","[""trial_sharp_right_box"",""trial_left_box"",""trial_sharp_left_box"",""trial_left_box""]",0,2,2,17,1,bikerack1.jpg,campsite6.jpg,breakroom4.jpg,carmechanic.jpg,,
Image_List_5,,,,,,,,,,,,,,,,43899,2020-11-12_13h29.54.903,lingCatScenes,2020.1.3,MacIntel,60,"[1440,900]",,,"[""trial_ahead_box""]",,,,,,,,,,,,dentist2.jpg,space,3.11373,[0.012625868055555555],[-0.2888671875],[1],[0],[0],[2.097230000072159],"[""trial_ahead_box""]",0,3,3,41,1,dugout4.jpg,farm3.jpg,drymountains3.jpg,fabricstore1.jpg,,
Image_List_5,,,,,,,,,,,,,,,,43899,2020-11-12_13h29.54.903,lingCatScenes,2020.1.3,MacIntel,60,"[1440,900]",,,"[""trial_ahead_box""]",,,,,,,,,,,,applestore4.jpg,space,2.49807,[0.005603298611111111],[-0.31864583333333335],[1],[0],[0],[2.1473550000227988],"[""trial_ahead_box""]",0,4,4,8,1,attic3.jpg,banquetHall6.jpg,balconyIN.jpg,bar.jpg,,
Image_List_5,,,,,,,,,,,,,,,,43899,2020-11-12_13h29.54.903,lingCatScenes,2020.1.3,MacIntel,60,"[1440,900]",,,"[""trial_ahead_box""]",,,,,,,,,,,,hayfield6.jpg,space,1.84409,[0.005603298611111111],[-0.31864583333333335],[1],[0],[0],[0.9783700000261888],"[""trial_ahead_box""]",0,5,5,61,1,HorseRaceTrack.jpg,metroInside4.jpg,homegarden6.jpg,kindergarten_classroom7.jpg,,
Image_List_5,,,,,,,,,,,,,,,,43899,2020-11-12_13h29.54.903,lingCatScenes,2020.1.3,MacIntel,60,"[1440,900]",,,"[""trial_ahead_box""]",,,,,,,,,,,,gasstation2.jpg,space,2.66351,[-0.0030512152777777777],[-0.31090711805555554],[1],[0],[0],[2.311615000013262],"[""trial_ahead_box""]",0,6,6,56,1,grocerystore5.jpg,hut3.jpg,golfcourse10.jpg,hut1.jpg,,
Image_List_5,,,,,,,,,,,,,,,,43899,2020-11-12_13h29.54.903,lingCatScenes,2020.1.3,MacIntel,60,"[1440,900]",,,"[""trial_ahead_box"",""trial_slight_right_box""]",,,,,,,,,,,,barbershop2.jpg,space,3.450665,"[0.010026041666666667,0.2107421875]","[-0.3134635416666667,-0.30987413194444446]","[1,1]","[0,0]","[0,0]","[2.5962199999485165,3.196089999983087]","[""trial_ahead_box"",""trial_slight_right_box""]",0,7,7,16,1,basement.jpg,cafeteria6.jpg,breakroom2.jpg,campusquad4.jpg,,
Image_List_5,,,,,,,,,,,,,,,,43899,2020-11-12_13h29.54.903,lingCatScenes,2020.1.3,MacIntel,60,"[1440,900]",,,"[""trial_ahead_box""]",,,,,,,,,,,,firestation5.jpg,space,1.9164,"[0.05004340277777778,0.006705729166666666]","[-0.3194444444444444,-0.31702256944444446]","[1,1]","[0,0]","[0,0]","[1.0977050000801682,1.646420000004582]","[""trial_ahead_box""]",0,8,8,51,1,gasstation6.jpg,hallway5.jpg,frontDoor5.jpg,hayfield4.jpg,,
Image_List_5,,,,,,,,,,,,,,,,43899,2020-11-12_13h29.54.903,lingCatScenes,2020.1.3,MacIntel,60,"[1440,900]",,,"[""trial_ahead_box""]",,,,,,,,,,,,classroom1.jpg,space,2.445635,[0.0004427083333333333],[-0.3019878472222222],[1],[0],[0],[1.4949599999235943],"[""trial_ahead_box""]",0,9,9,38,1,dining_car2.jpg,elevatorOutside4.jpg,dock1.jpg,driveway8.jpg,,
Image_List_5,,,,,,,,,,,,,,,,43899,2020-11-12_13h29.54.903,lingCatScenes,2020.1.3,MacIntel,60,"[1440,900]",,,"[""trial_ahead_box"",""trial_slight_left_box"",""trial_slight_right_box""]",,,,,,,,,,,,shoestore4.jpg,space,3.698325,"[0.0004427083333333333,-0.21828993055555557,0.18395833333333333]","[-0.3019878472222222,-0.32394097222222223,-0.30623697916666665]","[1,1,1]","[0,0,0]","[0,0,0]","[1.0961600000737235,2.56222500000149,3.362485000048764]","[""trial_ahead_box"",""trial_slight_left_box"",""trial_slight_right_box""]",0,10,10,90,1,savanna5.jpg,trainStation1.jpg,sidewalk1.jpg,stripmall3.jpg,,
Image_List_5,,,,,,,,,,,,,,,,43899,2020-11-12_13h29.54.903,lingCatScenes,2020.1.3,MacIntel,60,"[1440,900]",,,"[""trial_ahead_box"",""trial_slight_right_box"",""trial_slight_left_box""]",,,,,,,,,,,,mallindoor6.jpg,space,5.295865,"[0.03895833333333333,0.018910590277777778,0.1761154513888889,-0.17825086805555557]","[-0.2918836805555556,-0.30040364583333334,-0.3117621527777778,-0.3042708333333333]","[1,1,1,1]","[0,0,0,0]","[0,0,0,0]","[1.8312300000106916,2.331899999990128,2.8157199999550357,4.947989999898709]","[""trial_ahead_box"",""trial_slight_right_box"",""trial_slight_left_box""]",0,11,11,77,1,parkinggarage2.jpg,playroom6.jpg,pasture9.jpg,park8.jpg,,
Image_List_5,,,,,,,,,,,,,,,,43899,2020-11-12_13h29.54.903,lingCatScenes,2020.1.3,MacIntel,60,"[1440,900]",,,"[""trial_ahead_box""]",,,,,,,,,,,,dormroom6.jpg,space,1.880815,[-0.0149609375],[-0.30904947916666664],[1],[0],[0],[1.5300200000638142],"[""trial_ahead_box""]",0,12,12,46,1,flowershop.jpg,frontLawn5.jpg,farmersmarket4.jpg,fountain4.jpg,,
Image_List_5,,,,,,,,,,,,,,,,43899,2020-11-12_13h29.54.903,lingCatScenes,2020.1.3,MacIntel,60,"[1440,900]",,,"[""trial_ahead_box""]",,,,,,,,,,,,rooftop4.jpg,space,1.83146,[-0.0149609375],[-0.30799913194444445],[1],[0],[0],[1.3124349999707192],"[""trial_ahead_box""]",0,13,13,86,1,restaurant14.jpg,stripmall.jpg,ruralroad3.jpg,sandDunes_desert_outdoor8.jpg,,
Image_List_5,,,,,,,,,,,,,,,,43899,2020-11-12_13h29.54.903,lingCatScenes,2020.1.3,MacIntel,60,"[1440,900]",,,"[""trial_ahead_box""]",,,,,,,,,,,,carmechanic2.jpg,space,1.529965,[-0.0149609375],[-0.30799913194444445],[1],[0],[0],[1.262624999973923],"[""trial_ahead_box""]",0,14,14,35,1,deck5.jpg,dock3.jpg,cubicle7.jpg,dining_car6.jpg,,
Image_List_5,,,,,,,,,,,,,,,,43899,2020-11-12_13h29.54.903,lingCatScenes,2020.1.3,MacIntel,60,"[1440,900]",,,"[""trial_ahead_box""]",,,,,,,,,,,,igloo.jpg,space,3.582365,[-0.0149609375],[-0.30828993055555554],[1],[0],[0],[2.92910499998834],"[""trial_ahead_box""]",0,15,15,70,1,lockerroom4.jpg,pavilion.jpg,lockerroom3.jpg,minigolf8.jpg,,
Image_List_5,,,,,,,,,,,,,,,,43899,2020-11-12_13h29.54.903,lingCatScenes,2020.1.3,MacIntel,60,"[1440,900]",,,"[""trial_ahead_box""]",,,,,,,,,,,,sandbox.jpg,space,1.911945,[-0.0149609375],[-0.30828993055555554],[1],[0],[0],[1.2953599999891594],"[""trial_ahead_box""]",0,16,16,88,1,rooftop1.jpg,track.jpg,sculpturegarden4.jpg,soccerfield.jpg,,
Image_List_5,,,,,,,,,,,,,,,,43899,2020-11-12_13h29.54.903,lingCatScenes,2020.1.3,MacIntel,60,"[1440,900]",,,"[""trial_ahead_box"",""trial_right_box"",""trial_left_box""]",,,,,,,,,,,,campusquad1.jpg,space,5.24644,"[-0.01857638888888889,0.40161024305555554,-0.40296875]","[-0.2958940972222222,-0.30520399305555557,-0.3246310763888889]","[1,1,1]","[0,0,0]","[0,0,0]","[1.1465549999848008,3.727874999982305,4.811744999955408]","[""trial_ahead_box"",""trial_right_box"",""trial_left_box""]",0,17,17,34,1,deck4.jpg,diningroom5.jpg,courthouse4.jpg,diner11.jpg,,
Image_List_5,,,,,,,,,,,,,,,,43899,2020-11-12_13h29.54.903,lingCatScenes,2020.1.3,MacIntel,60,"[1440,900]",,,"[""trial_ahead_box""]",,,,,,,,,,,,brewery2.jpg,space,2.53184,"[-0.044657118055555556,0.0017057291666666666]","[-0.3171614583333333,-0.2972873263888889]","[1,1]","[0,0]","[0,0]","[1.0625049999216571,1.8461799999931827]","[""trial_ahead_box""]",0,18,18,27,1,castle3.jpg,courtroom3.jpg,churchInside4.jpg,closet.jpg,,
Image_List_5,,,,,,,,,,,,,,,,43899,2020-11-12_13h29.54.903,lingCatScenes,2020.1.3,MacIntel,60,"[1440,900]",,,"[""trial_ahead_box""]",,,,,,,,,,,,backyard5.jpg,space,1.80019,[0.007309027777777778],[-0.30138020833333334],[1],[0],[0],[1.079700000002049],"[""trial_ahead_box""]",0,19,19,12,1,baggageClaim4.jpg,bedroom6.jpg,bambooforest5.jpg,bleachers7.jpg,,
Image_List_5,,,,,,,,,,,,,,,,43899,2020-11-12_13h29.54.903,lingCatScenes,2020.1.3,MacIntel,60,"[1440,900]",,,"[""trial_ahead_box"",""trial_left_box""]",,,,,,,,,,,,lightingstore2.jpg,space,3.88245,"[0.007309027777777778,-0.4118923611111111]","[-0.300859375,-0.30485677083333335]","[1,1]","[0,0]","[0,0]","[0.8974900000030175,2.896470000036061]","[""trial_ahead_box"",""trial_left_box""]",0,20,20,74,1,newsstand2.jpg,playground10.jpg,observatory4.jpeg,operatingroom1.jpg,,
Image_List_5,,,,,,,,,,,,,,,,43899,2020-11-12_13h29.54.903,lingCatScenes,2020.1.3,MacIntel,60,"[1440,900]",,,"[""trial_ahead_box""]",,,,,,,,,,,,apartmentBuilding3.jpg,space,1.983105,"[-0.005711805555555556,0.0003125]","[-0.3258246527777778,-0.3071744791666667]","[1,1]","[0,0]","[0,0]","[1.1290850000223145,1.695880000013858]","[""trial_ahead_box""]",0,21,21,6,1,ATM1.jpg,banquetHall2.jpg,auto_showroom5.jpg,baggageClaim1.jpg,,
Image_List_5,,,,,,,,,,,,,,,,43899,2020-11-12_13h29.54.903,lingCatScenes,2020.1.3,MacIntel,60,"[1440,900]",,,"[""trial_ahead_box""]",,,,,,,,,,,,basketballcourt7.jpg,space,1.717585,[0.00005208333333333334],[-0.3071744791666667],[1],[0],[0],[0.7782549998955801],"[""trial_ahead_box""]",0,22,22,20,1,boardwalk6.jpg,cave.jpg,campsite3.jpg,cave4.jpg,,
Image_List_5,,,,,,,,,,,,,,,,43899,2020-11-12_13h29.54.903,lingCatScenes,2020.1.3,MacIntel,60,"[1440,900]",,,"[""trial_ahead_box"",""trial_right_box""]",,,,,,,,,,,,postoffice4.jpg,space,2.56652,"[-0.0006467013888888889,0.4095703125]","[-0.2971310763888889,-0.28802083333333334]","[1,1]","[0,0]","[0,0]","[1.0470949999289587,2.2967449999414384]","[""trial_ahead_box"",""trial_right_box""]",0,23,23,82,1,publicrestroom2.jpg,sandDunes_desert_outdoor9.jpg,promenadeDeck3.jpg,readingroom4.jpg,,
Image_List_5,,,,,,,,,,,,,,,,43899,2020-11-12_13h29.54.903,lingCatScenes,2020.1.3,MacIntel,60,"[1440,900]",,,"[""trial_ahead_box"",""trial_right_box""]",,,,,,,,,,,,dock4.jpg,space,2.58325,"[0.024110243055555557,0.40207465277777776]","[-0.30368055555555556,-0.31047309027777775]","[1,1]","[0,0]","[0,0]","[1.413300000014715,2.2798550000879914]","[""trial_ahead_box"",""trial_right_box""]",0,24,24,45,1,fittingroom2.jpg,frontFoyer7.jpg,factory1.jpg,forestpath4.jpg,,
Image_List_5,,,,,,,,,,,,,,,,43899,2020-11-12_13h29.54.903,lingCatScenes,2020.1.3,MacIntel,60,"[1440,900]",,,"[""trial_ahead_box""]",,,,,,,,,,,,tenniscourt.jpg,space,3.566985,"[0.02844184027777778,0.015672743055555556,0.0021223958333333333]","[-0.3367578125,-0.33208333333333334,-0.3015451388888889]","[1,1,1]","[0,0,0]","[0,0,0]","[1.5129900000756606,2.4136400000425056,3.295270000002347]","[""trial_ahead_box""]",0,25,25,93,1,tollbooth8.jpg,volleyballcourt4.jpg,staircase4.jpg,warehouseoutside2.jpg,,
Image_List_5,,,,,,,,,,,,,,,,43899,2020-11-12_13h29.54.903,lingCatScenes,2020.1.3,MacIntel,60,"[1440,900]",,,"[""trial_ahead_box""]",,,,,,,,,,,,hospitalroom3.jpg,space,0.952695,[0.0021223958333333333],[-0.30075520833333336],[1],[0],[0],[0.6803000000072643],"[""trial_ahead_box""]",0,26,26,68,1,liquorstore7.jpg,parkinglot.jpg,lightingstore4.jpg,lockerroom2.jpg,,
Image_List_5,,,,,,,,,,,,,,,,43899,2020-11-12_13h29.54.903,lingCatScenes,2020.1.3,MacIntel,60,"[1440,900]",,,"[""trial_ahead_box""]",,,,,,,,,,,,yogastudio1.jpg,space,1.265125,[0.0021223958333333333],[-0.3010112847222222],[1],[0],[0],[0.8805399999255314],"[""trial_ahead_box""]",0,27,27,99,1,wineVineyard9.jpg,yogastudio4.jpg,windmill2.jpg,wrestlingring7.jpg,,
Image_List_5,,,,,,,,,,,,,,,,43899,2020-11-12_13h29.54.903,lingCatScenes,2020.1.3,MacIntel,60,"[1440,900]",,,"[""trial_ahead_box""]",,,,,,,,,,,,diningroom3.jpg,space,1.01237,[0.0021223958333333333],[-0.3010112847222222],[1],[0],[0],[0.7138000000268221],"[""trial_ahead_box""]",0,28,28,43,1,exerciseequipment5.jpg,forestpath10.jpg,dugout2.jpg,foodcourt.jpg,,
Image_List_5,,,,,,,,,,,,,,,,43899,2020-11-12_13h29.54.903,lingCatScenes,2020.1.3,MacIntel,60,"[1440,900]",,,"[""trial_ahead_box""]",,,,,,,,,,,,desertvegetation2.jpg,space,1.196735,[0.0021223958333333333],[-0.3010112847222222],[1],[0],[0],[0.6639800000702962],"[""trial_ahead_box""]",0,29,29,42,1,exerciseequipment3.jpg,firestation3.jpg,drymountains6.jpg,farm4.jpg,,
Image_List_5,,,,,,,,,,,,,,,,43899,2020-11-12_13h29.54.903,lingCatScenes,2020.1.3,MacIntel,60,"[1440,900]",,,"[""trial_ahead_box""]",,,,,,,,,,,,hayfield7.jpg,space,1.064725,[0.0021223958333333333],[-0.3010112847222222],[1],[0],[0],[0.797069999971427],"[""trial_ahead_box""]",0,30,30,62,1,hotellobby2.jpg,minigolf.jpg,horsebarn8.jpg,lab3.jpg,,
Image_List_5,,,,,,,,,,,,,,,,43899,2020-11-12_13h29.54.903,lingCatScenes,2020.1.3,MacIntel,60,"[1440,900]",,,"[""trial_ahead_box"",""trial_right_box""]",,,,,,,,,,,,amusement3.jpg,space,3.130175,"[0.0029991319444444445,0.3793576388888889]","[-0.3036067708333333,-0.30876736111111114]","[1,1]","[0,0]","[0,0]","[1.5468800000380725,2.8464949999470264]","[""trial_ahead_box"",""trial_right_box""]",0,31,31,5,1,artStudio3.jpg,bambooforest.jpg,auto_showroom4.jpg,attic4.jpg,,
Image_List_5,,,,,,,,,,,,,,,,43899,2020-11-12_13h29.54.903,lingCatScenes,2020.1.3,MacIntel,60,"[1440,900]",,,"[""trial_ahead_box""]",,,,,,,,,,,,homeoffice8.jpg,space,1.74712,[-0.0017100694444444444],[-0.3083550347222222],[1],[0],[0],[1.1465049999533221],"[""trial_ahead_box""]",0,32,32,65,1,igloo5.jpg,newsstand7.jpg,laundromat2.jpeg,labClass7.jpg,,
Image_List_5,,,,,,,,,,,,,,,,43899,2020-11-12_13h29.54.903,lingCatScenes,2020.1.3,MacIntel,60,"[1440,900]",,,"[""trial_ahead_box""]",,,,,,,,,,,,homegarage2.jpg,space,1.09968,[-0.004926215277777778],[-0.3137022569444444],[1],[0],[0],[0.8140150000108406],"[""trial_ahead_box""]",0,33,33,64,1,igloo2.jpg,newsstand5.jpg,jewelrystore8.jpg,lab5.jpg,,
Image_List_5,,,,,,,,,,,,,,,,43899,2020-11-12_13h29.54.903,lingCatScenes,2020.1.3,MacIntel,60,"[1440,900]",,,"[""trial_ahead_box"",""trial_right_box"",""trial_left_box""]",,,,,,,,,,,,airportTerminal6.jpg,space,3.46736,"[-0.005447048611111111,0.37821180555555556,-0.35715277777777776,-0.4024782986111111]","[-0.3137022569444444,-0.3097916666666667,-0.3092404513888889,-0.30614583333333334]","[1,1,1,1]","[0,0,0,0]","[0,0,0,0]","[0.6647899999516085,1.629949999973178,2.6634899999480695,3.2132650000276044]","[""trial_ahead_box"",""trial_right_box"",""trial_left_box""]",0,34,34,2,1,alley1.jpg,arcade1.jpg,applestore6.jpg,apartmentBuilding4.jpg,,
Image_List_5,,,,,,,,,,,,,,,,43899,2020-11-12_13h29.54.903,lingCatScenes,2020.1.3,MacIntel,60,"[1440,900]",,,"[""trial_ahead_box""]",,,,,,,,,,,,rooftop2.jpg,space,1.26528,[-0.009418402777777777],[-0.2791623263888889],[1],[0],[0],[0.9456400000490248],"[""trial_ahead_box""]",0,35,35,84,1,readingroom5.jpg,sidewalk2.jpg,restaurant13.jpg,sandDunes_desert_outdoor.jpg,,
Image_List_5,,,,,,,,,,,,,,,,43899,2020-11-12_13h29.54.903,lingCatScenes,2020.1.3,MacIntel,60,"[1440,900]",,,"[""trial_ahead_box""]",,,,,,,,,,,,icecream2.jpg,space,0.899305,[0.024561631944444443],[-0.30331597222222223],[1],[0],[0],[0.6157949999906123],"[""trial_ahead_box""]",0,36,36,69,1,liquorstore8.jpg,parkinglot2.jpg,livingroom.jpg,metroInside1.jpg,,
Image_List_5,,,,,,,,,,,,,,,,43899,2020-11-12_13h29.54.903,lingCatScenes,2020.1.3,MacIntel,60,"[1440,900]",,,"[""trial_ahead_box""]",,,,,,,,,,,,botanicalGarden4.jpg,space,3.162105,[0.024561631944444443],[-0.30331597222222223],[1],[0],[0],[1.080695000011474],"[""trial_ahead_box""]",0,37,37,25,1,campsite7.jpg,conference3.jpg,church3.jpg,checkoutcounter2.jpg,,
Image_List_5,,,,,,,,,,,,,,,,43899,2020-11-12_13h29.54.903,lingCatScenes,2020.1.3,MacIntel,60,"[1440,900]",,,"[""trial_ahead_box""]",,,,,,,,,,,,observatory1.jpg,space,1.26642,[0.024561631944444443],[-0.30331597222222223],[1],[0],[0],[0.6455550000537187],"[""trial_ahead_box""]",0,38,38,78,1,parkinglot3.jpg,poolhall1.jpg,pier5.jpg,pavilion3.jpg,,
Image_List_5,,,,,,,,,,,,,,,,43899,2020-11-12_13h29.54.903,lingCatScenes,2020.1.3,MacIntel,60,"[1440,900]",,,"[""trial_slight_right_box""]",,,,,,,,,,,,parkinggarage4.jpg,space,11.43228,"[0.024561631944444443,-0.009756944444444445,0.20628472222222222,-0.1721484375]","[-0.3007942708333333,-0.3050998263888889,-0.3050998263888889,-0.3176909722222222]","[1,1,1,1]","[0,0,0,0]","[0,0,0,0]","[1.6632799999788404,6.063300000037998,6.63015500002075,7.996840000036173]","[""trial_ahead_box"",""trial_ahead_box"",""trial_slight_right_box""]",0,39,39,80,1,pavilion2.jpg,racecarcourse2.jpg,porch.jpg,poolhall5.jpg,,
Image_List_5,,,,,,,,,,,,,,,,43899,2020-11-12_13h29.54.903,lingCatScenes,2020.1.3,MacIntel,60,"[1440,900]",,,"[""trial_ahead_box""]",,,,,,,,,,,,bus_shelter3.jpg,space,1.948885,"[0.018958333333333334,0.008940972222222222]","[-0.3413498263888889,-0.31752604166666665]","[1,1]","[0,0]","[0,0]","[0.9953599999425933,1.4130749999312684]","[""trial_ahead_box""]",0,40,40,30,1,courthouse1.jpg,desertvegetation3.jpg,clothingstore2.jpg,copyroom2.jpg,,
Image_List_5,,,,,,,,,,,,,,,,43899,2020-11-12_13h29.54.903,lingCatScenes,2020.1.3,MacIntel,60,"[1440,900]",,,"[""trial_ahead_box""]",,,,,,,,,,,,backyard6.jpg,space,1.03126,[0.008940972222222222],[-0.31752604166666665],[1],[0],[0],[0.7126850000349805],"[""trial_ahead_box""]",0,41,41,13,1,balconyIN2.jpg,bowlingalley3.jpg,beach2.jpg,boardwalk4.jpg,,
Image_List_5,,,,,,,,,,,,,,,,43899,2020-11-12_13h29.54.903,lingCatScenes,2020.1.3,MacIntel,60,"[1440,900]",,,"[""trial_ahead_box""]",,,,,,,,,,,,bistrooutdoor6.jpg,space,1.03333,[0.008107638888888888],[-0.31577256944444443],[1],[0],[0],[0.7641399999847636],"[""trial_ahead_box""]",0,42,42,22,1,bowlingalley5.jpg,church6.jpg,cargo5.jpg,cemetery.jpg,,
Image_List_5,,,,,,,,,,,,,,,,43899,2020-11-12_13h29.54.903,lingCatScenes,2020.1.3,MacIntel,60,"[1440,900]",,,"[""trial_ahead_box""]",,,,,,,,,,,,cliff5.jpg,space,1.466195,[0.008107638888888888],[-0.3163151041666667],[1],[0],[0],[1.1617349999723956],"[""trial_ahead_box""]",0,43,43,39,1,driveway6.jpg,eyeglassstore9.jpg,drycleaners6.jpg,drymountains5.jpg,,
Image_List_5,,,,,,,,,,,,,,,,43899,2020-11-12_13h29.54.903,lingCatScenes,2020.1.3,MacIntel,60,"[1440,900]",,,"[""trial_ahead_box""]",,,,,,,,,,,,grocerystore3.jpg,space,1.149055,[0.008107638888888888],[-0.3163151041666667],[1],[0],[0],[0.7281550000188872],"[""trial_ahead_box""]",0,44,44,59,1,homegarden7.jpg,library_aisle8.jpg,highway4.jpg,kindergarten_classroom5.jpg,,
Image_List_5,,,,,,,,,,,,,,,,43899,2020-11-12_13h29.54.903,lingCatScenes,2020.1.3,MacIntel,60,"[1440,900]",,,"[""trial_ahead_box""]",,,,,,,,,,,,bridalboutique2.jpg,space,0.91328,[0.008107638888888888],[-0.3163151041666667],[1],[0],[0],[0.6452499999431893],"[""trial_ahead_box""]",0,45,45,28,1,churchInside1.jpg,dancestudio5.jpg,citystreet10.jpg,clothingstore5.jpg,,
Image_List_5,,,,,,,,,,,,,,,,43899,2020-11-12_13h29.54.903,lingCatScenes,2020.1.3,MacIntel,60,"[1440,900]",,,"[""trial_ahead_box"",""trial_right_box"",""trial_left_box""]",,,,,,,,,,,,lookout4.jpg,space,4.232095,"[0.008389756944444444,0.38211805555555556,-0.36938802083333333,-0.38655381944444445]","[-0.3168359375,-0.30852430555555554,-0.3223741319444444,-0.3196310763888889]","[1,1,1,1]","[0,0,0,0]","[0,0,0,0]","[0.8622099999338388,2.396809999947436,3.3793199999490753,3.9802649999037385]","[""trial_ahead_box"",""trial_right_box"",""trial_left_box""]",0,46,46,76,1,parkinggarage.jpg,playroom4.jpg,parkinggarage3.jpg,park2.jpg,,
Image_List_5,,,,,,,,,,,,,,,,43899,2020-11-12_13h29.54.903,lingCatScenes,2020.1.3,MacIntel,60,"[1440,900]",,,"[""trial_ahead_box""]",,,,,,,,,,,,observatory2.jpg,space,1.81475,"[-0.03927517361111111,-0.003181423611111111]","[-0.31958333333333333,-0.31958333333333333]","[1,1]","[0,0]","[0,0]","[1.0128699999768287,1.4631550000049174]","[""trial_ahead_box""]",0,47,47,79,1,pasture.jpg,poolhall2.jpeg,playground9.jpg,pier2.jpg,,
Image_List_5,,,,,,,,,,,,,,,,43899,2020-11-12_13h29.54.903,lingCatScenes,2020.1.3,MacIntel,60,"[1440,900]",,,"[""trial_ahead_box""]",,,,,,,,,,,,bridalboutique3.jpg,space,0.963525,[-0.006449652777777778],[-0.32385850694444446],[1],[0],[0],[0.5624649999663234],"[""trial_ahead_box""]",0,48,48,29,1,cornfield2.jpg,deck2.jpg,cliff2.jpg,constructionSite4.jpg,,
Image_List_5,,,,,,,,,,,,,,,,43899,2020-11-12_13h29.54.903,lingCatScenes,2020.1.3,MacIntel,60,"[1440,900]",,,"[""trial_ahead_box""]",,,,,,,,,,,,bar8.jpg,space,1.06569,[-0.006449652777777778],[-0.32385850694444446],[1],[0],[0],[0.729605000000447],"[""trial_ahead_box""]",0,49,49,15,1,bambooforest4.jpg,cafeteria5.jpg,bleachers8.jpg,cabinIndoors.jpg,,
Image_List_5,,,,,,,,,,,,,,,,43899,2020-11-12_13h29.54.903,lingCatScenes,2020.1.3,MacIntel,60,"[1440,900]",,,"[""trial_ahead_box""]",,,,,,,,,,,,gazebo.jpg,space,1.29676,[-0.006449652777777778],[-0.3249652777777778],[1],[0],[0],[0.6786449999781325],"[""trial_ahead_box""]",0,50,50,57,1,hayfield5.jpg,jail1.jpg,hallway4.jpg,hut5.jpg,,
Image_List_5,,,,,,,,,,,,,,,,43899,2020-11-12_13h29.54.903,lingCatScenes,2020.1.3,MacIntel,60,"[1440,900]",,,"[""trial_ahead_box""]",,,,,,,,,,,,soccerfield2.jpg,space,1.398245,[-0.006449652777777778],[-0.3249652777777778],[1],[0],[0],[1.0133899999782443],"[""trial_ahead_box""]",0,51,51,92,1,staircase.jpg,volleyballcourt.jpg,skatepark7.jpg,tvstudio2.jpg,,
Image_List_5,,,,,,,,,,,,,,,,43899,2020-11-12_13h29.54.903,lingCatScenes,2020.1.3,MacIntel,60,"[1440,900]",,,"[""trial_ahead_box""]",,,,,,,,,,,,bleachers6.jpg,space,2.02971,"[-0.006449652777777778,-0.0016883680555555556]","[-0.32616319444444447,-0.31730902777777775]","[1,1]","[0,0]","[0,0]","[0.597414999967441,1.7117249999428168]","[""trial_ahead_box""]",0,52,52,23,1,bus_shelter.jpg,church8.jpg,carmechanic4.jpeg,cemetery3.jpg,,
Image_List_5,,,,,,,,,,,,,,,,43899,2020-11-12_13h29.54.903,lingCatScenes,2020.1.3,MacIntel,60,"[1440,900]",,,"[""trial_ahead_box""]",,,,,,,,,,,,hospitalroom2.jpg,space,1.1315,[-0.0016883680555555556],[-0.31730902777777775],[1],[0],[0],[0.6625449999701232],"[""trial_ahead_box""]",0,53,53,67,1,library_aisle3.jpg,park7.jpg,laundromat4.jpg,liquorstore2.jpg,,
Image_List_5,,,,,,,,,,,,,,,,43899,2020-11-12_13h29.54.903,lingCatScenes,2020.1.3,MacIntel,60,"[1440,900]",,,"[""trial_ahead_box""]",,,,,,,,,,,,alley4.jpg,space,1.25104,[-0.0016883680555555556],[-0.3170486111111111],[1],[0],[0],[0.8620100000407547],"[""trial_ahead_box""]",0,54,54,4,1,artStudio1.jpg,baggageClaim2.jpg,auto_showroom1.jpg,appleorchard3.jpg,,
Image_List_5,,,,,,,,,,,,,,,,43899,2020-11-12_13h29.54.903,lingCatScenes,2020.1.3,MacIntel,60,"[1440,900]",,,"[""trial_ahead_box"",""trial_right_box"",""trial_left_box""]",,,,,,,,,,,,checkoutcounter9.jpg,space,4.413475,"[-0.0016883680555555556,0.44213541666666667,0.41270399305555555,-0.36010416666666667,-0.3938758680555556]","[-0.31678819444444445,-0.2935286458333333,-0.29419270833333333,-0.29998697916666667,-0.2976128472222222]","[1,1,1,1,1]","[0,0,0,0,0]","[0,0,0,0,0]","[0.9145799999823794,1.9145499999867752,2.380639999988489,3.36378999997396,3.8632249999791384]","[""trial_ahead_box"",""trial_right_box"",""trial_left_box""]",0,55,55,36,1,diner14.jpg,dormroom9.jpg,dining_car3.jpg,doctor1.jpg,,
Image_List_5,,,,,,,,,,,,,,,,43899,2020-11-12_13h29.54.903,lingCatScenes,2020.1.3,MacIntel,60,"[1440,900]",,,"[""trial_ahead_box""]",,,,,,,,,,,,horsebarn9.jpg,space,2.28261,"[-0.03312934027777778,-0.004014756944444444]","[-0.3318012152777778,-0.30279079861111113]","[1,1]","[0,0]","[0,0]","[1.5796850000042468,1.981359999976121]","[""trial_ahead_box""]",0,56,56,66,1,library_aisle10.jpg,office3.jpg,laundromat3.jpg,liquorstore.jpg,,
Image_List_5,,,,,,,,,,,,,,,,43899,2020-11-12_13h29.54.903,lingCatScenes,2020.1.3,MacIntel,60,"[1440,900]",,,"[""trial_ahead_box""]",,,,,,,,,,,,readingroom2.jpg,space,1.683525,[-0.004014756944444444],[-0.30279079861111113],[1],[0],[0],[0.7630699999863282],"[""trial_ahead_box""]",0,57,57,83,1,readingroom1.jpg,sculpturegarden1.jpg,promenadeDeck6.jpg,restaurant8.jpg,,
Image_List_5,,,,,,,,,,,,,,,,43899,2020-11-12_13h29.54.903,lingCatScenes,2020.1.3,MacIntel,60,"[1440,900]",,,"[""trial_ahead_box""]",,,,,,,,,,,,cabinIndoors5.jpg,space,1.080635,[-0.004014756944444444],[-0.30279079861111113],[1],[0],[0],[0.5790300000226125],"[""trial_ahead_box""]",0,58,58,33,1,deck1.jpg,diningroom1.jpg,courthouse2.jpg,diner10.jpg,,
Image_List_5,,,,,,,,,,,,,,,,43899,2020-11-12_13h29.54.903,lingCatScenes,2020.1.3,MacIntel,60,"[1440,900]",,,"[""trial_ahead_box""]",,,,,,,,,,,,fireplace4.jpg,space,1.279675,[-0.004014756944444444],[-0.30279079861111113],[1],[0],[0],[0.6108499999390915],"[""trial_ahead_box""]",0,59,59,50,1,frontLawn4.jpg,grocerystore6.jpg,forestpath6.jpg,hallway2.jpg,,
Image_List_5,,,,,,,,,,,,,,,,43899,2020-11-12_13h29.54.903,lingCatScenes,2020.1.3,MacIntel,60,"[1440,900]",,,"[""trial_ahead_box""]",,,,,,,,,,,,forestpath2.jpg,space,1.0319,[-0.004014756944444444],[-0.30279079861111113],[1],[0],[0],[0.7128849999280646],"[""trial_ahead_box""]",0,60,60,52,1,gasstation7.jpg,hardwarestore1.jpg,frontFoyer6.jpg,highway.jpg,,
Image_List_5,,,,,,,,,,,,,,,,43899,2020-11-12_13h29.54.903,lingCatScenes,2020.1.3,MacIntel,60,"[1440,900]",,,"[""trial_ahead_box""]",,,,,,,,,,,,clothingstore3.jpg,space,0.919585,[-0.004014756944444444],[-0.30279079861111113],[1],[0],[0],[0.5979700000025332],"[""trial_ahead_box""]",0,61,61,40,1,drycleaners4.jpg,farm1.jpg,drymountains.jpg,dugout1.jpg,,
Image_List_5,,,,,,,,,,,,,,,,43899,2020-11-12_13h29.54.903,lingCatScenes,2020.1.3,MacIntel,60,"[1440,900]",,,"[""trial_ahead_box""]",,,,,,,,,,,,sculpturegarden3.jpg,space,1.134375,[-0.005138888888888889],[-0.3075],[1],[0],[0],[0.7809150000102818],"[""trial_ahead_box""]",0,62,62,89,1,ruralroad7.jpg,track5.jpg,ShowJumping7.jpg,staircase7.jpg,,
Image_List_5,,,,,,,,,,,,,,,,43899,2020-11-12_13h29.54.903,lingCatScenes,2020.1.3,MacIntel,60,"[1440,900]",,,"[""trial_ahead_box""]",,,,,,,,,,,,rooftop3.jpg,space,0.94943,[-0.005138888888888889],[-0.3069791666666667],[1],[0],[0],[0.6465649999445304],"[""trial_ahead_box""]",0,63,63,85,1,recordingstudio4.jpg,sidewalk5.jpg,ruralroad2.jpg,sandDunes_desert_outdoor3.jpg,,
Image_List_5,,,,,,,,,,,,,,,,43899,2020-11-12_13h29.54.903,lingCatScenes,2020.1.3,MacIntel,60,"[1440,900]",,,"[""trial_ahead_box""]",,,,,,,,,,,,lockerroom.jpg,space,1.381695,[-0.005138888888888889],[-0.3069791666666667],[1],[0],[0],[0.9295400000410154],"[""trial_ahead_box""]",0,64,64,75,1,pantry5.jpg,playground6.jpg,operatingroom4.jpg,park.jpg,,
Image_List_5,,,,,,,,,,,,,,,,43899,2020-11-12_13h29.54.903,lingCatScenes,2020.1.3,MacIntel,60,"[1440,900]",,,"[""trial_ahead_box"",""trial_left_box""]",,,,,,,,,,,,jewelrystore.jpg,space,2.31532,"[-0.005138888888888889,-0.3910763888888889]","[-0.3069791666666667,-0.3215972222222222]","[1,1]","[0,0]","[0,0]","[0.6617800000822172,2.0450950000667945]","[""trial_ahead_box"",""trial_left_box""]",0,65,65,71,1,metroInside2.jpg,pavilion5.jpg,metroInside3.jpg,museum3.jpg,,
Image_List_5,,,,,,,,,,,,,,,,43899,2020-11-12_13h29.54.903,lingCatScenes,2020.1.3,MacIntel,60,"[1440,900]",,,"[""trial_ahead_box""]",,,,,,,,,,,,warehouse1.jpg,space,1.13587,[-0.0032682291666666667],[-0.2977473958333333],[1],[0],[0],[0.8634050000691786],"[""trial_ahead_box""]",0,66,66,96,1,warehouse4.jpg,warehouseoutside1.jpg,tenniscourt3.jpg,windmill1.jpg,,
Image_List_5,,,,,,,,,,,,,,,,43899,2020-11-12_13h29.54.903,lingCatScenes,2020.1.3,MacIntel,60,"[1440,900]",,,"[""trial_ahead_box""]",,,,,,,,,,,,trainStation3.jpg,space,0.89954,[-0.0040625],[-0.2977473958333333],[1],[0],[0],[0.6126600001007318],"[""trial_ahead_box""]",0,67,67,94,1,treehouse.jpg,waitingroom3.jpg,staircase6.jpg,weightroom.jpg,,
Image_List_5,,,,,,,,,,,,,,,,43899,2020-11-12_13h29.54.903,lingCatScenes,2020.1.3,MacIntel,60,"[1440,900]",,,"[""trial_ahead_box""]",,,,,,,,,,,,warehouseoutside3.jpg,space,0.88372,[-0.0040625],[-0.2977473958333333],[1],[0],[0],[0.5793849999317899],"[""trial_ahead_box""]",0,68,68,97,1,warehouseoutside4.jpg,wineVineyard2.jpg,waitingroom4.jpg,winebarrel3.jpg,,
Image_List_5,,,,,,,,,,,,,,,,43899,2020-11-12_13h29.54.903,lingCatScenes,2020.1.3,MacIntel,60,"[1440,900]",,,"[""trial_ahead_box""]",,,,,,,,,,,,winebarrel2.jpg,space,0.785015,[-0.0040625],[-0.2886241319444444],[1],[0],[0],[0.47995000006631017],"[""trial_ahead_box""]",0,69,69,98,1,weightroom5.jpg,wineVineyard8.jpg,warehouse3.jpg,winebarrel4.jpg,,
Image_List_5,,,,,,,,,,,,,,,,43899,2020-11-12_13h29.54.903,lingCatScenes,2020.1.3,MacIntel,60,"[1440,900]",,,"[""trial_ahead_box"",""trial_slight_left_box"",""trial_slight_right_box""]",,,,,,,,,,,,cabin4.jpg,space,5.14282,"[-0.0040625,-0.204296875,0.2088888888888889]","[-0.2865711805555556,-0.3045572916666667,-0.312109375]","[1,1,1]","[0,0,0]","[0,0,0]","[2.3799450000515208,3.614640000043437,4.897340000024997]","[""trial_ahead_box"",""trial_slight_left_box"",""trial_slight_right_box""]",0,70,70,32,1,dancestudio6.jpg,diner12.jpg,constructionSite2.jpg,dentist4.jpg,,
Image_List_5,,,,,,,,,,,,,,,,43899,2020-11-12_13h29.54.903,lingCatScenes,2020.1.3,MacIntel,60,"[1440,900]",,,"[""trial_ahead_box""]",,,,,,,,,,,,grocerystore2.jpg,space,2.21683,"[0.2088888888888889,0.005859375,0.20261284722222223]","[-0.312109375,-0.3027213541666667,-0.3006510416666667]","[1,1,1]","[0,0,0]","[0,0,0]","[0.5469250000314787,1.3319299999857321,1.9146050000563264]","[""trial_slight_right_box"",""trial_ahead_box"",""trial_slight_right_box""]",0,71,71,58,1,highway7.jpg,lab1.jpg,hedgemaze1.jpg,igloo4.jpg,,
Image_List_5,,,,,,,,,,,,,,,,43899,2020-11-12_13h29.54.903,lingCatScenes,2020.1.3,MacIntel,60,"[1440,900]",,,[],,,,,,,,,,,,library_aisle9.jpg,space,1.334295,[0.034227430555555556],[-0.2991536458333333],[1],[0],[0],[0.8959549999563023],[],0,72,72,73,1,musicStore3.jpg,photographer_studio2.jpg,nursery.jpg,nursery4.jpg,,
Image_List_5,,,,,,,,,,,,,,,,43899,2020-11-12_13h29.54.903,lingCatScenes,2020.1.3,MacIntel,60,"[1440,900]",,,"[""trial_ahead_box""]",,,,,,,,,,,,frontFoyer.jpg,space,3.098435,[-0.00005642361111111111],[-0.3132595486111111],[1],[0],[0],[2.7802349999547005],"[""trial_ahead_box""]",0,73,73,54,1,greenhouse2.jpg,horsebarn11.jpg,gazebo2.jpg,homegarage4.jpg,,
Image_List_5,,,,,,,,,,,,,,,,43899,2020-11-12_13h29.54.903,lingCatScenes,2020.1.3,MacIntel,60,"[1440,900]",,,"[""trial_ahead_box""]",,,,,,,,,,,,fabricstore2.jpg,space,1.14402,[-0.00005642361111111111],[-0.31299913194444445],[1],[0],[0],[0.8624800000106916],"[""trial_ahead_box""]",0,74,74,48,1,frontDoor2.jpg,golfcourse6.jpg,fittingroom5.jpg,golfcourse7.jpg,,
Image_List_5,,,,,,,,,,,,,,,,43899,2020-11-12_13h29.54.903,lingCatScenes,2020.1.3,MacIntel,60,"[1440,900]",,,"[""trial_ahead_box""]",,,,,,,,,,,,backyard1.jpg,space,1.18244,[-0.00005642361111111111],[-0.31299913194444445],[1],[0],[0],[0.8456350000342354],"[""trial_ahead_box""]",0,75,75,11,1,backyard2.jpg,basketballcourt4.jpg,bambooforest3.jpg,baywindow5.jpg,,
Image_List_5,,,,,,,,,,,,,,,,43899,2020-11-12_13h29.54.903,lingCatScenes,2020.1.3,MacIntel,60,"[1440,900]",,,"[""trial_ahead_box""]",,,,,,,,,,,,pasture8.jpg,space,1.1992,[-0.00005642361111111111],[-0.31299913194444445],[1],[0],[0],[0.8301450000144541],"[""trial_ahead_box""]",0,76,76,81,1,promenadeDeck.jpg,ruralroad5.jpg,promenadeDeck2.jpg,rainforest5.jpg,,
Image_List_5,,,,,,,,,,,,,,,,43899,2020-11-12_13h29.54.903,lingCatScenes,2020.1.3,MacIntel,60,"[1440,900]",,,"[""trial_ahead_box""]",,,,,,,,,,,,fountain.jpg,space,0.96709,[0.0005425347222222222],[-0.31473524305555556],[1],[0],[0],[0.6991799999959767],"[""trial_ahead_box""]",0,77,77,53,1,gazebo3.jpg,homeoffice.jpg,frontLawn3.jpg,homegarage3.jpg,,
Image_List_5,,,,,,,,,,,,,,,,43899,2020-11-12_13h29.54.903,lingCatScenes,2020.1.3,MacIntel,60,"[1440,900]",,,"[""trial_ahead_box""]",,,,,,,,,,,,dock2.jpg,space,1.09394,[0.0005425347222222222],[-0.31473524305555556],[1],[0],[0],[0.7472400000551715],"[""trial_ahead_box""]",0,78,78,44,1,firestation2.jpg,frontFoyer4.jpg,elevatorOutside1.jpg,foodcourt6.jpg,,
Image_List_5,,,,,,,,,,,,,,,,43899,2020-11-12_13h29.54.903,lingCatScenes,2020.1.3,MacIntel,60,"[1440,900]",,,"[""trial_ahead_box""]",,,,,,,,,,,,beach1.jpeg,space,1.01096,[0.0005425347222222222],[-0.31473524305555556],[1],[0],[0],[0.6294250000501052],"[""trial_ahead_box""]",0,79,79,21,1,botanicalGarden6.jpg,cemetery6.jpg,campusquad3.jpg,cave5.jpg,,
Image_List_5,,,,,,,,,,,,,,,,43899,2020-11-12_13h29.54.903,lingCatScenes,2020.1.3,MacIntel,60,"[1440,900]",,,"[""trial_ahead_box""]",,,,,,,,,,,,elevatorOutside2.jpg,space,1.94535,[0.0005425347222222222],[-0.31473524305555556],[1],[0],[0],[0.7796049999305978],"[""trial_ahead_box""]",0,80,80,47,1,frontDoor.jpg,gasstation8.jpg,firestation4.jpg,fountain7.jpg,,
Image_List_5,,,,,,,,,,,,,,,,43899,2020-11-12_13h29.54.903,lingCatScenes,2020.1.3,MacIntel,60,"[1440,900]",,,"[""trial_ahead_box""]",,,,,,,,,,,,airportTerminal2.jpg,space,0.99616,[0.0005425347222222222],[-0.31473524305555556],[1],[0],[0],[0.5466550000710413],"[""trial_ahead_box""]",0,81,81,1,1,airportTerminal4.jpg,apartmentBuilding1.jpg,applestore1.jpg,airportTerminal3.jpg,,
Image_List_5,,,,,,,,,,,,,,,,43899,2020-11-12_13h29.54.903,lingCatScenes,2020.1.3,MacIntel,60,"[1440,900]",,,"[""trial_ahead_box"",""trial_right_box""]",,,,,,,,,,,,sidewalk3.jpg,space,2.73337,"[0.0005425347222222222,0.40055555555555555]","[-0.31473524305555556,-0.29637152777777775]","[1,1]","[0,0]","[0,0]","[0.846350000007078,2.2954300000565127]","[""trial_ahead_box"",""trial_right_box""]",0,82,82,91,1,shoestore2.jpg,trainStation5.jpg,skatepark5.jpg,ticket_counter6.jpg,,
Image_List_5,,,,,,,,,,,,,,,,43899,2020-11-12_13h29.54.903,lingCatScenes,2020.1.3,MacIntel,60,"[1440,900]",,,"[""trial_ahead_box""]",,,,,,,,,,,,applestore2.jpg,space,1.750005,[0.006944444444444444],[-0.27749565972222223],[1],[0],[0],[1.0630649999948218],"[""trial_ahead_box""]",0,83,83,7,1,attic2.jpg,banquetHall4.jpg,backstage1.jpg,baggageClaim3.jpg,,
Image_List_5,,,,,,,,,,,,,,,,43899,2020-11-12_13h29.54.903,lingCatScenes,2020.1.3,MacIntel,60,"[1440,900]",,,"[""trial_ahead_box""]",,,,,,,,,,,,cabin3.jpg,space,1.86421,"[0.007608506944444445,0.007608506944444445,0.007608506944444445]","[-0.28475260416666665,-0.28475260416666665,-0.28475260416666665]","[1,1,1]","[0,0,0]","[0,0,0]","[0.8132199998944998,0.9817599999951199,1.5635400000028312]","[""trial_ahead_box"",""trial_ahead_box"",""trial_ahead_box""]",0,84,84,31,1,cubicle4.jpg,desertvegetation6.jpg,conference4.jpg,courtroom2.jpg,,
Image_List_5,,,,,,,,,,,,,,,,43899,2020-11-12_13h29.54.903,lingCatScenes,2020.1.3,MacIntel,60,"[1440,900]",,,"[""trial_ahead_box"",""trial_slight_left_box""]",,,,,,,,,,,,basement6.jpg,space,3.511315,"[0.007608506944444445,-0.19577690972222223]","[-0.28475260416666665,-0.30807725694444443]","[1,1]","[0,0]","[0,0]","[0.596070000086911,3.1792900000000373]","[""trial_ahead_box"",""trial_slight_left_box""]",0,85,85,18,1,bleachers5.jpg,casino1.jpg,brewery4.jpg,castle2.jpg,,
Image_List_5,,,,,,,,,,,,,,,,43899,2020-11-12_13h29.54.903,lingCatScenes,2020.1.3,MacIntel,60,"[1440,900]",,,"[""trial_ahead_box"",""trial_left_box""]",,,,,,,,,,,,botanicalGarden7.jpg,space,4.16383,"[0.004565972222222222,-0.3596267361111111,-0.41173177083333334]","[-0.2992447916666667,-0.3045789930555556,-0.3059895833333333]","[1,1,1]","[0,0,0]","[0,0,0]","[2.180389999994077,3.0787350001046434,3.8790850000223145]","[""trial_ahead_box"",""trial_left_box""]",0,86,86,26,1,campusquad2.jpg,cornfield4.jpg,church4.jpg,churchInside3.jpg,,
Image_List_5,,,,,,,,,,,,,,,,43899,2020-11-12_13h29.54.903,lingCatScenes,2020.1.3,MacIntel,60,"[1440,900]",,,"[""trial_ahead_box""]",,,,,,,,,,,,hallway.jpg,space,1.16819,[-0.01267795138888889],[-0.30032118055555557],[1],[0],[0],[0.8455150000518188],"[""trial_ahead_box""]",0,87,87,60,1,hometheater2.jpg,lightingstore3.jpg,homegarage.jpg,kindergarten_classroom6.jpg,,
Image_List_5,,,,,,,,,,,,,,,,43899,2020-11-12_13h29.54.903,lingCatScenes,2020.1.3,MacIntel,60,"[1440,900]",,,"[""trial_ahead_box""]",,,,,,,,,,,,kindergarten_classroom.jpg,space,1.051695,[-0.016119791666666668],[-0.30032118055555557],[1],[0],[0],[0.6134349999483675],"[""trial_ahead_box""]",0,88,88,72,1,museum5.jpg,pharmacy4.jpg,musicStore1.jpg,museum4.jpg,,
Image_List_5,,,,,,,,,,,,,,,,43899,2020-11-12_13h29.54.903,lingCatScenes,2020.1.3,MacIntel,60,"[1440,900]",,,"[""trial_ahead_box""]",,,,,,,,,,,,ballroom3.jpg,space,0.932375,[-0.016119791666666668],[-0.30032118055555557],[1],[0],[0],[0.5627699999604374],"[""trial_ahead_box""]",0,89,89,14,1,ballroom1.jpg,breakroom5.jpg,bistrooutdoor5.jpg,botanicalGarden5.jpg,,
Image_List_5,,,,,,,,,,,,,,,,43899,2020-11-12_13h29.54.903,lingCatScenes,2020.1.3,MacIntel,60,"[1440,900]",,,"[""trial_ahead_box""]",,,,,,,,,,,,farm2.jpg,space,1.131635,[-0.016119791666666668],[-0.30032118055555557],[1],[0],[0],[0.47961500007659197],"[""trial_ahead_box""]",0,90,90,49,1,frontDoor3.jpg,greenhouse5.jpg,flowershop3.jpg,greenhouse.jpg,,
Image_List_5,,,,,,,,,,,,,,,,43899,2020-11-12_13h29.54.903,lingCatScenes,2020.1.3,MacIntel,60,"[1440,900]",,,"[""trial_ahead_box""]",,,,,,,,,,,,boardwalk.jpg,space,0.8826,[-0.016119791666666668],[-0.30032118055555557],[1],[0],[0],[0.5119900000281632],"[""trial_ahead_box""]",0,91,91,24,1,campsite.jpg,cliff3.jpg,cave6.jpg,cemetery5.jpg,,
Image_List_5,,,,,,,,,,,,,,,,43899,2020-11-12_13h29.54.903,lingCatScenes,2020.1.3,MacIntel,60,"[1440,900]",,,"[""trial_ahead_box""]",,,,,,,,,,,,basketballcourt.jpg,space,0.831425,[-0.016119791666666668],[-0.30032118055555557],[1],[0],[0],[0.49679500004276633],"[""trial_ahead_box""]",0,92,92,19,1,boardwalk2.jpg,casino3.jpg,cafeteria1.jpg,castle4.jpg,,
Image_List_5,,,,,,,,,,,,,,,,43899,2020-11-12_13h29.54.903,lingCatScenes,2020.1.3,MacIntel,60,"[1440,900]",,,"[""trial_ahead_box""]",,,,,,,,,,,,ATM4.jpg,space,0.81185,[-0.016119791666666668],[-0.30032118055555557],[1],[0],[0],[0.462400000076741],"[""trial_ahead_box""]",0,93,93,10,1,backstage2.jpg,barbershop3.jpg,ballroom4.jpg,basketballcourt3.jpg,,
Image_List_5,,,,,,,,,,,,,,,,43899,2020-11-12_13h29.54.903,lingCatScenes,2020.1.3,MacIntel,60,"[1440,900]",,,"[""trial_ahead_box"",""trial_slight_left_box""]",,,,,,,,,,,,tvstudio3.jpg,space,2.49801,"[-0.016119791666666668,-0.19388020833333333]","[-0.30032118055555557,-0.3046527777777778]","[1,1]","[0,0]","[0,0]","[0.46182999992743134,2.1948949999641627]","[""trial_ahead_box"",""trial_slight_left_box""]",0,94,94,95,1,waitingroom2.jpg,warehouse2.jpg,stripmall6.jpg,weightroom4.jpg,,
Image_List_5,,,,,,,,,,,,,,,,43899,2020-11-12_13h29.54.903,lingCatScenes,2020.1.3,MacIntel,60,"[1440,900]",,,"[""trial_ahead_box""]",,,,,,,,,,,,citystreet9.jpg,space,1.032115,[-0.014309895833333334],[-0.3018880208333333],[1],[0],[0],[0.7798000000184402],"[""trial_ahead_box""]",0,95,95,37,1,dining_car.jpg,driveway4.jpg,dinosaur4.jpg,driveway7.jpg,,
Image_List_5,,,,,,,,,,,,,,,,43899,2020-11-12_13h29.54.903,lingCatScenes,2020.1.3,MacIntel,60,"[1440,900]",,,"[""trial_ahead_box""]",,,,,,,,,,,,alley3.jpg,space,0.914635,[-0.014309895833333334],[-0.3032855902777778],[1],[0],[0],[0.6464700000360608],"[""trial_ahead_box""]",0,96,96,3,1,apartmentBuilding2.jpg,attic1.jpg,aquarium1.jpg,appleorchard2.jpg,,
Image_List_5,,,,,,,,,,,,,,,,43899,2020-11-12_13h29.54.903,lingCatScenes,2020.1.3,MacIntel,60,"[1440,900]",,,"[""trial_ahead_box"",""trial_slight_right_box"",""trial_slight_left_box""]",,,,,,,,,,,,RVinside2.jpg,space,4.196525,"[-0.014309895833333334,0.2191362847222222,-0.19209201388888889]","[-0.3032855902777778,-0.3067751736111111,-0.28651475694444445]","[1,1,1]","[0,0,0]","[0,0,0]","[0.6957050000783056,3.0283900001086295,3.945420000003651]","[""trial_ahead_box"",""trial_slight_right_box"",""trial_slight_left_box""]",0,97,97,87,1,restaurantkitchen2.jpg,theater2.jpg,savanna.jpg,sculpturegarden2.jpg,,
Image_List_5,,,,,,,,,,,,,,,,43899,2020-11-12_13h29.54.903,lingCatScenes,2020.1.3,MacIntel,60,"[1440,900]",,,"[""trial_ahead_box""]",,,,,,,,,,,,airplanecabin3.jpg,space,1.09454,[-0.014678819444444444],[-0.32282118055555553],[1],[0],[0],[0.8291600000811741],"[""trial_ahead_box""]",0,98,98,0,1,airplanecabin1.jpg,alley2.jpg,appleorchard4.jpg,airplanecabin5.jpg,,
Image_List_5,,,,,,,,,,,,,,,,43899,2020-11-12_13h29.54.903,lingCatScenes,2020.1.3,MacIntel,60,"[1440,900]",,,"[""trial_ahead_box""]",,,,,,,,,,,,frontLawn2.jpg,space,1.39486,[-0.014939236111111111],[-0.32282118055555553],[1],[0],[0],[0.5125499999849126],"[""trial_ahead_box""]",0,99,99,55,1,greenmountains.jpg,hotelRoom3.jpg,gazebo5.jpg,hotelRoom7.jpg,,
Image_List_5,,,,,,,,,,,,,,,,43899,2020-11-12_13h29.54.903,lingCatScenes,2020.1.3,MacIntel,60,,,,,,,,,,,,,,,,,,,,,,,,,,,,,,,,,,,space,22.728605
