image_list,key_resp_intructions.keys,key_resp_intructions.rt,key_resp_intructions_3.keys,key_resp_intructions_3.rt,PracticeComplete_2.keys,PracticeComplete_2.rt,PracticeComplete_3.keys,PracticeComplete_3.rt,demo_trials.thisRepN,demo_trials.thisTrialN,demo_trials.thisN,demo_trials.thisIndex,demo_trials.ran,demo_images,path_images,participant,date,expName,psychopyVersion,OS,frameRate,windowSize,drawing,numDrawings,drawingSizes,practice_complete.keys,practice_complete.rt,PracticeComplete.keys,PracticeComplete.rt,practice_trials.thisRepN,practice_trials.thisTrialN,practice_trials.thisN,practice_trials.thisIndex,practice_trials.ran,practice_images,feedback_images,key_resp_intructions_2.keys,key_resp_intructions_2.rt,Image_List_1,trial_complete.keys,trial_complete.rt,trials.thisRepN,trials.thisTrialN,trials.thisN,trials.thisIndex,trials.ran,Image_List_2,Image_List_3,Image_List_4,Image_List_5,key_resp.keys,key_resp.rt
Image_List_1,space,8.61179,space,0.946675,space,6.151105,space,4.499625,0,0,0,4,1,left.jpg,left_path.jpg,43907,2020-11-11_16h57.23.084,analogCatScenes,2020.1.3,MacIntel,60,,,,,,,,,,,,,,,,,,,,,,,,,,,,,,,
Image_List_1,,,,,space,0.211445,space,1.822755,0,1,1,1,1,ahead_left.jpg,ahead_left_path.jpg,43907,2020-11-11_16h57.23.084,analogCatScenes,2020.1.3,MacIntel,60,,,,,,,,,,,,,,,,,,,,,,,,,,,,,,,
Image_List_1,,,,,space,0.647245,space,1.078255,0,2,2,5,1,right.jpg,right_path.jpg,43907,2020-11-11_16h57.23.084,analogCatScenes,2020.1.3,MacIntel,60,,,,,,,,,,,,,,,,,,,,,,,,,,,,,,,
Image_List_1,,,,,space,0.575275,space,4.476825,0,3,3,3,1,ahead_right_left.jpg,ahead_right_left_path.jpg,43907,2020-11-11_16h57.23.084,analogCatScenes,2020.1.3,MacIntel,60,,,,,,,,,,,,,,,,,,,,,,,,,,,,,,,
Image_List_1,,,,,space,1.076825,space,0.779315,0,4,4,6,1,right_left.jpg,right_left_path.jpg,43907,2020-11-11_16h57.23.084,analogCatScenes,2020.1.3,MacIntel,60,,,,,,,,,,,,,,,,,,,,,,,,,,,,,,,
Image_List_1,,,,,space,1.13036,space,1.86549,0,5,5,2,1,ahead_right.jpg,ahead_right_path.jpg,43907,2020-11-11_16h57.23.084,analogCatScenes,2020.1.3,MacIntel,60,,,,,,,,,,,,,,,,,,,,,,,,,,,,,,,
Image_List_1,,,,,space,0.70202,space,0.502395,0,6,6,0,1,ahead.jpg,ahead_path.jpg,43907,2020-11-11_16h57.23.084,analogCatScenes,2020.1.3,MacIntel,60,,,,,,,,,,,,,,,,,,,,,,,,,,,,,,,
Image_List_1,,,,,,,,,,,,,,,,43907,2020-11-11_16h57.23.084,analogCatScenes,2020.1.3,MacIntel,60,"[1440,900]",[],0,[],space,2.25892,space,0.635605,0,0,0,4,1,left_2.jpg,left_2_path.jpg,,,,,,,,,,,,,,,,
Image_List_1,,,,,,,,,,,,,,,,43907,2020-11-11_16h57.23.084,analogCatScenes,2020.1.3,MacIntel,60,"[1440,900]",[],0,[],space,0.66161,space,1.37669,0,1,1,6,1,right_left_2.jpg,right_left_2_path.jpg,,,,,,,,,,,,,,,,
Image_List_1,,,,,,,,,,,,,,,,43907,2020-11-11_16h57.23.084,analogCatScenes,2020.1.3,MacIntel,60,"[1440,900]",[],0,[],space,0.489215,space,0.55854,0,2,2,1,1,ahead_left_2.jpg,ahead_left_2_path.jpg,,,,,,,,,,,,,,,,
Image_List_1,,,,,,,,,,,,,,,,43907,2020-11-11_16h57.23.084,analogCatScenes,2020.1.3,MacIntel,60,"[1440,900]",[],0,[],space,0.55255,space,0.50692,0,3,3,0,1,ahead_2.jpg,ahead_2_path.jpg,,,,,,,,,,,,,,,,
Image_List_1,,,,,,,,,,,,,,,,43907,2020-11-11_16h57.23.084,analogCatScenes,2020.1.3,MacIntel,60,"[1440,900]",[],0,[],space,0.43646,space,0.647875,0,4,4,2,1,ahead_right_2.jpg,ahead_right_2_path.jpg,,,,,,,,,,,,,,,,
Image_List_1,,,,,,,,,,,,,,,,43907,2020-11-11_16h57.23.084,analogCatScenes,2020.1.3,MacIntel,60,"[1440,900]",[],0,[],space,0.436515,space,0.968545,0,5,5,5,1,right_2.jpg,right_2_path.jpg,,,,,,,,,,,,,,,,
Image_List_1,,,,,,,,,,,,,,,,43907,2020-11-11_16h57.23.084,analogCatScenes,2020.1.3,MacIntel,60,"[1440,900]",[],0,[],space,0.544245,space,0.44956,0,6,6,3,1,ahead_right_left_2.jpg,ahead_right_left_2_path.jpg,,,,,,,,,,,,,,,,
Image_List_1,,,,,,,,,,,,,,,,43907,2020-11-11_16h57.23.084,analogCatScenes,2020.1.3,MacIntel,60,"[1440,900]",[],0,[],,,,,,,,,,,,space,3.502705,homegarden7.jpg,space,0.733655,0,0,0,59,1,library_aisle8.jpg,highway4.jpg,kindergarten_classroom5.jpg,grocerystore3.jpg,,
Image_List_1,,,,,,,,,,,,,,,,43907,2020-11-11_16h57.23.084,analogCatScenes,2020.1.3,MacIntel,60,"[1440,900]",[],0,[],,,,,,,,,,,,,,frontLawn4.jpg,space,0.541805,0,1,1,50,1,grocerystore6.jpg,forestpath6.jpg,hallway2.jpg,fireplace4.jpg,,
Image_List_1,,,,,,,,,,,,,,,,43907,2020-11-11_16h57.23.084,analogCatScenes,2020.1.3,MacIntel,60,"[1440,900]","[[[-0.0015190972222222222,-0.20635850694444444],[-0.0015190972222222222,-0.20635850694444444],[-0.0015190972222222222,-0.20635850694444444],[-0.0015190972222222222,-0.20635850694444444],[-0.0015190972222222222,-0.20635850694444444],[-0.0015190972222222222,-0.20635850694444444]],[[-0.0015190972222222222,-0.20635850694444444],[-0.0015190972222222222,-0.20635850694444444],[-0.0015190972222222222,-0.20635850694444444],[-0.0015190972222222222,-0.20635850694444444],[-0.0015190972222222222,-0.20635850694444444],[-0.0015190972222222222,-0.20635850694444444],[-0.0015190972222222222,-0.20635850694444444]]]",2,"[6,7]",,,,,,,,,,,,,,newsstand2.jpg,space,4.112745,0,2,2,74,1,playground10.jpg,observatory4.jpeg,operatingroom1.jpg,lightingstore2.jpg,,
Image_List_1,,,,,,,,,,,,,,,,43907,2020-11-11_16h57.23.084,analogCatScenes,2020.1.3,MacIntel,60,"[1440,900]","[[[-0.0015190972222222222,-0.20635850694444444],[-0.0015190972222222222,-0.20635850694444444],[-0.0015190972222222222,-0.20635850694444444],[-0.0015190972222222222,-0.20635850694444444],[-0.0015190972222222222,-0.20635850694444444],[-0.0015190972222222222,-0.20635850694444444]],[[0.0007421875,-0.1913671875],[0.0007421875,-0.1913671875],[0.0007421875,-0.1913671875],[0.0007421875,-0.1913671875],[0.0007421875,-0.1913671875],[0.0007421875,-0.1913671875],[0.0007421875,-0.1913671875]],[[0.00234375,-0.20039496527777778],[0.00234375,-0.20039496527777778],[0.00234375,-0.20039496527777778],[0.00234375,-0.20039496527777778],[0.00234375,-0.20039496527777778],[0.00234375,-0.20039496527777778],[0.00234375,-0.20039496527777778],[0.00234375,-0.20039496527777778],[0.00234375,-0.20039496527777778],[0.00234375,-0.20039496527777778],[0.00234375,-0.20039496527777778],[0.00234375,-0.20039496527777778],[0.00234375,-0.20039496527777778],[0.00234375,-0.20039496527777778],[0.00234375,-0.20039496527777778],[0.00234375,-0.20039496527777778],[0.00234375,-0.20039496527777778],[0.00234375,-0.20039496527777778],[0.00234375,-0.20039496527777778],[0.00234375,-0.20039496527777778],[0.00234375,-0.20039496527777778],[0.00234375,-0.20039496527777778],[0.00234375,-0.20039496527777778]],[[0.00234375,-0.20039496527777778],[0.00234375,-0.20039496527777778],[0.00234375,-0.20039496527777778],[0.00234375,-0.20039496527777778],[0.00234375,-0.20039496527777778],[0.00234375,-0.20039496527777778],[0.00234375,-0.20039496527777778],[0.00234375,-0.20039496527777778]]]",4,"[6,7,23,8]",,,,,,,,,,,,,,weightroom5.jpg,space,6.52556,0,3,3,98,1,wineVineyard8.jpg,warehouse3.jpg,winebarrel4.jpg,winebarrel2.jpg,,
Image_List_1,,,,,,,,,,,,,,,,43907,2020-11-11_16h57.23.084,analogCatScenes,2020.1.3,MacIntel,60,"[1440,900]",[],0,[],,,,,,,,,,,,,,attic2.jpg,space,0.35964,0,4,4,7,1,banquetHall4.jpg,backstage1.jpg,baggageClaim3.jpg,applestore2.jpg,,
Image_List_1,,,,,,,,,,,,,,,,43907,2020-11-11_16h57.23.084,analogCatScenes,2020.1.3,MacIntel,60,"[1440,900]",[],0,[],,,,,,,,,,,,,,metroInside2.jpg,space,0.39651,0,5,5,71,1,pavilion5.jpg,metroInside3.jpg,museum3.jpg,jewelrystore.jpg,,
Image_List_1,,,,,,,,,,,,,,,,43907,2020-11-11_16h57.23.084,analogCatScenes,2020.1.3,MacIntel,60,"[1440,900]",[],0,[],,,,,,,,,,,,,,greenmountains.jpg,space,0.295605,0,6,6,55,1,hotelRoom3.jpg,gazebo5.jpg,hotelRoom7.jpg,frontLawn2.jpg,,
Image_List_1,,,,,,,,,,,,,,,,43907,2020-11-11_16h57.23.084,analogCatScenes,2020.1.3,MacIntel,60,"[1440,900]",[],0,[],,,,,,,,,,,,,,attic3.jpg,space,0.277045,0,7,7,8,1,banquetHall6.jpg,balconyIN.jpg,bar.jpg,applestore4.jpg,,
Image_List_1,,,,,,,,,,,,,,,,43907,2020-11-11_16h57.23.084,analogCatScenes,2020.1.3,MacIntel,60,"[1440,900]",[],0,[],,,,,,,,,,,,,,hometheater2.jpg,space,0.22797,0,8,8,60,1,lightingstore3.jpg,homegarage.jpg,kindergarten_classroom6.jpg,hallway.jpg,,
Image_List_1,,,,,,,,,,,,,,,,43907,2020-11-11_16h57.23.084,analogCatScenes,2020.1.3,MacIntel,60,"[1440,900]",[],0,[],,,,,,,,,,,,,,hut2.jpg,space,0.210335,0,9,9,63,1,museum6.jpg,hotelRoom2.jpg,lab4.jpg,highway2.jpg,,
Image_List_1,,,,,,,,,,,,,,,,43907,2020-11-11_16h57.23.084,analogCatScenes,2020.1.3,MacIntel,60,"[1440,900]",[],0,[],,,,,,,,,,,,,,restaurant14.jpg,space,0.21108,0,10,10,86,1,stripmall.jpg,ruralroad3.jpg,sandDunes_desert_outdoor8.jpg,rooftop4.jpg,,
Image_List_1,,,,,,,,,,,,,,,,43907,2020-11-11_16h57.23.084,analogCatScenes,2020.1.3,MacIntel,60,"[1440,900]",[],0,[],,,,,,,,,,,,,,museum5.jpg,space,0.177935,0,11,11,72,1,pharmacy4.jpg,musicStore1.jpg,museum4.jpg,kindergarten_classroom.jpg,,
Image_List_1,,,,,,,,,,,,,,,,43907,2020-11-11_16h57.23.084,analogCatScenes,2020.1.3,MacIntel,60,"[1440,900]",[],0,[],,,,,,,,,,,,,,recordingstudio4.jpg,space,0.16117,0,12,12,85,1,sidewalk5.jpg,ruralroad2.jpg,sandDunes_desert_outdoor3.jpg,rooftop3.jpg,,
Image_List_1,,,,,,,,,,,,,,,,43907,2020-11-11_16h57.23.084,analogCatScenes,2020.1.3,MacIntel,60,"[1440,900]",[],0,[],,,,,,,,,,,,,,fittingroom2.jpg,space,0.149635,0,13,13,45,1,frontFoyer7.jpg,factory1.jpg,forestpath4.jpg,dock4.jpg,,
Image_List_1,,,,,,,,,,,,,,,,43907,2020-11-11_16h57.23.084,analogCatScenes,2020.1.3,MacIntel,60,"[1440,900]",[],0,[],,,,,,,,,,,,,,library_aisle10.jpg,space,0.31306,0,14,14,66,1,office3.jpg,laundromat3.jpg,liquorstore.jpg,horsebarn9.jpg,,
Image_List_1,,,,,,,,,,,,,,,,43907,2020-11-11_16h57.23.084,analogCatScenes,2020.1.3,MacIntel,60,"[1440,900]",[],0,[],,,,,,,,,,,,,,parkinggarage.jpg,space,0.16054,0,15,15,76,1,playroom4.jpg,parkinggarage3.jpg,park2.jpg,lookout4.jpg,,
Image_List_1,,,,,,,,,,,,,,,,43907,2020-11-11_16h57.23.084,analogCatScenes,2020.1.3,MacIntel,60,"[1440,900]",[],0,[],,,,,,,,,,,,,,frontDoor2.jpg,space,0.161405,0,16,16,48,1,golfcourse6.jpg,fittingroom5.jpg,golfcourse7.jpg,fabricstore2.jpg,,
Image_List_1,,,,,,,,,,,,,,,,43907,2020-11-11_16h57.23.084,analogCatScenes,2020.1.3,MacIntel,60,"[1440,900]",[],0,[],,,,,,,,,,,,,,hayfield5.jpg,space,0.126375,0,17,17,57,1,jail1.jpg,hallway4.jpg,hut5.jpg,gazebo.jpg,,
Image_List_1,,,,,,,,,,,,,,,,43907,2020-11-11_16h57.23.084,analogCatScenes,2020.1.3,MacIntel,60,"[1440,900]",[],0,[],,,,,,,,,,,,,,diner14.jpg,space,0.160375,0,18,18,36,1,dormroom9.jpg,dining_car3.jpg,doctor1.jpg,checkoutcounter9.jpg,,
Image_List_1,,,,,,,,,,,,,,,,43907,2020-11-11_16h57.23.084,analogCatScenes,2020.1.3,MacIntel,60,"[1440,900]",[],0,[],,,,,,,,,,,,,,liquorstore8.jpg,space,0.110225,0,19,19,69,1,parkinglot2.jpg,livingroom.jpg,metroInside1.jpg,icecream2.jpg,,
Image_List_1,,,,,,,,,,,,,,,,43907,2020-11-11_16h57.23.084,analogCatScenes,2020.1.3,MacIntel,60,"[1440,900]",[],0,[],,,,,,,,,,,,,,cubicle4.jpg,space,0.17986,0,20,20,31,1,desertvegetation6.jpg,conference4.jpg,courtroom2.jpg,cabin3.jpg,,
Image_List_1,,,,,,,,,,,,,,,,43907,2020-11-11_16h57.23.084,analogCatScenes,2020.1.3,MacIntel,60,"[1440,900]",[],0,[],,,,,,,,,,,,,,hotellobby2.jpg,space,0.181,0,21,21,62,1,minigolf.jpg,horsebarn8.jpg,lab3.jpg,hayfield7.jpg,,
Image_List_1,,,,,,,,,,,,,,,,43907,2020-11-11_16h57.23.084,analogCatScenes,2020.1.3,MacIntel,60,"[1440,900]",[],0,[],,,,,,,,,,,,,,rooftop1.jpg,space,0.17932,0,22,22,88,1,track.jpg,sculpturegarden4.jpg,soccerfield.jpg,sandbox.jpg,,
Image_List_1,,,,,,,,,,,,,,,,43907,2020-11-11_16h57.23.084,analogCatScenes,2020.1.3,MacIntel,60,"[1440,900]",[],0,[],,,,,,,,,,,,,,HorseRaceTrack.jpg,space,0.17554,0,23,23,61,1,metroInside4.jpg,homegarden6.jpg,kindergarten_classroom7.jpg,hayfield6.jpg,,
Image_List_1,,,,,,,,,,,,,,,,43907,2020-11-11_16h57.23.084,analogCatScenes,2020.1.3,MacIntel,60,"[1440,900]",[],0,[],,,,,,,,,,,,,,airportTerminal4.jpg,space,0.175955,0,24,24,1,1,apartmentBuilding1.jpg,applestore1.jpg,airportTerminal3.jpg,airportTerminal2.jpg,,
Image_List_1,,,,,,,,,,,,,,,,43907,2020-11-11_16h57.23.084,analogCatScenes,2020.1.3,MacIntel,60,"[1440,900]",[],0,[],,,,,,,,,,,,,,campsite.jpg,space,0.16525,0,25,25,24,1,cliff3.jpg,cave6.jpg,cemetery5.jpg,boardwalk.jpg,,
Image_List_1,,,,,,,,,,,,,,,,43907,2020-11-11_16h57.23.084,analogCatScenes,2020.1.3,MacIntel,60,"[1440,900]",[],0,[],,,,,,,,,,,,,,ballroom1.jpg,space,0.1793,0,26,26,14,1,breakroom5.jpg,bistrooutdoor5.jpg,botanicalGarden5.jpg,ballroom3.jpg,,
Image_List_1,,,,,,,,,,,,,,,,43907,2020-11-11_16h57.23.084,analogCatScenes,2020.1.3,MacIntel,60,"[1440,900]",[],0,[],,,,,,,,,,,,,,library_aisle3.jpg,space,0.176675,0,27,27,67,1,park7.jpg,laundromat4.jpg,liquorstore2.jpg,hospitalroom2.jpg,,
Image_List_1,,,,,,,,,,,,,,,,43907,2020-11-11_16h57.23.084,analogCatScenes,2020.1.3,MacIntel,60,"[1440,900]",[],0,[],,,,,,,,,,,,,,gasstation7.jpg,space,0.19466,0,28,28,52,1,hardwarestore1.jpg,frontFoyer6.jpg,highway.jpg,forestpath2.jpg,,
Image_List_1,,,,,,,,,,,,,,,,43907,2020-11-11_16h57.23.084,analogCatScenes,2020.1.3,MacIntel,60,"[1440,900]",[],0,[],,,,,,,,,,,,,,dancestudio6.jpg,space,0.34326,0,29,29,32,1,diner12.jpg,constructionSite2.jpg,dentist4.jpg,cabin4.jpg,,
Image_List_1,,,,,,,,,,,,,,,,43907,2020-11-11_16h57.23.084,analogCatScenes,2020.1.3,MacIntel,60,"[1440,900]",[],0,[],,,,,,,,,,,,,,grocerystore5.jpg,space,0.514715,0,30,30,56,1,hut3.jpg,golfcourse10.jpg,hut1.jpg,gasstation2.jpg,,
Image_List_1,,,,,,,,,,,,,,,,43907,2020-11-11_16h57.23.084,analogCatScenes,2020.1.3,MacIntel,60,"[1440,900]",[],0,[],,,,,,,,,,,,,,pantry5.jpg,space,0.212025,0,31,31,75,1,playground6.jpg,operatingroom4.jpg,park.jpg,lockerroom.jpg,,
Image_List_1,,,,,,,,,,,,,,,,43907,2020-11-11_16h57.23.084,analogCatScenes,2020.1.3,MacIntel,60,"[1440,900]",[],0,[],,,,,,,,,,,,,,pasture.jpg,space,0.197925,0,32,32,79,1,poolhall2.jpeg,playground9.jpg,pier2.jpg,observatory2.jpg,,
Image_List_1,,,,,,,,,,,,,,,,43907,2020-11-11_16h57.23.084,analogCatScenes,2020.1.3,MacIntel,60,"[1440,900]",[],0,[],,,,,,,,,,,,,,tollbooth8.jpg,space,0.832985,0,33,33,93,1,volleyballcourt4.jpg,staircase4.jpg,warehouseoutside2.jpg,tenniscourt.jpg,,
Image_List_1,,,,,,,,,,,,,,,,43907,2020-11-11_16h57.23.084,analogCatScenes,2020.1.3,MacIntel,60,"[1440,900]",[],0,[],,,,,,,,,,,,,,churchInside1.jpg,space,0.71212,0,34,34,28,1,dancestudio5.jpg,citystreet10.jpg,clothingstore5.jpg,bridalboutique2.jpg,,
Image_List_1,,,,,,,,,,,,,,,,43907,2020-11-11_16h57.23.084,analogCatScenes,2020.1.3,MacIntel,60,"[1440,900]",[],0,[],,,,,,,,,,,,,,exerciseequipment5.jpg,space,1.00791,0,35,35,43,1,forestpath10.jpg,dugout2.jpg,foodcourt.jpg,diningroom3.jpg,,
Image_List_1,,,,,,,,,,,,,,,,43907,2020-11-11_16h57.23.084,analogCatScenes,2020.1.3,MacIntel,60,"[1440,900]",[],0,[],,,,,,,,,,,,,,gasstation6.jpg,space,0.797615,0,36,36,51,1,hallway5.jpg,frontDoor5.jpg,hayfield4.jpg,firestation5.jpg,,
Image_List_1,,,,,,,,,,,,,,,,43907,2020-11-11_16h57.23.084,analogCatScenes,2020.1.3,MacIntel,60,"[1440,900]",[],0,[],,,,,,,,,,,,,,frontDoor.jpg,space,0.29526,0,37,37,47,1,gasstation8.jpg,firestation4.jpg,fountain7.jpg,elevatorOutside2.jpg,,
Image_List_1,,,,,,,,,,,,,,,,43907,2020-11-11_16h57.23.084,analogCatScenes,2020.1.3,MacIntel,60,"[1440,900]",[],0,[],,,,,,,,,,,,,,artStudio1.jpg,space,0.197925,0,38,38,4,1,baggageClaim2.jpg,auto_showroom1.jpg,appleorchard3.jpg,alley4.jpg,,
Image_List_1,,,,,,,,,,,,,,,,43907,2020-11-11_16h57.23.084,analogCatScenes,2020.1.3,MacIntel,60,"[1440,900]",[],0,[],,,,,,,,,,,,,,dugout4.jpg,space,0.2122,0,39,39,41,1,farm3.jpg,drymountains3.jpg,fabricstore1.jpg,dentist2.jpg,,
Image_List_1,,,,,,,,,,,,,,,,43907,2020-11-11_16h57.23.084,analogCatScenes,2020.1.3,MacIntel,60,"[1440,900]",[],0,[],,,,,,,,,,,,,,savanna5.jpg,space,0.195265,0,40,40,90,1,trainStation1.jpg,sidewalk1.jpg,stripmall3.jpg,shoestore4.jpg,,
Image_List_1,,,,,,,,,,,,,,,,43907,2020-11-11_16h57.23.084,analogCatScenes,2020.1.3,MacIntel,60,"[1440,900]",[],0,[],,,,,,,,,,,,,,boardwalk2.jpg,space,0.579625,0,41,41,19,1,casino3.jpg,cafeteria1.jpg,castle4.jpg,basketballcourt.jpg,,
Image_List_1,,,,,,,,,,,,,,,,43907,2020-11-11_16h57.23.084,analogCatScenes,2020.1.3,MacIntel,60,"[1440,900]",[],0,[],,,,,,,,,,,,,,deck5.jpg,space,0.542925,0,42,42,35,1,dock3.jpg,cubicle7.jpg,dining_car6.jpg,carmechanic2.jpg,,
Image_List_1,,,,,,,,,,,,,,,,43907,2020-11-11_16h57.23.084,analogCatScenes,2020.1.3,MacIntel,60,"[1440,900]",[],0,[],,,,,,,,,,,,,,airplanecabin1.jpg,space,0.29399,0,43,43,0,1,alley2.jpg,appleorchard4.jpg,airplanecabin5.jpg,airplanecabin3.jpg,,
Image_List_1,,,,,,,,,,,,,,,,43907,2020-11-11_16h57.23.084,analogCatScenes,2020.1.3,MacIntel,60,"[1440,900]",[],0,[],,,,,,,,,,,,,,alley1.jpg,space,0.208915,0,44,44,2,1,arcade1.jpg,applestore6.jpg,apartmentBuilding4.jpg,airportTerminal6.jpg,,
Image_List_1,,,,,,,,,,,,,,,,43907,2020-11-11_16h57.23.084,analogCatScenes,2020.1.3,MacIntel,60,"[1440,900]",[],0,[],,,,,,,,,,,,,,gazebo3.jpg,space,0.39274,0,45,45,53,1,homeoffice.jpg,frontLawn3.jpg,homegarage3.jpg,fountain.jpg,,
Image_List_1,,,,,,,,,,,,,,,,43907,2020-11-11_16h57.23.084,analogCatScenes,2020.1.3,MacIntel,60,"[1440,900]",[],0,[],,,,,,,,,,,,,,apartmentBuilding2.jpg,space,0.190505,0,46,46,3,1,attic1.jpg,aquarium1.jpg,appleorchard2.jpg,alley3.jpg,,
Image_List_1,,,,,,,,,,,,,,,,43907,2020-11-11_16h57.23.084,analogCatScenes,2020.1.3,MacIntel,60,"[1440,900]",[],0,[],,,,,,,,,,,,,,ATM1.jpg,space,0.195015,0,47,47,6,1,banquetHall2.jpg,auto_showroom5.jpg,baggageClaim1.jpg,apartmentBuilding3.jpg,,
Image_List_1,,,,,,,,,,,,,,,,43907,2020-11-11_16h57.23.084,analogCatScenes,2020.1.3,MacIntel,60,"[1440,900]",[],0,[],,,,,,,,,,,,,,igloo5.jpg,space,0.20113,0,48,48,65,1,newsstand7.jpg,laundromat2.jpeg,labClass7.jpg,homeoffice8.jpg,,
Image_List_1,,,,,,,,,,,,,,,,43907,2020-11-11_16h57.23.084,analogCatScenes,2020.1.3,MacIntel,60,"[1440,900]",[],0,[],,,,,,,,,,,,,,wineVineyard9.jpg,space,0.199295,0,49,49,99,1,yogastudio4.jpg,windmill2.jpg,wrestlingring7.jpg,yogastudio1.jpg,,
Image_List_1,,,,,,,,,,,,,,,,43907,2020-11-11_16h57.23.084,analogCatScenes,2020.1.3,MacIntel,60,"[1440,900]",[],0,[],,,,,,,,,,,,,,deck1.jpg,space,0.445355,0,50,50,33,1,diningroom1.jpg,courthouse2.jpg,diner10.jpg,cabinIndoors5.jpg,,
Image_List_1,,,,,,,,,,,,,,,,43907,2020-11-11_16h57.23.084,analogCatScenes,2020.1.3,MacIntel,60,"[1440,900]",[],0,[],,,,,,,,,,,,,,treehouse.jpg,space,0.21363,0,51,51,94,1,waitingroom3.jpg,staircase6.jpg,weightroom.jpg,trainStation3.jpg,,
Image_List_1,,,,,,,,,,,,,,,,43907,2020-11-11_16h57.23.084,analogCatScenes,2020.1.3,MacIntel,60,"[1440,900]",[],0,[],,,,,,,,,,,,,,frontDoor3.jpg,space,0.21303,0,52,52,49,1,greenhouse5.jpg,flowershop3.jpg,greenhouse.jpg,farm2.jpg,,
Image_List_1,,,,,,,,,,,,,,,,43907,2020-11-11_16h57.23.084,analogCatScenes,2020.1.3,MacIntel,60,"[1440,900]",[],0,[],,,,,,,,,,,,,,igloo2.jpg,space,0.207915,0,53,53,64,1,newsstand5.jpg,jewelrystore8.jpg,lab5.jpg,homegarage2.jpg,,
Image_List_1,,,,,,,,,,,,,,,,43907,2020-11-11_16h57.23.084,analogCatScenes,2020.1.3,MacIntel,60,"[1440,900]",[],0,[],,,,,,,,,,,,,,artStudio3.jpg,space,0.39187,0,54,54,5,1,bambooforest.jpg,auto_showroom4.jpg,attic4.jpg,amusement3.jpg,,
Image_List_1,,,,,,,,,,,,,,,,43907,2020-11-11_16h57.23.084,analogCatScenes,2020.1.3,MacIntel,60,"[1440,900]",[],0,[],,,,,,,,,,,,,,cornfield2.jpg,space,0.22883,0,55,55,29,1,deck2.jpg,cliff2.jpg,constructionSite4.jpg,bridalboutique3.jpg,,
Image_List_1,,,,,,,,,,,,,,,,43907,2020-11-11_16h57.23.084,analogCatScenes,2020.1.3,MacIntel,60,"[1440,900]",[],0,[],,,,,,,,,,,,,,shoestore2.jpg,space,0.218785,0,56,56,91,1,trainStation5.jpg,skatepark5.jpg,ticket_counter6.jpg,sidewalk3.jpg,,
Image_List_1,,,,,,,,,,,,,,,,43907,2020-11-11_16h57.23.084,analogCatScenes,2020.1.3,MacIntel,60,"[1440,900]",[],0,[],,,,,,,,,,,,,,bikerack1.jpg,space,0.23055,0,57,57,17,1,campsite6.jpg,breakroom4.jpg,carmechanic.jpg,baseball6.jpg,,
Image_List_1,,,,,,,,,,,,,,,,43907,2020-11-11_16h57.23.084,analogCatScenes,2020.1.3,MacIntel,60,"[1440,900]",[],0,[],,,,,,,,,,,,,,deck4.jpg,space,0.21586,0,58,58,34,1,diningroom5.jpg,courthouse4.jpg,diner11.jpg,campusquad1.jpg,,
Image_List_1,,,,,,,,,,,,,,,,43907,2020-11-11_16h57.23.084,analogCatScenes,2020.1.3,MacIntel,60,"[1440,900]",[],0,[],,,,,,,,,,,,,,ruralroad7.jpg,space,0.496325,0,59,59,89,1,track5.jpg,ShowJumping7.jpg,staircase7.jpg,sculpturegarden3.jpg,,
Image_List_1,,,,,,,,,,,,,,,,43907,2020-11-11_16h57.23.084,analogCatScenes,2020.1.3,MacIntel,60,"[1440,900]",[],0,[],,,,,,,,,,,,,,warehouseoutside4.jpg,space,0.182625,0,60,60,97,1,wineVineyard2.jpg,waitingroom4.jpg,winebarrel3.jpg,warehouseoutside3.jpg,,
Image_List_1,,,,,,,,,,,,,,,,43907,2020-11-11_16h57.23.084,analogCatScenes,2020.1.3,MacIntel,60,"[1440,900]",[],0,[],,,,,,,,,,,,,,auto_showroom3.jpg,space,4.645265,0,61,61,9,1,bar2.jpg,ballroom2.jpg,basement5.jpg,arcade2.jpg,,
Image_List_1,,,,,,,,,,,,,,,,43907,2020-11-11_16h57.23.084,analogCatScenes,2020.1.3,MacIntel,60,"[1440,900]",[],0,[],,,,,,,,,,,,,,publicrestroom2.jpg,space,0.263505,0,62,62,82,1,sandDunes_desert_outdoor9.jpg,promenadeDeck3.jpg,readingroom4.jpg,postoffice4.jpg,,
Image_List_1,,,,,,,,,,,,,,,,43907,2020-11-11_16h57.23.084,analogCatScenes,2020.1.3,MacIntel,60,"[1440,900]",[],0,[],,,,,,,,,,,,,,baggageClaim4.jpg,space,0.19313,0,63,63,12,1,bedroom6.jpg,bambooforest5.jpg,bleachers7.jpg,backyard5.jpg,,
Image_List_1,,,,,,,,,,,,,,,,43907,2020-11-11_16h57.23.084,analogCatScenes,2020.1.3,MacIntel,60,"[1440,900]",[],0,[],,,,,,,,,,,,,,bowlingalley5.jpg,space,0.177765,0,64,64,22,1,church6.jpg,cargo5.jpg,cemetery.jpg,bistrooutdoor6.jpg,,
Image_List_1,,,,,,,,,,,,,,,,43907,2020-11-11_16h57.23.084,analogCatScenes,2020.1.3,MacIntel,60,"[1440,900]",[],0,[],,,,,,,,,,,,,,readingroom5.jpg,space,0.162405,0,65,65,84,1,sidewalk2.jpg,restaurant13.jpg,sandDunes_desert_outdoor.jpg,rooftop2.jpg,,
Image_List_1,,,,,,,,,,,,,,,,43907,2020-11-11_16h57.23.084,analogCatScenes,2020.1.3,MacIntel,60,"[1440,900]",[],0,[],,,,,,,,,,,,,,flowershop.jpg,space,0.16358,0,66,66,46,1,frontLawn5.jpg,farmersmarket4.jpg,fountain4.jpg,dormroom6.jpg,,
Image_List_1,,,,,,,,,,,,,,,,43907,2020-11-11_16h57.23.084,analogCatScenes,2020.1.3,MacIntel,60,"[1440,900]",[],0,[],,,,,,,,,,,,,,readingroom1.jpg,space,0.178775,0,67,67,83,1,sculpturegarden1.jpg,promenadeDeck6.jpg,restaurant8.jpg,readingroom2.jpg,,
Image_List_1,,,,,,,,,,,,,,,,43907,2020-11-11_16h57.23.084,analogCatScenes,2020.1.3,MacIntel,60,"[1440,900]",[],0,[],,,,,,,,,,,,,,campsite7.jpg,space,0.15985,0,68,68,25,1,conference3.jpg,church3.jpg,checkoutcounter2.jpg,botanicalGarden4.jpg,,
Image_List_1,,,,,,,,,,,,,,,,43907,2020-11-11_16h57.23.084,analogCatScenes,2020.1.3,MacIntel,60,"[1440,900]",[],0,[],,,,,,,,,,,,,,staircase.jpg,space,0.19374,0,69,69,92,1,volleyballcourt.jpg,skatepark7.jpg,tvstudio2.jpg,soccerfield2.jpg,,
Image_List_1,,,,,,,,,,,,,,,,43907,2020-11-11_16h57.23.084,analogCatScenes,2020.1.3,MacIntel,60,"[1440,900]",[],0,[],,,,,,,,,,,,,,campusquad2.jpg,space,0.3262,0,70,70,26,1,cornfield4.jpg,church4.jpg,churchInside3.jpg,botanicalGarden7.jpg,,
Image_List_1,,,,,,,,,,,,,,,,43907,2020-11-11_16h57.23.084,analogCatScenes,2020.1.3,MacIntel,60,"[1440,900]",[],0,[],,,,,,,,,,,,,,bleachers5.jpg,space,0.17843,0,71,71,18,1,casino1.jpg,brewery4.jpg,castle2.jpg,basement6.jpg,,
Image_List_1,,,,,,,,,,,,,,,,43907,2020-11-11_16h57.23.084,analogCatScenes,2020.1.3,MacIntel,60,"[1440,900]",[],0,[],,,,,,,,,,,,,,liquorstore7.jpg,space,0.16354,0,72,72,68,1,parkinglot.jpg,lightingstore4.jpg,lockerroom2.jpg,hospitalroom3.jpg,,
Image_List_1,,,,,,,,,,,,,,,,43907,2020-11-11_16h57.23.084,analogCatScenes,2020.1.3,MacIntel,60,"[1440,900]",[],0,[],,,,,,,,,,,,,,bus_shelter.jpg,space,0.1655,0,73,73,23,1,church8.jpg,carmechanic4.jpeg,cemetery3.jpg,bleachers6.jpg,,
Image_List_1,,,,,,,,,,,,,,,,43907,2020-11-11_16h57.23.084,analogCatScenes,2020.1.3,MacIntel,60,"[1440,900]",[],0,[],,,,,,,,,,,,,,musicStore3.jpg,space,0.177995,0,74,74,73,1,photographer_studio2.jpg,nursery.jpg,nursery4.jpg,library_aisle9.jpg,,
Image_List_1,,,,,,,,,,,,,,,,43907,2020-11-11_16h57.23.084,analogCatScenes,2020.1.3,MacIntel,60,"[1440,900]",[],0,[],,,,,,,,,,,,,,dining_car.jpg,space,0.14383,0,75,75,37,1,driveway4.jpg,dinosaur4.jpg,driveway7.jpg,citystreet9.jpg,,
Image_List_1,,,,,,,,,,,,,,,,43907,2020-11-11_16h57.23.084,analogCatScenes,2020.1.3,MacIntel,60,"[1440,900]",[],0,[],,,,,,,,,,,,,,botanicalGarden6.jpg,space,0.14365,0,76,76,21,1,cemetery6.jpg,campusquad3.jpg,cave5.jpg,beach1.jpeg,,
Image_List_1,,,,,,,,,,,,,,,,43907,2020-11-11_16h57.23.084,analogCatScenes,2020.1.3,MacIntel,60,"[1440,900]",[],0,[],,,,,,,,,,,,,,waitingroom2.jpg,space,0.15954,0,77,77,95,1,warehouse2.jpg,stripmall6.jpg,weightroom4.jpg,tvstudio3.jpg,,
Image_List_1,,,,,,,,,,,,,,,,43907,2020-11-11_16h57.23.084,analogCatScenes,2020.1.3,MacIntel,60,"[1440,900]",[],0,[],,,,,,,,,,,,,,firestation2.jpg,space,0.13584,0,78,78,44,1,frontFoyer4.jpg,elevatorOutside1.jpg,foodcourt6.jpg,dock2.jpg,,
Image_List_1,,,,,,,,,,,,,,,,43907,2020-11-11_16h57.23.084,analogCatScenes,2020.1.3,MacIntel,60,"[1440,900]",[],0,[],,,,,,,,,,,,,,basement.jpg,space,0.162275,0,79,79,16,1,cafeteria6.jpg,breakroom2.jpg,campusquad4.jpg,barbershop2.jpg,,
Image_List_1,,,,,,,,,,,,,,,,43907,2020-11-11_16h57.23.084,analogCatScenes,2020.1.3,MacIntel,60,"[1440,900]",[],0,[],,,,,,,,,,,,,,warehouse4.jpg,space,0.160305,0,80,80,96,1,warehouseoutside1.jpg,tenniscourt3.jpg,windmill1.jpg,warehouse1.jpg,,
Image_List_1,,,,,,,,,,,,,,,,43907,2020-11-11_16h57.23.084,analogCatScenes,2020.1.3,MacIntel,60,"[1440,900]",[],0,[],,,,,,,,,,,,,,dining_car2.jpg,space,0.15855,0,81,81,38,1,elevatorOutside4.jpg,dock1.jpg,driveway8.jpg,classroom1.jpg,,
Image_List_1,,,,,,,,,,,,,,,,43907,2020-11-11_16h57.23.084,analogCatScenes,2020.1.3,MacIntel,60,"[1440,900]",[],0,[],,,,,,,,,,,,,,boardwalk6.jpg,space,0.143615,0,82,82,20,1,cave.jpg,campsite3.jpg,cave4.jpg,basketballcourt7.jpg,,
Image_List_1,,,,,,,,,,,,,,,,43907,2020-11-11_16h57.23.084,analogCatScenes,2020.1.3,MacIntel,60,"[1440,900]",[],0,[],,,,,,,,,,,,,,promenadeDeck.jpg,space,0.177995,0,83,83,81,1,ruralroad5.jpg,promenadeDeck2.jpg,rainforest5.jpg,pasture8.jpg,,
Image_List_1,,,,,,,,,,,,,,,,43907,2020-11-11_16h57.23.084,analogCatScenes,2020.1.3,MacIntel,60,"[1440,900]",[],0,[],,,,,,,,,,,,,,parkinggarage2.jpg,space,0.14829,0,84,84,77,1,playroom6.jpg,pasture9.jpg,park8.jpg,mallindoor6.jpg,,
Image_List_1,,,,,,,,,,,,,,,,43907,2020-11-11_16h57.23.084,analogCatScenes,2020.1.3,MacIntel,60,"[1440,900]",[],0,[],,,,,,,,,,,,,,backstage2.jpg,space,0.152715,0,85,85,10,1,barbershop3.jpg,ballroom4.jpg,basketballcourt3.jpg,ATM4.jpg,,
Image_List_1,,,,,,,,,,,,,,,,43907,2020-11-11_16h57.23.084,analogCatScenes,2020.1.3,MacIntel,60,"[1440,900]",[],0,[],,,,,,,,,,,,,,driveway6.jpg,space,0.17822,0,86,86,39,1,eyeglassstore9.jpg,drycleaners6.jpg,drymountains5.jpg,cliff5.jpg,,
Image_List_1,,,,,,,,,,,,,,,,43907,2020-11-11_16h57.23.084,analogCatScenes,2020.1.3,MacIntel,60,"[1440,900]",[],0,[],,,,,,,,,,,,,,lockerroom4.jpg,space,0.1463,0,87,87,70,1,pavilion.jpg,lockerroom3.jpg,minigolf8.jpg,igloo.jpg,,
Image_List_1,,,,,,,,,,,,,,,,43907,2020-11-11_16h57.23.084,analogCatScenes,2020.1.3,MacIntel,60,"[1440,900]",[],0,[],,,,,,,,,,,,,,restaurantkitchen2.jpg,space,0.176785,0,88,88,87,1,theater2.jpg,savanna.jpg,sculpturegarden2.jpg,RVinside2.jpg,,
Image_List_1,,,,,,,,,,,,,,,,43907,2020-11-11_16h57.23.084,analogCatScenes,2020.1.3,MacIntel,60,"[1440,900]",[],0,[],,,,,,,,,,,,,,pavilion2.jpg,space,0.13207,0,89,89,80,1,racecarcourse2.jpg,porch.jpg,poolhall5.jpg,parkinggarage4.jpg,,
Image_List_1,,,,,,,,,,,,,,,,43907,2020-11-11_16h57.23.084,analogCatScenes,2020.1.3,MacIntel,60,"[1440,900]",[],0,[],,,,,,,,,,,,,,backyard2.jpg,space,0.179075,0,90,90,11,1,basketballcourt4.jpg,bambooforest3.jpg,baywindow5.jpg,backyard1.jpg,,
Image_List_1,,,,,,,,,,,,,,,,43907,2020-11-11_16h57.23.084,analogCatScenes,2020.1.3,MacIntel,60,"[1440,900]",[],0,[],,,,,,,,,,,,,,greenhouse2.jpg,space,0.155725,0,91,91,54,1,horsebarn11.jpg,gazebo2.jpg,homegarage4.jpg,frontFoyer.jpg,,
Image_List_1,,,,,,,,,,,,,,,,43907,2020-11-11_16h57.23.084,analogCatScenes,2020.1.3,MacIntel,60,"[1440,900]",[],0,[],,,,,,,,,,,,,,bambooforest4.jpg,space,0.15914,0,92,92,15,1,cafeteria5.jpg,bleachers8.jpg,cabinIndoors.jpg,bar8.jpg,,
Image_List_1,,,,,,,,,,,,,,,,43907,2020-11-11_16h57.23.084,analogCatScenes,2020.1.3,MacIntel,60,"[1440,900]",[],0,[],,,,,,,,,,,,,,highway7.jpg,space,0.161285,0,93,93,58,1,lab1.jpg,hedgemaze1.jpg,igloo4.jpg,grocerystore2.jpg,,
Image_List_1,,,,,,,,,,,,,,,,43907,2020-11-11_16h57.23.084,analogCatScenes,2020.1.3,MacIntel,60,"[1440,900]",[],0,[],,,,,,,,,,,,,,drycleaners4.jpg,space,0.1615,0,94,94,40,1,farm1.jpg,drymountains.jpg,dugout1.jpg,clothingstore3.jpg,,
Image_List_1,,,,,,,,,,,,,,,,43907,2020-11-11_16h57.23.084,analogCatScenes,2020.1.3,MacIntel,60,"[1440,900]",[],0,[],,,,,,,,,,,,,,balconyIN2.jpg,space,0.149165,0,95,95,13,1,bowlingalley3.jpg,beach2.jpg,boardwalk4.jpg,backyard6.jpg,,
Image_List_1,,,,,,,,,,,,,,,,43907,2020-11-11_16h57.23.084,analogCatScenes,2020.1.3,MacIntel,60,"[1440,900]",[],0,[],,,,,,,,,,,,,,exerciseequipment3.jpg,space,0.166755,0,96,96,42,1,firestation3.jpg,drymountains6.jpg,farm4.jpg,desertvegetation2.jpg,,
Image_List_1,,,,,,,,,,,,,,,,43907,2020-11-11_16h57.23.084,analogCatScenes,2020.1.3,MacIntel,60,"[1440,900]",[],0,[],,,,,,,,,,,,,,courthouse1.jpg,space,0.164985,0,97,97,30,1,desertvegetation3.jpg,clothingstore2.jpg,copyroom2.jpg,bus_shelter3.jpg,,
Image_List_1,,,,,,,,,,,,,,,,43907,2020-11-11_16h57.23.084,analogCatScenes,2020.1.3,MacIntel,60,"[1440,900]",[],0,[],,,,,,,,,,,,,,parkinglot3.jpg,space,0.177415,0,98,98,78,1,poolhall1.jpg,pier5.jpg,pavilion3.jpg,observatory1.jpg,,
Image_List_1,,,,,,,,,,,,,,,,43907,2020-11-11_16h57.23.084,analogCatScenes,2020.1.3,MacIntel,60,"[1440,900]",[],0,[],,,,,,,,,,,,,,castle3.jpg,space,0.144745,0,99,99,27,1,courtroom3.jpg,churchInside4.jpg,closet.jpg,brewery2.jpg,,
Image_List_1,,,,,,,,,,,,,,,,43907,2020-11-11_16h57.23.084,analogCatScenes,2020.1.3,MacIntel,60,,,,,,,,,,,,,,,,,,,,,,,,,,,,,,space,0.194705
