image_list,key_resp_intructions.keys,key_resp_intructions.rt,key_resp_intructions_3.keys,key_resp_intructions_3.rt,PracticeComplete_2.keys,PracticeComplete_2.rt,PracticeComplete_3.keys,PracticeComplete_3.rt,demo_trials.thisRepN,demo_trials.thisTrialN,demo_trials.thisN,demo_trials.thisIndex,demo_trials.ran,demo_images,path_images,participant,date,expName,psychopyVersion,OS,frameRate,windowSize,drawing,numDrawings,drawingSizes,practice_complete.keys,practice_complete.rt,PracticeComplete.keys,PracticeComplete.rt,practice_trials.thisRepN,practice_trials.thisTrialN,practice_trials.thisN,practice_trials.thisIndex,practice_trials.ran,practice_images,feedback_images,key_resp_intructions_2.keys,key_resp_intructions_2.rt,Image_List_2,trial_complete.keys,trial_complete.rt,trials.thisRepN,trials.thisTrialN,trials.thisN,trials.thisIndex,trials.ran,Image_List_1,Image_List_3,Image_List_4,Image_List_5,key_resp.keys,key_resp.rt
Image_List_2,space,52.88373,space,5.147935,space,10.020145,space,3.59337,0,0,0,1,1,ahead_left.jpg,ahead_left_path.jpg,43974,2020-11-19_13h47.33.224,analogCatScenes,2020.1.3,MacIntel,60,,,,,,,,,,,,,,,,,,,,,,,,,,,,,,,
Image_List_2,,,,,space,1.58673,space,2.07638,0,1,1,4,1,left.jpg,left_path.jpg,43974,2020-11-19_13h47.33.224,analogCatScenes,2020.1.3,MacIntel,60,,,,,,,,,,,,,,,,,,,,,,,,,,,,,,,
Image_List_2,,,,,space,1.028435,space,0.83154,0,2,2,6,1,right_left.jpg,right_left_path.jpg,43974,2020-11-19_13h47.33.224,analogCatScenes,2020.1.3,MacIntel,60,,,,,,,,,,,,,,,,,,,,,,,,,,,,,,,
Image_List_2,,,,,space,0.871545,space,0.860625,0,3,3,0,1,ahead.jpg,ahead_path.jpg,43974,2020-11-19_13h47.33.224,analogCatScenes,2020.1.3,MacIntel,60,,,,,,,,,,,,,,,,,,,,,,,,,,,,,,,
Image_List_2,,,,,space,0.83773,space,3.070995,0,4,4,3,1,ahead_right_left.jpg,ahead_right_left_path.jpg,43974,2020-11-19_13h47.33.224,analogCatScenes,2020.1.3,MacIntel,60,,,,,,,,,,,,,,,,,,,,,,,,,,,,,,,
Image_List_2,,,,,space,0.795035,space,0.64905,0,5,5,5,1,right.jpg,right_path.jpg,43974,2020-11-19_13h47.33.224,analogCatScenes,2020.1.3,MacIntel,60,,,,,,,,,,,,,,,,,,,,,,,,,,,,,,,
Image_List_2,,,,,space,0.885325,space,0.688945,0,6,6,2,1,ahead_right.jpg,ahead_right_path.jpg,43974,2020-11-19_13h47.33.224,analogCatScenes,2020.1.3,MacIntel,60,,,,,,,,,,,,,,,,,,,,,,,,,,,,,,,
Image_List_2,,,,,,,,,,,,,,,,43974,2020-11-19_13h47.33.224,analogCatScenes,2020.1.3,MacIntel,60,"[1440,900]",[],0,[],space,0.790815,space,0.51403,0,0,0,6,1,right_left_2.jpg,right_left_2_path.jpg,,,,,,,,,,,,,,,,
Image_List_2,,,,,,,,,,,,,,,,43974,2020-11-19_13h47.33.224,analogCatScenes,2020.1.3,MacIntel,60,"[1440,900]",[],0,[],space,0.867555,space,0.456145,0,1,1,5,1,right_2.jpg,right_2_path.jpg,,,,,,,,,,,,,,,,
Image_List_2,,,,,,,,,,,,,,,,43974,2020-11-19_13h47.33.224,analogCatScenes,2020.1.3,MacIntel,60,"[1440,900]",[],0,[],space,0.65233,space,0.3237,0,2,2,0,1,ahead_2.jpg,ahead_2_path.jpg,,,,,,,,,,,,,,,,
Image_List_2,,,,,,,,,,,,,,,,43974,2020-11-19_13h47.33.224,analogCatScenes,2020.1.3,MacIntel,60,"[1440,900]",[],0,[],space,0.5265,space,0.56359,0,3,3,1,1,ahead_left_2.jpg,ahead_left_2_path.jpg,,,,,,,,,,,,,,,,
Image_List_2,,,,,,,,,,,,,,,,43974,2020-11-19_13h47.33.224,analogCatScenes,2020.1.3,MacIntel,60,"[1440,900]",[],0,[],space,0.759495,space,0.462755,0,4,4,2,1,ahead_right_2.jpg,ahead_right_2_path.jpg,,,,,,,,,,,,,,,,
Image_List_2,,,,,,,,,,,,,,,,43974,2020-11-19_13h47.33.224,analogCatScenes,2020.1.3,MacIntel,60,"[1440,900]",[],0,[],space,0.744085,space,0.711845,0,5,5,3,1,ahead_right_left_2.jpg,ahead_right_left_2_path.jpg,,,,,,,,,,,,,,,,
Image_List_2,,,,,,,,,,,,,,,,43974,2020-11-19_13h47.33.224,analogCatScenes,2020.1.3,MacIntel,60,"[1440,900]",[],0,[],space,1.219865,space,0.47746,0,6,6,4,1,left_2.jpg,left_2_path.jpg,,,,,,,,,,,,,,,,
Image_List_2,,,,,,,,,,,,,,,,43974,2020-11-19_13h47.33.224,analogCatScenes,2020.1.3,MacIntel,60,"[1440,900]","[[[-0.006510416666666667,-0.20184027777777777],[-0.006510416666666667,-0.20184027777777777],[-0.006510416666666667,-0.20184027777777777],[-0.006510416666666667,-0.20184027777777777],[-0.006510416666666667,-0.20184027777777777],[-0.006510416666666667,-0.20184027777777777],[-0.006510416666666667,-0.20184027777777777],[-0.006510416666666667,-0.20184027777777777],[-0.006510416666666667,-0.20184027777777777],[-0.006510416666666667,-0.20184027777777777],[-0.006510416666666667,-0.20184027777777777],[-0.006510416666666667,-0.20184027777777777],[-0.006510416666666667,-0.20184027777777777],[-0.006510416666666667,-0.20184027777777777],[-0.006510416666666667,-0.20184027777777777],[-0.006510416666666667,-0.20184027777777777],[-0.006510416666666667,-0.20184027777777777],[-0.0049869791666666665,-0.20184027777777777],[-0.002903645833333333,-0.20148871527777779],[-0.00034722222222222224,-0.20072916666666665],[0.0026822916666666666,-0.19996527777777778],[0.006245659722222222,-0.19879340277777777],[0.009930555555555555,-0.19711805555555556],[0.014027777777777778,-0.19546875],[0.020099826388888888,-0.19313368055555555],[0.024791666666666667,-0.1914236111111111],[0.030737847222222222,-0.18868055555555555],[0.03502170138888889,-0.18612413194444444],[0.04030815972222222,-0.1834765625],[0.04948784722222222,-0.17717447916666668],[0.05514756944444445,-0.17338975694444445],[0.061497395833333336,-0.16948350694444445],[0.06706597222222223,-0.16664496527777778],[0.07338541666666666,-0.1631467013888889],[0.08029947916666667,-0.15914930555555556],[0.08643229166666666,-0.15583767361111112],[0.09190538194444445,-0.15262152777777777],[0.09625,-0.14996961805555556],[0.10228298611111111,-0.14581597222222223],[0.11076822916666666,-0.13938802083333332],[0.1158029513888889,-0.13572916666666668],[0.12152777777777778,-0.1314453125],[0.12700086805555555,-0.12822916666666667],[0.13228732638888888,-0.12558159722222223],[0.13842013888888888,-0.12226996527777778],[0.142578125,-0.120625],[0.1479296875,-0.11797309027777778],[0.15484375,-0.11397569444444444],[0.15990885416666667,-0.11126302083333334],[0.1649435763888889,-0.10760416666666667],[0.17060329861111112,-0.10381944444444445],[0.17715277777777777,-0.09940104166666666],[0.18262586805555556,-0.09618489583333334],[0.18687934027777778,-0.09318576388888888],[0.19056857638888888,-0.09072048611111111],[0.1946657986111111,-0.08825520833333333],[0.1983550347222222,-0.08578993055555556],[0.20204427083333334,-0.08332465277777777],[0.2048220486111111,-0.08095052083333333],[0.20759982638888888,-0.0781640625],[0.21046875,-0.07487413194444445],[0.21292534722222223,-0.0715842013888889],[0.2161328125,-0.06678819444444445],[0.21849826388888888,-0.06400173611111111],[0.220390625,-0.06134114583333333],[0.2218402777777778,-0.05877604166666667],[0.22322916666666667,-0.05668402777777778],[0.22471354166666666,-0.054496527777777776],[0.22616319444444444,-0.05193142361111111],[0.22761284722222222,-0.049366319444444445],[0.22944444444444445,-0.04717881944444444],[0.23083333333333333,-0.045086805555555554],[0.231875,-0.042994791666666664],[0.23323350694444445,-0.040264756944444445],[0.23389756944444445,-0.03858072916666667],[0.23456163194444443,-0.03689670138888889],[0.2352560763888889,-0.0348046875],[0.23557291666666666,-0.03312065972222222],[0.23588975694444445,-0.031436631944444446],[0.23617621527777777,-0.03009982638888889],[0.23661458333333332,-0.02640625],[0.23780381944444445,-0.01984809027777778]]]",1,[82],,,,,,,,,,,,space,2.40041,trainStation5.jpg,space,6.79675,0,0,0,91,1,shoestore2.jpg,skatepark5.jpg,ticket_counter6.jpg,sidewalk3.jpg,,
Image_List_2,,,,,,,,,,,,,,,,43974,2020-11-19_13h47.33.224,analogCatScenes,2020.1.3,MacIntel,60,"[1440,900]","[[[-0.0020225694444444445,-0.19385416666666666],[-0.0020225694444444445,-0.19385416666666666],[-0.0020225694444444445,-0.19385416666666666],[-0.0020225694444444445,-0.19385416666666666],[-0.0020225694444444445,-0.19385416666666666],[-0.0020225694444444445,-0.19385416666666666],[-0.0020225694444444445,-0.19385416666666666],[-0.0020225694444444445,-0.19385416666666666],[-0.0020225694444444445,-0.19385416666666666],[-0.0020225694444444445,-0.19385416666666666],[-0.0020225694444444445,-0.19359375],[-0.0020225694444444445,-0.19143663194444444],[-0.0020225694444444445,-0.18786458333333333],[-0.0020225694444444445,-0.1819097222222222],[-0.0020225694444444445,-0.16573350694444444],[-0.0020225694444444445,-0.15352430555555555],[-0.0020225694444444445,-0.1404079861111111],[-0.0020225694444444445,-0.12535590277777778],[-0.0020225694444444445,-0.1131467013888889],[-0.0020225694444444445,-0.1017795138888889],[-0.0020225694444444445,-0.09491753472222222],[-0.0020225694444444445,-0.08758246527777777],[-0.0020225694444444445,-0.08096788194444444],[-0.0020225694444444445,-0.07567274305555556],[-0.0020225694444444445,-0.07097222222222223],[-0.0020225694444444445,-0.06686631944444445],[-0.0012065972222222222,-0.060707465277777775],[-0.0012065972222222222,-0.05713541666666667],[-0.0007986111111111112,-0.05356336805555555],[-0.000390625,-0.04945746527777778],[0.00001736111111111111,-0.045885416666666665],[0.0004253472222222222,-0.04231336805555556],[0.0008029513888888889,-0.03927517361111111],[0.0008029513888888889,-0.03718315972222222],[0.0008029513888888889,-0.03549913194444444],[0.0008029513888888889,-0.0345703125],[0.0008029513888888889,-0.033988715277777776],[0.0008029513888888889,-0.032769097222222224]],[[-0.0035243055555555557,-0.1912934027777778],[-0.0035243055555555557,-0.1912934027777778],[-0.0035243055555555557,-0.1912934027777778],[-0.0035243055555555557,-0.1912934027777778],[-0.0035243055555555557,-0.1912934027777778],[-0.0035243055555555557,-0.1912934027777778],[-0.0035243055555555557,-0.1912934027777778],[-0.0035243055555555557,-0.1912934027777778],[-0.0035243055555555557,-0.1912934027777778],[-0.0035243055555555557,-0.1912934027777778],[-0.0035243055555555557,-0.1912934027777778],[-0.0035243055555555557,-0.19077256944444446],[-0.0035243055555555557,-0.18908854166666667],[-0.0035243055555555557,-0.1865234375],[-0.0035243055555555557,-0.18338541666666666],[-0.0038758680555555556,-0.1808203125],[-0.005017361111111111,-0.17778211805555555],[-0.0069487847222222225,-0.17509114583333332],[-0.010073784722222222,-0.17020399305555556],[-0.012005208333333333,-0.1671050347222222],[-0.015004340277777778,-0.16284288194444443],[-0.018003472222222223,-0.15858072916666666],[-0.021414930555555555,-0.1547265625],[-0.026137152777777777,-0.14953125],[-0.02948784722222222,-0.14662326388888888],[-0.038038194444444444,-0.14046006944444445],[-0.04308159722222222,-0.13680121527777778],[-0.04705729166666667,-0.13376736111111112],[-0.0519140625,-0.13067708333333333],[-0.056176215277777775,-0.12767795138888888],[-0.060282118055555556,-0.1252126736111111],[-0.06438802083333334,-0.12315538194444445],[-0.06796006944444444,-0.12157118055555556],[-0.07206597222222222,-0.12074652777777778],[-0.07563802083333333,-0.11995225694444445],[-0.07974392361111111,-0.11953993055555556],[-0.08590277777777777,-0.11912760416666666],[-0.0906032986111111,-0.11868489583333333],[-0.09615017361111111,-0.11818142361111111],[-0.10247829861111112,-0.11764322916666667],[-0.10843315972222223,-0.11720052083333334],[-0.11588975694444445,-0.1167578125],[-0.12184461805555556,-0.11631510416666667],[-0.1284592013888889,-0.11631510416666667],[-0.13328559027777778,-0.11631510416666667],[-0.13798611111111111,-0.11631510416666667],[-0.14155815972222222,-0.11631510416666667],[-0.14428819444444443,-0.11631510416666667],[-0.14486979166666666,-0.11631510416666667],[-0.1454513888888889,-0.11631510416666667],[-0.1457421875,-0.1166015625],[-0.1457421875,-0.11717447916666666],[-0.1457421875,-0.11774739583333334],[-0.1457421875,-0.1183203125]],[[0.0006987847222222222,-0.19466145833333334],[0.0006987847222222222,-0.19466145833333334],[0.0006987847222222222,-0.19466145833333334],[0.0006987847222222222,-0.19466145833333334],[0.0006987847222222222,-0.19466145833333334],[0.0006987847222222222,-0.19466145833333334],[0.0006987847222222222,-0.19466145833333334],[0.0006987847222222222,-0.19466145833333334],[0.0006987847222222222,-0.19466145833333334],[0.0006987847222222222,-0.19466145833333334],[0.0006987847222222222,-0.19466145833333334],[0.0006987847222222222,-0.19466145833333334],[0.0018446180555555555,-0.19466145833333334],[0.006571180555555556,-0.19466145833333334],[0.010668402777777778,-0.19342447916666666],[0.01595486111111111,-0.19209635416666668],[0.021901041666666666,-0.19070746527777777],[0.02784722222222222,-0.18887586805555556],[0.034453125,-0.18651041666666668],[0.04105902777777778,-0.18461805555555555],[0.04791232638888889,-0.1825998263888889],[0.05507378472222222,-0.18014322916666667],[0.059231770833333336,-0.1784375],[0.0666796875,-0.17594618055555555],[0.07262586805555556,-0.17411458333333332],[0.081875,-0.17130642361111112],[0.08782118055555556,-0.16991753472222224],[0.09317274305555556,-0.16814670138888888],[0.10062065972222223,-0.16565538194444446],[0.1072265625,-0.16376302083333333],[0.1145529513888889,-0.16180989583333333],[0.12187934027777778,-0.15985677083333333],[0.12795138888888888,-0.15894097222222223],[0.13455729166666666,-0.15752170138888888],[0.13984375,-0.1561935763888889],[0.14843315972222224,-0.15527777777777776],[0.15397135416666666,-0.15427083333333333],[0.15866319444444443,-0.15385850694444445],[0.1633550347222222,-0.1534157986111111],[0.168046875,-0.15297309027777778],[0.1721440972222222,-0.1525607638888889],[0.17624131944444443,-0.1521484375],[0.1798046875,-0.15176649305555556],[0.18336805555555555,-0.15135416666666668],[0.18639756944444444,-0.15135416666666668],[0.18895399305555555,-0.15135416666666668],[0.19167100694444444,-0.15135416666666668],[0.19293836805555556,-0.15135416666666668],[0.19351128472222223,-0.15135416666666668],[0.19408420138888888,-0.15135416666666668],[0.19408420138888888,-0.15135416666666668],[0.19408420138888888,-0.15135416666666668]]]",3,"[38,54,52]",,,,,,,,,,,,,,frontFoyer7.jpg,space,10.780545,0,1,1,45,1,fittingroom2.jpg,factory1.jpg,forestpath4.jpg,dock4.jpg,,
Image_List_2,,,,,,,,,,,,,,,,43974,2020-11-19_13h47.33.224,analogCatScenes,2020.1.3,MacIntel,60,"[1440,900]","[[[0.0037065972222222222,-0.198984375],[0.0037065972222222222,-0.198984375],[0.0037065972222222222,-0.198984375],[0.0037065972222222222,-0.198984375],[0.0037065972222222222,-0.198984375],[0.0037065972222222222,-0.198984375],[0.0037065972222222222,-0.198984375],[0.0037065972222222222,-0.198984375],[0.0037065972222222222,-0.198984375],[0.0037065972222222222,-0.198984375],[0.0037065972222222222,-0.198984375],[0.0028081597222222223,-0.198984375],[0.0007161458333333333,-0.198984375],[-0.0018489583333333333,-0.198984375],[-0.004887152777777778,-0.198984375],[-0.01075954861111111,-0.198984375],[-0.016714409722222223,-0.198984375],[-0.022669270833333335,-0.198984375],[-0.029283854166666668,-0.19803819444444445],[-0.034830729166666664,-0.1971527777777778],[-0.0414453125,-0.19620659722222222],[-0.04805989583333333,-0.19526041666666666],[-0.05401475694444444,-0.19434461805555556],[-0.05956163194444444,-0.1934592013888889],[-0.06426215277777778,-0.19219184027777778],[-0.06896267361111111,-0.19092447916666666],[-0.07306857638888889,-0.1900998263888889],[-0.07982204861111111,-0.1880078125],[-0.08577690972222222,-0.18617621527777778],[-0.08994357638888889,-0.18490885416666666],[-0.09602430555555555,-0.18307725694444443],[-0.10131944444444445,-0.18174913194444445],[-0.10877604166666667,-0.1792578125],[-0.11473090277777778,-0.17698784722222222],[-0.1206857638888889,-0.17468315972222223],[-0.12730034722222222,-0.17231770833333335],[-0.13212673611111111,-0.1701388888888889],[-0.14024305555555555,-0.16657986111111112],[-0.14598958333333334,-0.16332465277777777],[-0.15025173611111112,-0.16073350694444444],[-0.15382378472222222,-0.15874131944444445],[-0.1571137152777778,-0.15627604166666667],[-0.16040364583333333,-0.1538107638888889],[-0.16356770833333334,-0.15181857638888888],[-0.16713975694444444,-0.14982638888888888],[-0.17030381944444445,-0.1478342013888889],[-0.17359375,-0.14536892361111112],[-0.1767578125,-0.14337673611111112],[-0.179921875,-0.1413845486111111],[-0.18447916666666667,-0.1391059027777778],[-0.18764322916666668,-0.13711371527777777],[-0.19121527777777778,-0.13512152777777778],[-0.19437934027777778,-0.13312934027777779],[-0.19795138888888889,-0.13113715277777777],[-0.20124131944444446,-0.128671875],[-0.20390190972222222,-0.12677083333333333],[-0.20618489583333333,-0.12448784722222223],[-0.20837239583333333,-0.12264756944444444],[-0.21015190972222222,-0.12086805555555556],[-0.2119314236111111,-0.11908854166666667],[-0.21361545138888888,-0.11775173611111112],[-0.21694444444444444,-0.11476996527777777],[-0.21963541666666667,-0.11283854166666667],[-0.22182291666666668,-0.11099826388888889],[-0.224609375,-0.10862413194444444],[-0.22670138888888888,-0.1072265625],[-0.22879340277777777,-0.10582899305555556],[-0.23006944444444444,-0.10486979166666667],[-0.2313454861111111,-0.10391059027777778],[-0.23163628472222222,-0.10361979166666667],[-0.23192708333333334,-0.10361979166666667],[-0.23192708333333334,-0.10361979166666667],[-0.23192708333333334,-0.10361979166666667],[-0.23140190972222222,-0.10388020833333333],[-0.23036024305555555,-0.10457465277777778]]]",1,[75],,,,,,,,,,,,,,cliff3.jpg,space,4.79934,0,2,2,24,1,campsite.jpg,cave6.jpg,cemetery5.jpg,boardwalk.jpg,,
Image_List_2,,,,,,,,,,,,,,,,43974,2020-11-19_13h47.33.224,analogCatScenes,2020.1.3,MacIntel,60,"[1440,900]","[[[0.0016015625,-0.20042534722222222],[0.0016015625,-0.20042534722222222],[0.0016015625,-0.20042534722222222],[0.0016015625,-0.20042534722222222],[0.0016015625,-0.20042534722222222],[0.0016015625,-0.20042534722222222],[0.0016015625,-0.20042534722222222],[0.0016015625,-0.20042534722222222],[0.0016015625,-0.20042534722222222],[0.0016015625,-0.20042534722222222],[0.0016015625,-0.20042534722222222],[0.0016015625,-0.20042534722222222],[0.0016015625,-0.20042534722222222],[0.0016015625,-0.20042534722222222],[0.0016015625,-0.20042534722222222],[0.0016015625,-0.20042534722222222],[0.0016015625,-0.20042534722222222],[0.0016015625,-0.20042534722222222],[0.0016015625,-0.20042534722222222],[0.0016015625,-0.20016493055555556],[0.0016015625,-0.199296875],[0.0016015625,-0.19871961805555555],[0.0016015625,-0.19813802083333334],[0.0016015625,-0.1972092013888889],[0.0018880208333333333,-0.19662760416666666],[0.002521701388888889,-0.19471354166666666],[0.002521701388888889,-0.19407552083333332],[0.0028385416666666667,-0.19175347222222222],[0.0031553819444444446,-0.19006944444444446],[0.0035026041666666665,-0.18750434027777776],[0.003880208333333333,-0.18446614583333334],[0.0042578125,-0.1814279513888889],[0.004665798611111111,-0.17785590277777777],[0.004665798611111111,-0.17428385416666667],[0.005073784722222223,-0.17071180555555557],[0.005889756944444445,-0.1666059027777778],[0.0062977430555555556,-0.16190538194444445],[0.007144097222222222,-0.15455729166666668],[0.007582465277777777,-0.14985677083333335],[0.00845920138888889,-0.14456163194444444],[0.0088671875,-0.1398611111111111],[0.009713541666666667,-0.13516059027777777],[0.010121527777777778,-0.1310546875],[0.010967881944444445,-0.12635416666666666],[0.011375868055555556,-0.12165364583333334],[0.012222222222222223,-0.116953125],[0.012630208333333334,-0.11225260416666667],[0.0134765625,-0.10755208333333334],[0.013884548611111111,-0.10344618055555556],[0.014292534722222222,-0.09728732638888889],[0.014700520833333333,-0.09192708333333334],[0.015078125,-0.08835503472222223],[0.01595486111111111,-0.08305989583333333],[0.016393229166666665,-0.07776475694444444],[0.016831597222222223,-0.07246961805555556],[0.016831597222222223,-0.06717447916666666],[0.017239583333333332,-0.062473958333333336],[0.018116319444444445,-0.057178819444444445],[0.0185546875,-0.051883680555555554],[0.018993055555555555,-0.04718315972222222],[0.019401041666666667,-0.04157118055555555],[0.019401041666666667,-0.037999131944444445],[0.019401041666666667,-0.0349609375],[0.019401041666666667,-0.03138888888888889],[0.019401041666666667,-0.028350694444444446],[0.019401041666666667,-0.0253125],[0.019401041666666667,-0.023220486111111112],[0.019401041666666667,-0.022291666666666668],[0.019401041666666667,-0.022291666666666668]],[[-0.0005859375,-0.1955815972222222],[-0.0005859375,-0.1955815972222222],[-0.0005859375,-0.1955815972222222],[-0.0005859375,-0.1955815972222222],[-0.0005859375,-0.1955815972222222],[-0.0005859375,-0.1955815972222222],[-0.0005859375,-0.1955815972222222],[-0.0005859375,-0.1955815972222222],[-0.0005859375,-0.1955815972222222],[-0.0005859375,-0.1955815972222222],[-0.0011067708333333333,-0.1955815972222222],[-0.004144965277777778,-0.1955815972222222],[-0.006302083333333333,-0.1955815972222222],[-0.009874131944444444,-0.1955815972222222],[-0.012912326388888888,-0.1955815972222222],[-0.017018229166666666,-0.1955815972222222],[-0.022378472222222223,-0.19734375],[-0.02845920138888889,-0.19825086805555556],[-0.032625868055555556,-0.19950954861111111],[-0.03732638888888889,-0.2007986111111111],[-0.041493055555555554,-0.20243489583333332],[-0.04711805555555556,-0.20441840277777779],[-0.05122395833333333,-0.20605902777777776],[-0.055329861111111114,-0.2072873263888889],[-0.06003038194444445,-0.20857638888888888],[-0.06473090277777778,-0.2098654513888889],[-0.06943142361111111,-0.2111545138888889],[-0.0735373263888889,-0.2123828125],[-0.07764322916666666,-0.2136111111111111],[-0.08300347222222222,-0.2153732638888889],[-0.0882986111111111,-0.21669270833333334],[-0.09365885416666667,-0.2180425347222222],[-0.10508246527777777,-0.22004774305555555],[-0.11241753472222223,-0.221015625],[-0.11975260416666667,-0.221484375],[-0.12780381944444444,-0.221484375],[-0.135859375,-0.221484375],[-0.14319444444444446,-0.221484375],[-0.1485546875,-0.221484375],[-0.15667100694444444,-0.22101128472222223],[-0.16083767361111112,-0.2197439236111111],[-0.1661328125,-0.2184157986111111],[-0.16983072916666667,-0.21635850694444445],[-0.1734418402777778,-0.2142013888888889],[-0.17471788194444443,-0.21292534722222223],[-0.17500868055555555,-0.21234375],[-0.17500868055555555,-0.21205295138888888],[-0.17500868055555555,-0.21177951388888888],[-0.17500868055555555,-0.21177951388888888]]]",2,"[69,49]",,,,,,,,,,,,,,conference3.jpg,space,6.89883,0,3,3,25,1,campsite7.jpg,church3.jpg,checkoutcounter2.jpg,botanicalGarden4.jpg,,
Image_List_2,,,,,,,,,,,,,,,,43974,2020-11-19_13h47.33.224,analogCatScenes,2020.1.3,MacIntel,60,"[1440,900]","[[[-0.0038975694444444444,-0.19630208333333332],[-0.0038975694444444444,-0.19630208333333332],[-0.0038975694444444444,-0.19630208333333332],[-0.0038975694444444444,-0.19630208333333332],[-0.0038975694444444444,-0.19630208333333332],[-0.0038975694444444444,-0.19630208333333332],[-0.0038975694444444444,-0.19630208333333332],[-0.0038975694444444444,-0.19630208333333332],[-0.0038975694444444444,-0.19630208333333332],[-0.0038975694444444444,-0.19630208333333332],[-0.0038975694444444444,-0.19630208333333332],[-0.0038975694444444444,-0.19630208333333332],[-0.0038975694444444444,-0.19630208333333332],[-0.0038975694444444444,-0.19630208333333332],[-0.0038975694444444444,-0.19630208333333332],[-0.0038975694444444444,-0.19540364583333333],[-0.003263888888888889,-0.19412760416666666],[-0.0009895833333333334,-0.19184461805555555],[0.002595486111111111,-0.18783854166666666],[0.005876736111111111,-0.18454861111111112],[0.009995659722222222,-0.17997829861111111],[0.01609809027777778,-0.173984375],[0.022664930555555556,-0.1684157986111111],[0.02832465277777778,-0.1641623263888889],[0.03467447916666667,-0.1602560763888889],[0.04102430555555556,-0.1563498263888889],[0.045494791666666666,-0.1532248263888889],[0.05259548611111111,-0.14865885416666666],[0.0589453125,-0.14475260416666666],[0.065078125,-0.1414409722222222],[0.06942274305555556,-0.1387890625],[0.07705729166666667,-0.13475694444444444],[0.08253038194444444,-0.13154079861111112],[0.09071180555555555,-0.1274435763888889],[0.09665798611111111,-0.12470052083333333],[0.10260416666666666,-0.12195746527777777],[0.10945746527777778,-0.11899305555555556],[0.11606336805555556,-0.11662760416666666],[0.12022135416666667,-0.11454427083333334],[0.13115885416666667,-0.10909288194444444],[0.13398871527777778,-0.10720052083333333],[0.14433159722222222,-0.10175347222222222],[0.14835503472222222,-0.10024305555555556],[0.1558984375,-0.09671875],[0.16401909722222222,-0.09312065972222222],[0.17033854166666668,-0.09075520833333334],[0.175625,-0.088984375],[0.18091145833333333,-0.08765625],[0.18500868055555555,-0.08641927083333334],[0.18803819444444445,-0.08603732638888889],[0.19059461805555555,-0.08530381944444444],[0.19267795138888888,-0.08495225694444444],[0.1939453125,-0.08463107638888889],[0.1948654513888889,-0.08430989583333333],[0.19543836805555556,-0.08430989583333333],[0.19601128472222223,-0.08430989583333333],[0.19601128472222223,-0.08430989583333333],[0.19601128472222223,-0.08430989583333333],[0.19601128472222223,-0.08430989583333333],[0.19601128472222223,-0.08430989583333333]],[[0.0017491319444444444,-0.19608940972222222],[0.0017491319444444444,-0.19608940972222222],[0.0017491319444444444,-0.19608940972222222],[0.0017491319444444444,-0.19608940972222222],[0.0017491319444444444,-0.19608940972222222],[0.0017491319444444444,-0.19608940972222222],[0.0017491319444444444,-0.19608940972222222],[0.0017491319444444444,-0.19608940972222222],[0.0017491319444444444,-0.19608940972222222],[0.0017491319444444444,-0.19608940972222222],[0.0017491319444444444,-0.19608940972222222],[0.0017491319444444444,-0.19452690972222222],[0.0017491319444444444,-0.19079427083333333],[0.0017491319444444444,-0.1848394097222222],[0.002690972222222222,-0.1782248263888889],[0.005360243055555556,-0.16860677083333334],[0.008684895833333333,-0.15723958333333332],[0.013572048611111111,-0.14315538194444444],[0.017421875,-0.1270703125],[0.021896701388888887,-0.11098524305555556],[0.025026041666666665,-0.09593315972222222],[0.028875868055555556,-0.07984809027777778],[0.03131510416666667,-0.06576388888888889],[0.03547743055555556,-0.046089409722222224],[0.038359375,-0.033880208333333335],[0.040052083333333335,-0.022578125],[0.04115017361111111,-0.012118055555555556],[0.04224826388888889,-0.0016579861111111112],[0.04334635416666666,0.008802083333333334],[0.044379340277777776,0.017638888888888888],[0.044379340277777776,0.026475694444444444],[0.04487847222222222,0.03453125],[0.04487847222222222,0.04255642361111111],[0.04487847222222222,0.05391927083333333],[0.04487847222222222,0.06],[0.04487847222222222,0.06883680555555556],[0.04487847222222222,0.07545138888888889],[0.04487847222222222,0.08278645833333333],[0.04487847222222222,0.09012152777777778],[0.04487847222222222,0.09548177083333333],[0.04487847222222222,0.10318576388888889],[0.04487847222222222,0.10951388888888888],[0.04487847222222222,0.11480902777777778],[0.04487847222222222,0.12010416666666666],[0.04487847222222222,0.12565104166666666],[0.04487847222222222,0.13522569444444443],[0.04531684027777778,0.1393923611111111],[0.046193576388888886,0.1446875],[0.046193576388888886,0.14938802083333333],[0.046193576388888886,0.1534939236111111],[0.046193576388888886,0.1570659722222222],[0.046193576388888886,0.15963107638888888],[0.046193576388888886,0.1617230902777778],[0.045872395833333336,0.16299913194444443],[0.04523003472222222,0.1642751736111111],[0.044939236111111114,0.16485677083333333],[0.044066840277777776,0.16572916666666668],[0.044066840277777776,0.16600260416666668],[0.044066840277777776,0.16600260416666668],[0.044066840277777776,0.16600260416666668],[0.044066840277777776,0.16600260416666668],[0.044596354166666664,0.16600260416666668]],[[-0.0012890625,-0.19739149305555556],[-0.0012890625,-0.19739149305555556],[-0.0012890625,-0.19739149305555556],[-0.0012890625,-0.19739149305555556],[-0.0012890625,-0.19739149305555556],[-0.0012890625,-0.19739149305555556],[-0.0012890625,-0.19739149305555556],[-0.0012890625,-0.19739149305555556],[-0.0012890625,-0.19660590277777779],[-0.0012890625,-0.1944487847222222],[-0.0012890625,-0.18908854166666667],[-0.0012890625,-0.18241319444444445],[-0.0012890625,-0.169453125],[-0.0012890625,-0.16115451388888888],[-0.001857638888888889,-0.15069444444444444],[-0.0034939236111111113,-0.141015625],[-0.005572916666666667,-0.13217881944444446],[-0.008155381944444444,-0.1233420138888889],[-0.012278645833333334,-0.11047743055555556],[-0.014796006944444445,-0.102421875],[-0.017816840277777777,-0.09436631944444444],[-0.02083767361111111,-0.08631076388888889],[-0.023953993055555556,-0.07747395833333333],[-0.027387152777777778,-0.07013888888888889],[-0.03103732638888889,-0.06299913194444444],[-0.0346875,-0.055859375],[-0.03812065972222222,-0.04902777777777778],[-0.0421484375,-0.041979166666666665],[-0.045672743055555555,-0.03442708333333333],[-0.05171440972222222,-0.022847222222222224],[-0.05514756944444445,-0.016015625],[-0.058580729166666665,-0.008680555555555556],[-0.06123263888888889,-0.004327256944444444],[-0.0637890625,0.0003732638888888889],[-0.06625434027777778,0.004479166666666667],[-0.06862847222222222,0.007265625],[-0.0705295138888889,0.009926215277777779],[-0.0728125,0.01220920138888889],[-0.07465277777777778,0.01439670138888889],[-0.07684027777777777,0.016236979166666665],[-0.0792578125,0.01865451388888889],[-0.08103732638888889,0.020434027777777777],[-0.08231336805555556,0.021393229166666666],[-0.08358940972222222,0.022352430555555556],[-0.08451822916666667,0.02296440972222222],[-0.08544704861111112,0.023255208333333333],[-0.08637586805555555,0.0238671875],[-0.08695746527777778,0.02444878472222222],[-0.08788628472222222,0.025377604166666668],[-0.08846788194444444,0.025668402777777776],[-0.08904947916666667,0.02625],[-0.089921875,0.02654079861111111],[-0.0901953125,0.02654079861111111],[-0.09048611111111111,0.02654079861111111],[-0.09075520833333334,0.02654079861111111],[-0.09075520833333334,0.02654079861111111],[-0.09075520833333334,0.02654079861111111],[-0.09075520833333334,0.02654079861111111],[-0.09075520833333334,0.02654079861111111]]]",3,"[60,62,59]",,,,,,,,,,,,,,metroInside4.jpg,space,8.39727,0,4,4,61,1,HorseRaceTrack.jpg,homegarden6.jpg,kindergarten_classroom7.jpg,hayfield6.jpg,,
Image_List_2,,,,,,,,,,,,,,,,43974,2020-11-19_13h47.33.224,analogCatScenes,2020.1.3,MacIntel,60,"[1440,900]","[[[-0.01025607638888889,-0.20131944444444444],[-0.01025607638888889,-0.20131944444444444],[-0.01025607638888889,-0.20131944444444444],[-0.01025607638888889,-0.20131944444444444],[-0.01025607638888889,-0.20131944444444444],[-0.01025607638888889,-0.20131944444444444],[-0.01025607638888889,-0.20131944444444444],[-0.01025607638888889,-0.20131944444444444],[-0.01025607638888889,-0.2010590277777778],[-0.009561631944444444,-0.19792100694444445],[-0.007105034722222223,-0.19381510416666667],[-0.0046484375,-0.1897092013888889],[-0.0008723958333333333,-0.1840407986111111],[0.00484375,-0.1767751736111111],[0.01162326388888889,-0.16773003472222223],[0.018216145833333332,-0.15946614583333332],[0.024809027777777777,-0.15063802083333333],[0.030555555555555555,-0.14328125],[0.036085069444444444,-0.1367361111111111],[0.03967013888888889,-0.13225694444444444],[0.04567708333333333,-0.12485243055555556],[0.049644097222222225,-0.1208767361111111],[0.05451388888888889,-0.11499131944444445],[0.0586328125,-0.11042100694444444],[0.062408854166666666,-0.10475260416666667],[0.06727864583333333,-0.09839409722222223],[0.07318142361111112,-0.09034722222222222],[0.07958767361111112,-0.08286458333333334],[0.08706163194444444,-0.07591579861111111],[0.09453559027777778,-0.06843315972222222],[0.10075520833333333,-0.06167100694444445],[0.10628472222222222,-0.055125868055555555],[0.11401475694444445,-0.046436631944444445],[0.11954427083333333,-0.03989149305555555],[0.12670138888888888,-0.03162760416666666],[0.134609375,-0.022521701388888888],[0.142734375,-0.01263454861111111],[0.15064236111111112,-0.003589409722222222],[0.15758246527777778,0.003893229166666667],[0.1636762152777778,0.01046875],[0.1697092013888889,0.016510416666666666],[0.17526909722222223,0.02261284722222222],[0.18082899305555555,0.028715277777777777],[0.18770833333333334,0.038598090277777775],[0.19172743055555555,0.04615017361111111],[0.1957465277777778,0.053198784722222225],[0.1984548611111111,0.0580859375],[0.20091145833333332,0.06219184027777778],[0.20230034722222223,0.06428385416666667],[0.20293402777777778,0.06555989583333334],[0.20350694444444445,0.06614149305555556],[0.20377604166666666,0.06641493055555556],[0.20377604166666666,0.06641493055555556],[0.20377604166666666,0.06641493055555556],[0.20377604166666666,0.06641493055555556],[0.20403645833333334,0.06641493055555556],[0.20403645833333334,0.06641493055555556],[0.20403645833333334,0.06641493055555556]],[[-0.0029861111111111113,-0.20229166666666668],[-0.0029861111111111113,-0.20229166666666668],[-0.0029861111111111113,-0.20229166666666668],[-0.0029861111111111113,-0.20229166666666668],[-0.0029861111111111113,-0.20229166666666668],[-0.0029861111111111113,-0.20229166666666668],[-0.0029861111111111113,-0.20229166666666668],[-0.0029861111111111113,-0.20229166666666668],[-0.004292534722222222,-0.20229166666666668],[-0.007864583333333333,-0.20229166666666668],[-0.012565104166666667,-0.20099392361111112],[-0.018298611111111113,-0.19721354166666666],[-0.025347222222222222,-0.19268229166666667],[-0.03395833333333333,-0.1873394097222222],[-0.04300347222222222,-0.1805512152777778],[-0.05204861111111111,-0.17376302083333334],[-0.06158854166666667,-0.1641579861111111],[-0.06975260416666666,-0.15486545138888888],[-0.07766927083333333,-0.1458203125],[-0.08585069444444444,-0.13669270833333333],[-0.09322916666666667,-0.12821180555555556],[-0.09700520833333333,-0.12255642361111112],[-0.10091145833333333,-0.11663628472222222],[-0.10424913194444445,-0.11046440972222223],[-0.10690104166666667,-0.10611111111111111],[-0.11118489583333334,-0.10037760416666666],[-0.11484375,-0.09533420138888889],[-0.11956597222222222,-0.0901388888888889],[-0.12247395833333333,-0.08678819444444444],[-0.1266015625,-0.08174479166666666],[-0.13371527777777778,-0.07321614583333333],[-0.13796875,-0.06754774305555555],[-0.14222222222222222,-0.06235243055555555],[-0.14741753472222222,-0.05715711805555555],[-0.15279947916666667,-0.05130208333333333],[-0.15902777777777777,-0.04453993055555556],[-0.16475260416666668,-0.037274305555555554],[-0.16978732638888888,-0.030225694444444444],[-0.1743185763888889,-0.023177083333333334],[-0.17834635416666667,-0.015625],[-0.18168402777777778,-0.009453125],[-0.1842404513888889,-0.005160590277777778],[-0.18859809027777777,0.0017795138888888889],[-0.19168836805555556,0.006636284722222222],[-0.1937456597222222,0.0107421875],[-0.1962109375,0.014848090277777778],[-0.19838975694444444,0.019674479166666668],[-0.20094618055555555,0.024375],[-0.20341145833333332,0.028072916666666666],[-0.2057855902777778,0.030859375],[-0.20762586805555555,0.033046875],[-0.20930989583333334,0.03438368055555555],[-0.21052951388888888,0.03528645833333333],[-0.2111111111111111,0.035868055555555556],[-0.21169270833333334,0.035868055555555556],[-0.21196614583333334,0.035868055555555556],[-0.21254774305555554,0.035868055555555556],[-0.21283854166666666,0.035868055555555556],[-0.21283854166666666,0.035868055555555556],[-0.21283854166666666,0.035868055555555556],[-0.212578125,0.035868055555555556]]]",2,"[58,61]",,,,,,,,,,,,,,volleyballcourt4.jpg,space,5.797885,0,5,5,93,1,tollbooth8.jpg,staircase4.jpg,warehouseoutside2.jpg,tenniscourt.jpg,,
Image_List_2,,,,,,,,,,,,,,,,43974,2020-11-19_13h47.33.224,analogCatScenes,2020.1.3,MacIntel,60,"[1440,900]","[[[0.002209201388888889,-0.19762152777777778],[0.002209201388888889,-0.19762152777777778],[0.002209201388888889,-0.19762152777777778],[0.002209201388888889,-0.19762152777777778],[0.002209201388888889,-0.19762152777777778],[0.002209201388888889,-0.19762152777777778],[0.002209201388888889,-0.19762152777777778],[0.002209201388888889,-0.1973611111111111],[0.002209201388888889,-0.19479600694444443],[0.002209201388888889,-0.19069010416666668],[0.002209201388888889,-0.18539496527777777],[0.002209201388888889,-0.17733940972222223],[0.002209201388888889,-0.16766059027777777],[0.002209201388888889,-0.15720052083333333],[0.002209201388888889,-0.14583333333333334],[0.002209201388888889,-0.1297222222222222],[0.002209201388888889,-0.12088541666666666],[0.0032769097222222223,-0.11126736111111112],[0.005347222222222222,-0.10243055555555555],[0.007291666666666667,-0.09509548611111111],[0.008763020833333333,-0.08776041666666666],[0.01017361111111111,-0.08114583333333333],[0.011644965277777778,-0.0738107638888889],[0.013146701388888888,-0.06575520833333333],[0.0146484375,-0.05769965277777778],[0.016184895833333334,-0.04886284722222222],[0.019192708333333332,-0.036779513888888886],[0.021263020833333333,-0.027942708333333333],[0.02377170138888889,-0.019887152777777778],[0.026280381944444445,-0.011831597222222223],[0.029110243055555554,-0.005217013888888889],[0.03093315972222222,0.00014322916666666667],[0.03291232638888889,0.006471354166666667],[0.035833333333333335,0.013806423611111111],[0.03834201388888889,0.021861979166666667],[0.04094618055555556,0.030698784722222223],[0.042421875,0.03756076388888889],[0.045598958333333335,0.046163194444444444],[0.047174479166666665,0.04973524305555556],[0.048563368055555556,0.05182725694444444],[0.049830729166666664,0.052786458333333335],[0.05109809027777778,0.05374565972222222],[0.0527734375,0.05406684027777778],[0.05444878472222222,0.054388020833333335],[0.05612413194444445,0.054388020833333335],[0.057391493055555555,0.054388020833333335],[0.05831163194444444,0.054388020833333335],[0.05888454861111111,0.054388020833333335],[0.05945746527777778,0.054388020833333335],[0.06001302083333333,0.054388020833333335],[0.060282118055555556,0.054388020833333335],[0.060282118055555556,0.054388020833333335],[0.060546875,0.054388020833333335],[0.060546875,0.054388020833333335],[0.060546875,0.054388020833333335],[0.060546875,0.054388020833333335]],[[-0.00009114583333333334,-0.19826822916666667],[-0.00009114583333333334,-0.19826822916666667],[-0.00009114583333333334,-0.19826822916666667],[-0.00009114583333333334,-0.19826822916666667],[-0.00009114583333333334,-0.19826822916666667],[-0.00009114583333333334,-0.19826822916666667],[-0.00009114583333333334,-0.19826822916666667],[-0.00009114583333333334,-0.19826822916666667],[-0.00009114583333333334,-0.19826822916666667],[-0.00009114583333333334,-0.19826822916666667],[-0.00009114583333333334,-0.19826822916666667],[-0.00009114583333333334,-0.19826822916666667],[0.00016493055555555556,-0.19826822916666667],[0.0023133680555555555,-0.19826822916666667],[0.006918402777777778,-0.19668402777777777],[0.0101953125,-0.1950390625],[0.014479166666666666,-0.19292100694444445],[0.02064236111111111,-0.1890798611111111],[0.026302083333333334,-0.18529513888888888],[0.031180555555555555,-0.182578125],[0.03721354166666667,-0.17842447916666668],[0.04146701388888889,-0.17542534722222222],[0.045564236111111114,-0.17296006944444445],[0.049127604166666665,-0.17096788194444446],[0.052408854166666664,-0.16850260416666665],[0.055091145833333334,-0.16657118055555556],[0.05979166666666667,-0.1634375],[0.06348090277777778,-0.1609722222222222],[0.06735243055555555,-0.15838107638888888],[0.07119791666666667,-0.15538194444444445],[0.07447916666666667,-0.15291666666666667],[0.07776041666666667,-0.1500390625],[0.08104166666666666,-0.1475737847222222],[0.08381944444444445,-0.1447873263888889],[0.08618489583333333,-0.14200086805555556],[0.08905381944444445,-0.1387109375],[0.09192274305555556,-0.13542100694444445],[0.09692708333333333,-0.12810763888888888],[0.09891059027777778,-0.12453559027777777],[0.10145833333333333,-0.11983506944444444],[0.10315972222222222,-0.11513454861111111],[0.10438802083333333,-0.11102864583333333],[0.10520399305555556,-0.10692274305555556],[0.10611111111111111,-0.10096788194444445],[0.10611111111111111,-0.09501302083333334],[0.10611111111111111,-0.08833767361111111],[0.10611111111111111,-0.08351128472222222],[0.10611111111111111,-0.07580729166666667],[0.10611111111111111,-0.06720486111111111],[0.10611111111111111,-0.059869791666666665],[0.10611111111111111,-0.05391493055555555],[0.10611111111111111,-0.04730034722222222],[0.10611111111111111,-0.04121961805555555],[0.1051953125,-0.03526475694444445],[0.10472222222222222,-0.029309895833333332],[0.10383680555555555,-0.023949652777777778],[0.10342447916666667,-0.01984375],[0.10301215277777778,-0.015737847222222223],[0.10221788194444445,-0.012165798611111112],[0.10139322916666667,-0.006540798611111111],[0.10059895833333334,-0.00296875],[0.0998046875,0.0006032986111111111],[0.09859809027777777,0.004175347222222223],[0.09780381944444444,0.0077473958333333336],[0.09697916666666667,0.011853298611111111],[0.09615451388888889,0.01595920138888889],[0.09532986111111111,0.020065104166666667],[0.09456597222222222,0.02310329861111111],[0.09421440972222223,0.025668402777777776],[0.09421440972222223,0.028233506944444445],[0.09421440972222223,0.030963541666666667],[0.09421440972222223,0.032239583333333335],[0.09421440972222223,0.033515625],[0.09421440972222223,0.03409722222222222],[0.09421440972222223,0.03438802083333333],[0.09421440972222223,0.03438802083333333],[0.09421440972222223,0.03438802083333333]]]",2,"[56,77]",,,,,,,,,,,,,,golfcourse6.jpg,space,8.73126,0,6,6,48,1,frontDoor2.jpg,fittingroom5.jpg,golfcourse7.jpg,fabricstore2.jpg,,
Image_List_2,,,,,,,,,,,,,,,,43974,2020-11-19_13h47.33.224,analogCatScenes,2020.1.3,MacIntel,60,"[1440,900]","[[[-0.0014149305555555556,-0.19652777777777777],[-0.0014149305555555556,-0.19652777777777777],[-0.0014149305555555556,-0.19652777777777777],[-0.0014149305555555556,-0.19652777777777777],[-0.0014149305555555556,-0.19652777777777777],[-0.0014149305555555556,-0.19652777777777777],[-0.0014149305555555556,-0.19652777777777777],[-0.0014149305555555556,-0.19652777777777777],[-0.0014149305555555556,-0.19652777777777777],[-0.0014149305555555556,-0.19652777777777777],[-0.0014149305555555556,-0.19652777777777777],[0.0003559027777777778,-0.19614583333333332],[0.0034461805555555556,-0.19496961805555554],[0.007730034722222222,-0.19329427083333334],[0.012421875,-0.19073784722222223],[0.019748263888888888,-0.18780815972222223],[0.03434895833333333,-0.18139322916666667],[0.04595486111111111,-0.1761501736111111],[0.06074652777777778,-0.16971788194444445],[0.07653645833333333,-0.16247395833333333],[0.09232638888888889,-0.15588541666666667],[0.10611979166666667,-0.149609375],[0.1201953125,-0.14471354166666667],[0.13427083333333334,-0.13981770833333335],[0.14647135416666668,-0.13573350694444444],[0.158671875,-0.13168402777777777],[0.17274739583333334,-0.12801215277777778],[0.19240885416666667,-0.12204861111111111],[0.20370225694444444,-0.11865451388888888],[0.21331163194444444,-0.1159765625],[0.22213975694444443,-0.11440104166666666],[0.22821180555555556,-0.11298177083333333],[0.2341579861111111,-0.11250868055555556],[0.23884982638888888,-0.11165364583333333],[0.24187934027777777,-0.1112717013888889],[0.2435546875,-0.1112717013888889],[0.24482204861111112,-0.1112717013888889],[0.24539496527777777,-0.1112717013888889],[0.24568142361111112,-0.11098090277777778],[0.24568142361111112,-0.11098090277777778],[0.24568142361111112,-0.11098090277777778],[0.24568142361111112,-0.11098090277777778]],[[-0.002894965277777778,-0.20018229166666668],[-0.002894965277777778,-0.20018229166666668],[-0.002894965277777778,-0.20018229166666668],[-0.002894965277777778,-0.20018229166666668],[-0.002894965277777778,-0.20018229166666668],[-0.002894965277777778,-0.20018229166666668],[-0.002894965277777778,-0.20018229166666668],[-0.002894965277777778,-0.20018229166666668],[-0.002894965277777778,-0.20018229166666668],[-0.002894965277777778,-0.20018229166666668],[-0.002894965277777778,-0.20018229166666668],[-0.002894965277777778,-0.20018229166666668],[-0.005451388888888889,-0.19980034722222223],[-0.011532118055555556,-0.19655381944444444],[-0.01908420138888889,-0.19252604166666668],[-0.028446180555555554,-0.18702690972222222],[-0.036749131944444444,-0.18233940972222223],[-0.042326388888888886,-0.17950086805555557],[-0.051597222222222225,-0.17450520833333333],[-0.058428819444444446,-0.1710720486111111],[-0.07051215277777778,-0.16603732638888888],[-0.07934895833333333,-0.16292100694444445],[-0.08740451388888888,-0.1599001736111111],[-0.09401909722222222,-0.15706163194444445],[-0.10207465277777777,-0.15454427083333333],[-0.11091145833333334,-0.15193142361111112],[-0.11896701388888889,-0.1494140625],[-0.12780381944444444,-0.14683159722222222],[-0.1351388888888889,-0.14440538194444444],[-0.14049913194444444,-0.14257378472222224],[-0.14579427083333332,-0.14080295138888888],[-0.15108940972222223,-0.13903211805555554],[-0.15724826388888888,-0.1373828125],[-0.16028645833333333,-0.13624131944444445],[-0.16332465277777777,-0.13547743055555556],[-0.16500868055555556,-0.1348046875],[-0.16710069444444445,-0.1341015625],[-0.16919270833333333,-0.13375],[-0.1717578125,-0.1333984375],[-0.17479600694444444,-0.13301649305555555],[-0.1778342013888889,-0.13301649305555555],[-0.18087239583333334,-0.13263454861111112],[-0.1834375,-0.13190104166666666],[-0.18600260416666667,-0.1308203125],[-0.18756510416666666,-0.12957465277777777],[-0.1878862847222222,-0.12864583333333332],[-0.1878862847222222,-0.1277170138888889]]]",2,"[42,47]",,,,,,,,,,,,,,dormroom9.jpg,space,4.551205,0,7,7,36,1,diner14.jpg,dining_car3.jpg,doctor1.jpg,checkoutcounter9.jpg,,
Image_List_2,,,,,,,,,,,,,,,,43974,2020-11-19_13h47.33.224,analogCatScenes,2020.1.3,MacIntel,60,"[1440,900]","[[[-0.0032335069444444442,-0.20509114583333332],[-0.0032335069444444442,-0.20509114583333332],[-0.0032335069444444442,-0.20509114583333332],[-0.0032335069444444442,-0.20509114583333332],[-0.0032335069444444442,-0.20509114583333332],[-0.0032335069444444442,-0.20509114583333332],[-0.0032335069444444442,-0.20509114583333332],[-0.0032335069444444442,-0.20509114583333332],[-0.0032335069444444442,-0.20509114583333332],[-0.0050651041666666665,-0.20509114583333332],[-0.009231770833333333,-0.20509114583333332],[-0.017239583333333332,-0.20509114583333332],[-0.023194444444444445,-0.20509114583333332],[-0.030529513888888887,-0.20509114583333332],[-0.038585069444444446,-0.20509114583333332],[-0.04592013888888889,-0.20461805555555557],[-0.05200086805555556,-0.20328993055555555],[-0.06029947916666667,-0.2017144097222222],[-0.0669140625,-0.1998220486111111],[-0.07227430555555556,-0.19846354166666666],[-0.07973090277777778,-0.19597222222222221],[-0.08389756944444444,-0.1947048611111111],[-0.08859809027777778,-0.1925564236111111],[-0.09622829861111111,-0.18848524305555556],[-0.10092881944444444,-0.18592881944444445],[-0.10528211805555555,-0.18327690972222221],[-0.11239149305555556,-0.1787109375],[-0.11743489583333333,-0.1759375],[-0.12169704861111111,-0.17293836805555557],[-0.1259592013888889,-0.1699392361111111],[-0.1286501736111111,-0.1680078125],[-0.13131076388888888,-0.16610677083333333],[-0.13359375,-0.16382378472222223],[-0.13543402777777777,-0.16163628472222222],[-0.13865885416666668,-0.15682725694444444],[-0.14024305555555555,-0.15325520833333334],[-0.14248697916666667,-0.1478949652777778],[-0.14368923611111112,-0.1437282986111111],[-0.14533854166666665,-0.13962239583333333],[-0.1461328125,-0.13605034722222223],[-0.1473046875,-0.1324782986111111],[-0.14809895833333334,-0.12890625],[-0.1492404513888889,-0.12586805555555555],[-0.1507595486111111,-0.1228298611111111],[-0.15234375,-0.1192578125],[-0.15481770833333333,-0.11309895833333333],[-0.1560546875,-0.10899305555555555],[-0.1572265625,-0.10542100694444445],[-0.15802083333333333,-0.10184895833333334],[-0.15840277777777778,-0.09881076388888889],[-0.15878472222222223,-0.09577256944444444],[-0.15913628472222222,-0.09408854166666666],[-0.15913628472222222,-0.09315972222222223],[-0.15913628472222222,-0.09315972222222223],[-0.15913628472222222,-0.09370225694444445],[-0.1587890625,-0.09474392361111111]],[[-0.0022265625,-0.200546875],[-0.0022265625,-0.200546875],[-0.0022265625,-0.200546875],[-0.0022265625,-0.200546875],[-0.0022265625,-0.200546875],[-0.0022265625,-0.200546875],[-0.0022265625,-0.200546875],[-0.0022265625,-0.200546875],[-0.0022265625,-0.200546875],[-0.0014496527777777778,-0.200546875],[0.0006336805555555555,-0.200546875],[0.0027821180555555555,-0.200546875],[0.0083203125,-0.200546875],[0.013012152777777777,-0.200546875],[0.018958333333333334,-0.200546875],[0.025625,-0.200546875],[0.03295138888888889,-0.200546875],[0.03955729166666667,-0.200546875],[0.04838541666666667,-0.200546875],[0.05926215277777778,-0.200546875],[0.06586805555555555,-0.200546875],[0.07181423611111111,-0.200546875],[0.07710069444444445,-0.200546875],[0.08119791666666666,-0.200546875],[0.08588975694444445,-0.200546875],[0.09058159722222223,-0.200546875],[0.0952734375,-0.200546875],[0.09996527777777778,-0.200546875],[0.10465711805555555,-0.200546875],[0.10934895833333333,-0.19972222222222222],[0.11470052083333333,-0.19972222222222222],[0.12288194444444445,-0.19839409722222223],[0.12703993055555557,-0.19750868055555557],[0.1323263888888889,-0.1966232638888889],[0.13701822916666667,-0.19535590277777778],[0.14368489583333333,-0.19346354166666666],[0.14897135416666665,-0.19125434027777777],[0.15557725694444444,-0.1884157986111111],[0.16240017361111111,-0.18498263888888888],[0.16734375,-0.18233072916666668],[0.17312934027777777,-0.17889756944444443],[0.18305989583333335,-0.1719704861111111],[0.18871961805555557,-0.16771701388888888],[0.19506944444444443,-0.1633420138888889],[0.20072916666666665,-0.15861979166666668],[0.20748263888888888,-0.15239149305555555],[0.21301215277777777,-0.14584635416666666],[0.21854166666666666,-0.13930121527777778],[0.22219184027777777,-0.13463541666666667],[0.22737413194444445,-0.12846788194444445],[0.23246527777777778,-0.12189236111111111],[0.234921875,-0.11819444444444445],[0.2379123263888889,-0.11434027777777778],[0.24106336805555556,-0.11000434027777778],[0.2420138888888889,-0.10872829861111111],[0.2426171875,-0.10779947916666667],[0.2426171875,-0.10779947916666667],[0.2426171875,-0.10779947916666667],[0.2426171875,-0.10779947916666667]]]",2,"[56,59]",,,,,,,,,,,,,,deck2.jpg,space,4.61462,0,8,8,29,1,cornfield2.jpg,cliff2.jpg,constructionSite4.jpg,bridalboutique3.jpg,,
Image_List_2,,,,,,,,,,,,,,,,43974,2020-11-19_13h47.33.224,analogCatScenes,2020.1.3,MacIntel,60,"[1440,900]","[[[-0.004027777777777778,-0.2025954861111111],[-0.004027777777777778,-0.2025954861111111],[-0.004027777777777778,-0.2025954861111111],[-0.004027777777777778,-0.2025954861111111],[-0.004027777777777778,-0.2025954861111111],[-0.004027777777777778,-0.2025954861111111],[-0.004027777777777778,-0.2025954861111111],[-0.004027777777777778,-0.2025954861111111],[-0.004027777777777778,-0.2025954861111111],[-0.004027777777777778,-0.2025954861111111],[-0.004027777777777778,-0.2012890625],[-0.0027994791666666667,-0.19935329861111112],[-0.0008767361111111111,-0.1966623263888889],[0.0021137152777777777,-0.19280815972222223],[0.005638020833333333,-0.18839409722222222],[0.011167534722222223,-0.18184895833333334],[0.016727430555555554,-0.1752734375],[0.023294270833333332,-0.16917100694444445],[0.030234375,-0.16168836805555556],[0.03717447916666667,-0.15420572916666667],[0.0446484375,-0.14672309027777777],[0.055325520833333336,-0.13603298611111111],[0.06154513888888889,-0.12927083333333333],[0.06848524305555556,-0.12232204861111111],[0.07542534722222222,-0.11483940972222222],[0.08389756944444444,-0.10635850694444444],[0.09236979166666667,-0.09787760416666667],[0.10087239583333334,-0.08936631944444444],[0.10762586805555556,-0.08260416666666667],[0.11365885416666667,-0.0765625],[0.11671006944444444,-0.07268229166666666],[0.12036024305555555,-0.06763888888888889],[0.12303819444444444,-0.06342881944444445],[0.12442708333333333,-0.061336805555555554],[0.12503038194444444,-0.06040798611111111],[0.1256032986111111,-0.05982638888888889],[0.12617621527777778,-0.05982638888888889],[0.1264626736111111,-0.05982638888888889],[0.1264626736111111,-0.05982638888888889]]]",1,[39],,,,,,,,,,,,,,frontFoyer4.jpg,space,2.29949,0,9,9,44,1,firestation2.jpg,elevatorOutside1.jpg,foodcourt6.jpg,dock2.jpg,,
Image_List_2,,,,,,,,,,,,,,,,43974,2020-11-19_13h47.33.224,analogCatScenes,2020.1.3,MacIntel,60,"[1440,900]","[[[-0.010373263888888888,-0.20057725694444445],[-0.010373263888888888,-0.20057725694444445],[-0.010373263888888888,-0.20057725694444445],[-0.010373263888888888,-0.20057725694444445],[-0.010373263888888888,-0.20057725694444445],[-0.010373263888888888,-0.20057725694444445],[-0.010373263888888888,-0.20057725694444445],[-0.010373263888888888,-0.20057725694444445],[-0.010373263888888888,-0.20057725694444445],[-0.011271701388888888,-0.20057725694444445],[-0.013836805555555555,-0.19981770833333334],[-0.018129340277777777,-0.19684895833333332],[-0.023324652777777777,-0.1921267361111111],[-0.028203125,-0.18624131944444444],[-0.0333984375,-0.18151475694444444],[-0.03812065972222222,-0.17631944444444445],[-0.042495659722222225,-0.17043402777777777],[-0.047877604166666664,-0.16457899305555557],[-0.053758680555555556,-0.1565625],[-0.059296875,-0.1500173611111111],[-0.06621961805555555,-0.1401388888888889],[-0.07047309027777778,-0.13447048611111112],[-0.07484809027777778,-0.12811197916666667],[-0.07887586805555556,-0.12055989583333333],[-0.08302951388888889,-0.11172309027777778],[-0.08705729166666666,-0.10366753472222222],[-0.09174479166666667,-0.09536458333333334],[-0.09709201388888888,-0.08681423611111111],[-0.10033854166666667,-0.08073350694444445],[-0.10377170138888889,-0.07390190972222223],[-0.107109375,-0.06773003472222222],[-0.11039496527777778,-0.061575520833333335],[-0.11185329861111111,-0.05901041666666667],[-0.1128125,-0.058051215277777776],[-0.11310329861111111,-0.05776041666666667]],[[0.005464409722222222,-0.19821614583333333],[0.005464409722222222,-0.19821614583333333],[0.005464409722222222,-0.19821614583333333],[0.005464409722222222,-0.19821614583333333],[0.005464409722222222,-0.19821614583333333],[0.005464409722222222,-0.19821614583333333],[0.005464409722222222,-0.19821614583333333],[0.005464409722222222,-0.19821614583333333],[0.005464409722222222,-0.19821614583333333],[0.005464409722222222,-0.19821614583333333],[0.005464409722222222,-0.19821614583333333],[0.0054904513888888885,-0.19821614583333333],[0.007573784722222222,-0.19821614583333333],[0.011137152777777777,-0.19821614583333333],[0.01595486111111111,-0.1973611111111111],[0.021901041666666666,-0.19509114583333334],[0.029227430555555555,-0.19213107638888888],[0.037274305555555554,-0.18860677083333333],[0.04610243055555555,-0.184453125],[0.055711805555555556,-0.1801736111111111],[0.06532118055555555,-0.1758940972222222],[0.07439670138888889,-0.17108072916666667],[0.08375,-0.1655815972222222],[0.09899739583333333,-0.15596788194444444],[0.10944010416666666,-0.1483984375],[0.1198828125,-0.14082899305555555],[0.13032552083333335,-0.1332595486111111],[0.14104600694444444,-0.12490885416666667],[0.15358072916666668,-0.11612413194444444],[0.16458333333333333,-0.10693142361111112],[0.17418402777777778,-0.09957899305555555],[0.1840625,-0.09200954861111112],[0.19231770833333334,-0.08540798611111111],[0.20121527777777778,-0.07845052083333333],[0.20780381944444445,-0.07263020833333333],[0.21301649305555556,-0.06819010416666667],[0.217578125,-0.0640625],[0.220859375,-0.060772569444444445],[0.224140625,-0.05789496527777778],[0.227421875,-0.0554296875],[0.23151909722222222,-0.052964409722222223],[0.23467447916666667,-0.050972222222222224],[0.23770399305555556,-0.049453125],[0.2397873263888889,-0.04805555555555555],[0.24187065972222221,-0.04665798611111111],[0.24383246527777777,-0.04465277777777778],[0.2455078125,-0.04331597222222222],[0.2468359375,-0.041631944444444444],[0.24860677083333332,-0.039852430555555554],[0.24987413194444444,-0.03857638888888889],[0.2508550347222222,-0.03723958333333333],[0.25180555555555556,-0.03596354166666667],[0.2527256944444444,-0.0353515625],[0.25332899305555556,-0.03442274305555556],[0.25424913194444443,-0.03381076388888889],[0.25482204861111113,-0.033229166666666664],[0.2553949652777778,-0.03264756944444445],[0.2559678819444444,-0.032065972222222225],[0.2565407986111111,-0.03177517361111111],[0.25682725694444447,-0.031484375],[0.25711371527777777,-0.031484375],[0.2573828125,-0.031484375]]]",2,"[35,62]",,,,,,,,,,,,,,bedroom6.jpg,space,4.397945,0,10,10,12,1,baggageClaim4.jpg,bambooforest5.jpg,bleachers7.jpg,backyard5.jpg,,
Image_List_2,,,,,,,,,,,,,,,,43974,2020-11-19_13h47.33.224,analogCatScenes,2020.1.3,MacIntel,60,"[1440,900]","[[[-0.0030642361111111113,-0.19471354166666666],[-0.0030642361111111113,-0.19471354166666666],[-0.0030642361111111113,-0.19471354166666666],[-0.0030642361111111113,-0.19471354166666666],[-0.0030642361111111113,-0.19471354166666666],[-0.0030642361111111113,-0.19471354166666666],[-0.0030642361111111113,-0.19471354166666666],[-0.0030642361111111113,-0.19471354166666666],[-0.0030642361111111113,-0.19471354166666666],[-0.0030642361111111113,-0.19471354166666666],[-0.0035807291666666665,-0.19471354166666666],[-0.006145833333333333,-0.19471354166666666],[-0.01154513888888889,-0.19471354166666666],[-0.0175,-0.19471354166666666],[-0.02493923611111111,-0.19471354166666666],[-0.03299479166666667,-0.19421006944444444],[-0.039075520833333335,-0.19279079861111112],[-0.04803385416666667,-0.19014756944444444],[-0.0546484375,-0.18778211805555556],[-0.06198350694444445,-0.18485243055555556],[-0.06859809027777777,-0.1820138888888889],[-0.07546006944444444,-0.17864149305555554],[-0.07975260416666667,-0.17608506944444444],[-0.08622395833333334,-0.17131944444444444],[-0.090078125,-0.1679079861111111],[-0.09455729166666667,-0.1639019097222222],[-0.09934461805555556,-0.1599956597222222],[-0.10319878472222223,-0.15699652777777778],[-0.1088671875,-0.15227430555555554],[-0.11321614583333334,-0.14739149305555554],[-0.11746961805555556,-0.14219618055555555],[-0.12125434027777778,-0.13652777777777778],[-0.1255078125,-0.130859375],[-0.12991753472222223,-0.12450086805555556],[-0.13606336805555555,-0.11599826388888888],[-0.14047309027777777,-0.10963975694444444],[-0.14437934027777777,-0.10328125],[-0.14840711805555556,-0.09623263888888889],[-0.1513064236111111,-0.08990451388888888],[-0.153671875,-0.08328993055555556],[-0.1561892361111111,-0.075234375],[-0.1581423611111111,-0.06789930555555555],[-0.16038628472222222,-0.0625390625],[-0.1627517361111111,-0.0562109375],[-0.1651171875,-0.0498828125],[-0.16751302083333333,-0.04320746527777778],[-0.16922309027777777,-0.036393229166666666],[-0.17010850694444443,-0.03109809027777778],[-0.17010850694444443,-0.0269921875],[-0.17052083333333334,-0.022886284722222223],[-0.17052083333333334,-0.01984809027777778],[-0.17052083333333334,-0.01775607638888889],[-0.17052083333333334,-0.01642361111111111],[-0.17052083333333334,-0.01642361111111111],[-0.17052083333333334,-0.01642361111111111]],[[0.0004904513888888889,-0.20446180555555554],[0.0004904513888888889,-0.20446180555555554],[0.0004904513888888889,-0.20446180555555554],[0.0004904513888888889,-0.20446180555555554],[0.0004904513888888889,-0.20446180555555554],[0.0004904513888888889,-0.20446180555555554],[0.0004904513888888889,-0.20446180555555554],[0.0004904513888888889,-0.20446180555555554],[0.0004904513888888889,-0.20446180555555554],[0.0004904513888888889,-0.20446180555555554],[0.0004904513888888889,-0.20446180555555554],[0.0004904513888888889,-0.20446180555555554],[0.0010026041666666666,-0.20446180555555554],[0.005980902777777778,-0.20446180555555554],[0.010138888888888888,-0.20446180555555554],[0.016805555555555556,-0.20446180555555554],[0.024131944444444445,-0.2049609375],[0.033741319444444445,-0.20602864583333333],[0.042569444444444444,-0.20756510416666665],[0.050616319444444446,-0.20906684027777778],[0.06106770833333333,-0.21016493055555555],[0.07236111111111111,-0.21072916666666666],[0.08456163194444444,-0.2113237847222222],[0.09585503472222222,-0.2113237847222222],[0.1111111111111111,-0.2113237847222222],[0.11993923611111111,-0.2113237847222222],[0.12876736111111112,-0.2113237847222222],[0.1375954861111111,-0.20977864583333333],[0.1464236111111111,-0.20769965277777777],[0.1560329861111111,-0.20608940972222223],[0.16486111111111112,-0.20454427083333335],[0.17368923611111112,-0.20246527777777779],[0.1825173611111111,-0.20038628472222222],[0.1913454861111111,-0.19780381944444445],[0.1993923611111111,-0.19528645833333333],[0.2107421875,-0.19084635416666668],[0.21806857638888888,-0.18741319444444443],[0.2268967013888889,-0.1832595486111111],[0.23706163194444443,-0.17760850694444444],[0.2456032986111111,-0.1722612847222222],[0.25439236111111113,-0.16619357638888888],[0.26164930555555554,-0.16046875],[0.26611979166666666,-0.1564626736111111],[0.27186631944444445,-0.1514236111111111],[0.2780685763888889,-0.14565104166666668],[0.2814670138888889,-0.14180555555555555],[0.2838324652777778,-0.13901909722222222],[0.2862890625,-0.13532118055555556],[0.28779947916666665,-0.1322829861111111],[0.289375,-0.1287109375],[0.2905078125,-0.12567274305555556],[0.2915798611111111,-0.12310763888888888],[0.29227430555555556,-0.121015625],[0.29290798611111113,-0.11973958333333333],[0.2934809027777778,-0.11915798611111111],[0.2934809027777778,-0.11915798611111111],[0.2934809027777778,-0.11915798611111111]]]",2,"[55,57]",,,,,,,,,,,,,,office3.jpg,space,4.88048,0,11,11,66,1,library_aisle10.jpg,laundromat3.jpg,liquorstore.jpg,horsebarn9.jpg,,
Image_List_2,,,,,,,,,,,,,,,,43974,2020-11-19_13h47.33.224,analogCatScenes,2020.1.3,MacIntel,60,"[1440,900]","[[[-0.004861111111111111,-0.20022135416666667],[-0.004861111111111111,-0.20022135416666667],[-0.004861111111111111,-0.20022135416666667],[-0.004861111111111111,-0.20022135416666667],[-0.004861111111111111,-0.20022135416666667],[-0.004861111111111111,-0.20022135416666667],[-0.004861111111111111,-0.20022135416666667],[-0.004861111111111111,-0.20022135416666667],[-0.004861111111111111,-0.20022135416666667],[-0.004861111111111111,-0.20022135416666667],[-0.004861111111111111,-0.20022135416666667],[-0.004861111111111111,-0.20022135416666667],[-0.0039713541666666664,-0.20022135416666667],[-0.0014149305555555556,-0.20022135416666667],[0.0011414930555555555,-0.20022135416666667],[0.004704861111111111,-0.20022135416666667],[0.007734375,-0.20022135416666667],[0.011297743055555556,-0.1998090277777778],[0.013949652777777778,-0.1979079861111111],[0.017864583333333333,-0.1943923611111111],[0.02064236111111111,-0.19160590277777778],[0.023511284722222223,-0.1883159722222222],[0.025967881944444444,-0.18502604166666667],[0.028424479166666666,-0.1817361111111111],[0.03129340277777778,-0.17844618055555556],[0.03375,-0.17515625],[0.03567274305555555,-0.17205729166666667],[0.03724826388888889,-0.16848524305555557],[0.038381076388888886,-0.16544704861111112],[0.03916666666666667,-0.161875],[0.04042100694444444,-0.15512152777777777],[0.04126736111111111,-0.15042100694444444],[0.04167534722222222,-0.14631510416666665],[0.04205295138888889,-0.14274305555555555],[0.042430555555555555,-0.1397048611111111],[0.042430555555555555,-0.13761284722222222],[0.042430555555555555,-0.13552083333333334],[0.042430555555555555,-0.13383680555555555],[0.042430555555555555,-0.13256076388888888],[0.042430555555555555,-0.13197916666666668],[0.042430555555555555,-0.13168836805555556],[0.042430555555555555,-0.13168836805555556]],[[-0.002439236111111111,-0.20133680555555555],[-0.002439236111111111,-0.20133680555555555],[-0.002439236111111111,-0.20133680555555555],[-0.002439236111111111,-0.20133680555555555],[-0.002439236111111111,-0.20133680555555555],[-0.002439236111111111,-0.20133680555555555],[-0.002439236111111111,-0.20133680555555555],[-0.002439236111111111,-0.20133680555555555],[-0.0032161458333333334,-0.20133680555555555],[-0.005373263888888889,-0.20133680555555555],[-0.010073784722222222,-0.20133680555555555],[-0.017530381944444444,-0.20133680555555555],[-0.0263671875,-0.20133680555555555],[-0.035203993055555556,-0.20133680555555555],[-0.04404079861111111,-0.20133680555555555],[-0.05612413194444445,-0.20133680555555555],[-0.0641796875,-0.20133680555555555],[-0.07223524305555555,-0.20133680555555555],[-0.0826953125,-0.20133680555555555],[-0.09315538194444445,-0.20133680555555555],[-0.10445746527777777,-0.20076822916666667],[-0.11491753472222223,-0.20076822916666667],[-0.12537760416666666,-0.20076822916666667],[-0.1366796875,-0.20076822916666667],[-0.15453993055555557,-0.20076822916666667],[-0.1658420138888889,-0.20076822916666667],[-0.1771440972222222,-0.20076822916666667],[-0.18760416666666666,-0.20076822916666667],[-0.19722222222222222,-0.20076822916666667],[-0.20527777777777778,-0.20076822916666667],[-0.21333333333333335,-0.20076822916666667],[-0.22138888888888889,-0.20076822916666667],[-0.23022569444444443,-0.20023003472222223],[-0.2390625,-0.1997265625],[-0.24711805555555555,-0.19871961805555555],[-0.2559548611111111,-0.1981814236111111],[-0.26479166666666665,-0.19713975694444444],[-0.27490017361111113,-0.19622395833333334],[-0.28151475694444444,-0.19575086805555555],[-0.28784288194444446,-0.1952126736111111],[-0.29313802083333335,-0.1947699652777778],[-0.2978385416666667,-0.19432725694444444],[-0.3014105902777778,-0.1939453125],[-0.3044487847222222,-0.19356336805555555],[-0.3061328125,-0.19321180555555556],[-0.30706163194444447,-0.192890625],[-0.30735243055555556,-0.192890625],[-0.30735243055555556,-0.192890625],[-0.3070920138888889,-0.192890625]],[[0.004001736111111111,-0.20955295138888888],[0.004001736111111111,-0.20955295138888888],[0.004001736111111111,-0.20955295138888888],[0.004001736111111111,-0.20955295138888888],[0.004001736111111111,-0.20955295138888888],[0.004001736111111111,-0.20955295138888888],[0.004001736111111111,-0.20955295138888888],[0.004001736111111111,-0.20955295138888888],[0.004001736111111111,-0.20955295138888888],[0.004001736111111111,-0.20955295138888888],[0.004001736111111111,-0.20955295138888888],[0.004001736111111111,-0.20955295138888888],[0.004001736111111111,-0.20955295138888888],[0.004001736111111111,-0.20955295138888888],[0.004001736111111111,-0.20955295138888888],[0.004891493055555555,-0.20955295138888888],[0.010030381944444444,-0.20955295138888888],[0.015381944444444445,-0.20955295138888888],[0.022708333333333334,-0.20955295138888888],[0.031536458333333336,-0.20848090277777778],[0.040364583333333336,-0.20794270833333334],[0.05081597222222222,-0.2068359375],[0.060425347222222224,-0.20575954861111112],[0.07003472222222222,-0.20468315972222223],[0.07808159722222222,-0.20317274305555555],[0.08577690972222222,-0.20219184027777778],[0.09263020833333334,-0.20070746527777777],[0.1025390625,-0.19881510416666667],[0.10723090277777778,-0.19751736111111112],[0.11355034722222222,-0.19606336805555555],[0.12165798611111112,-0.19451822916666667],[0.1282638888888889,-0.19309895833333332],[0.13486979166666666,-0.19120659722222222],[0.13956163194444443,-0.18990885416666667],[0.14700954861111112,-0.18795138888888888],[0.15332899305555556,-0.18611979166666667],[0.1592751736111111,-0.18381510416666666],[0.1673220486111111,-0.1818012152777778],[0.1801736111111111,-0.1776779513888889],[0.18900173611111112,-0.17506510416666668],[0.1986111111111111,-0.17238715277777777],[0.2082204861111111,-0.16917534722222222],[0.21704861111111112,-0.16605902777777778],[0.2266579861111111,-0.1617795138888889],[0.236328125,-0.15750434027777777],[0.24736979166666667,-0.1516970486111111],[0.25753472222222223,-0.14604600694444445],[0.26438802083333335,-0.1426736111111111],[0.27142795138888887,-0.13864583333333333],[0.27915364583333335,-0.1344965277777778],[0.28648871527777775,-0.1314626736111111],[0.29118055555555555,-0.12934461805555555],[0.29587239583333336,-0.12807725694444444],[0.29996961805555555,-0.12642795138888888],[0.30299913194444444,-0.12528645833333332],[0.30602864583333333,-0.12376736111111111],[0.30811197916666666,-0.12271701388888889],[0.3097873263888889,-0.12204427083333333],[0.31146267361111113,-0.1210546875],[0.3127300347222222,-0.12009548611111111],[0.31399739583333336,-0.11913628472222222],[0.3155512152777778,-0.118203125],[0.31612413194444444,-0.118203125],[0.31612413194444444,-0.118203125],[0.31612413194444444,-0.118203125],[0.31612413194444444,-0.118203125]]]",3,"[42,49,66]",,,,,,,,,,,,,,newsstand7.jpg,space,6.53031,0,12,12,65,1,igloo5.jpg,laundromat2.jpeg,labClass7.jpg,homeoffice8.jpg,,
Image_List_2,,,,,,,,,,,,,,,,43974,2020-11-19_13h47.33.224,analogCatScenes,2020.1.3,MacIntel,60,"[1440,900]","[[[0.0024175347222222224,-0.19827256944444444],[0.0024175347222222224,-0.19827256944444444],[0.0024175347222222224,-0.19827256944444444],[0.0024175347222222224,-0.19827256944444444],[0.0024175347222222224,-0.19827256944444444],[0.0024175347222222224,-0.19827256944444444],[0.0024175347222222224,-0.19827256944444444],[0.0024175347222222224,-0.19827256944444444],[0.0024175347222222224,-0.19827256944444444],[0.0024175347222222224,-0.19827256944444444],[0.0024175347222222224,-0.19827256944444444],[0.0024175347222222224,-0.19827256944444444],[0.0024175347222222224,-0.19827256944444444],[0.0029600694444444444,-0.19827256944444444],[0.005108506944444444,-0.19827256944444444],[0.008671875,-0.19827256944444444],[0.013489583333333333,-0.19827256944444444],[0.0198828125,-0.19615017361111112],[0.025828993055555555,-0.1938454861111111],[0.033155381944444444,-0.1909157986111111],[0.03976128472222222,-0.18807725694444444],[0.0463671875,-0.18523871527777777],[0.053693576388888886,-0.18230902777777777],[0.061019965277777775,-0.17937934027777777],[0.06715277777777778,-0.17606770833333332],[0.07350260416666667,-0.17216145833333332],[0.08054253472222223,-0.16813368055555555],[0.08689236111111111,-0.16325520833333335],[0.09136284722222222,-0.15966145833333334],[0.10028645833333333,-0.15166666666666667],[0.10318576388888889,-0.14831597222222223],[0.10815104166666667,-0.1423654513888889],[0.11135850694444445,-0.13688368055555555],[0.11399739583333333,-0.13158854166666667],[0.11625868055555555,-0.12563368055555554],[0.11826822916666667,-0.11877170138888889],[0.11911458333333333,-0.1139453125],[0.11999131944444444,-0.10865017361111111],[0.1204296875,-0.10335503472222222],[0.1204296875,-0.09924913194444444],[0.12004774305555556,-0.0941579861111111],[0.11852864583333333,-0.09111979166666667],[0.1161545138888889,-0.08833333333333333],[0.11286458333333334,-0.08586805555555556],[0.10957465277777778,-0.08340277777777778],[0.10453125,-0.07974392361111111],[0.10011284722222222,-0.0762109375],[0.09444444444444444,-0.07242621527777778],[0.09059027777777778,-0.06942708333333333],[0.086484375,-0.06696180555555556],[0.08032552083333333,-0.0644921875],[0.07675347222222222,-0.06369791666666667],[0.07418836805555555,-0.06296440972222223],[0.07209635416666667,-0.06261284722222223],[0.07041232638888889,-0.06261284722222223],[0.06983072916666666,-0.06261284722222223],[0.06983072916666666,-0.06288194444444445],[0.06983072916666666,-0.06392361111111111]],[[0.0005512152777777777,-0.20246961805555555],[0.0005512152777777777,-0.20246961805555555],[0.0005512152777777777,-0.20246961805555555],[0.0005512152777777777,-0.20246961805555555],[0.0005512152777777777,-0.20246961805555555],[0.0005512152777777777,-0.20246961805555555],[0.0005512152777777777,-0.20246961805555555],[0.0005512152777777777,-0.20246961805555555],[0.0005512152777777777,-0.20246961805555555],[-0.001015625,-0.20246961805555555],[-0.004587673611111111,-0.20246961805555555],[-0.0098828125,-0.20246961805555555],[-0.017938368055555556,-0.20246961805555555],[-0.0283984375,-0.20246961805555555],[-0.039700520833333336,-0.20246961805555555],[-0.05281684027777778,-0.20246961805555555],[-0.06690104166666666,-0.20246961805555555],[-0.08098524305555556,-0.20246961805555555],[-0.09884548611111112,-0.20246961805555555],[-0.11014756944444444,-0.20246961805555555],[-0.118984375,-0.2014279513888889],[-0.12782118055555555,-0.1988454861111111],[-0.1366579861111111,-0.19676649305555555],[-0.14549479166666668,-0.19418402777777777],[-0.15355034722222222,-0.19166666666666668],[-0.15963107638888888,-0.188828125],[-0.16733506944444446,-0.1861545138888889],[-0.17366319444444445,-0.18325520833333334],[-0.17961805555555554,-0.18051215277777777],[-0.1878125,-0.1769184027777778],[-0.19251302083333333,-0.17476996527777777],[-0.19721354166666666,-0.17262152777777778],[-0.2007855902777778,-0.17103732638888888],[-0.20382378472222223,-0.16951822916666667],[-0.20591579861111112,-0.16846788194444445],[-0.20759982638888888,-0.16811631944444444],[-0.20928385416666667,-0.16744357638888888],[-0.21055989583333334,-0.16712239583333333],[-0.21148871527777777,-0.16712239583333333],[-0.21177951388888888,-0.1668315972222222],[-0.21177951388888888,-0.1668315972222222],[-0.21177951388888888,-0.1668315972222222]],[[0.0023350694444444443,-0.20077256944444444],[0.0023350694444444443,-0.20077256944444444],[0.0023350694444444443,-0.20077256944444444],[0.0023350694444444443,-0.20077256944444444],[0.0023350694444444443,-0.20077256944444444],[0.0023350694444444443,-0.20077256944444444],[0.0023350694444444443,-0.20077256944444444],[0.0023350694444444443,-0.20077256944444444],[0.0023350694444444443,-0.20077256944444444],[0.0023350694444444443,-0.20077256944444444],[0.0023350694444444443,-0.20077256944444444],[0.0023350694444444443,-0.20077256944444444],[0.0023350694444444443,-0.20077256944444444],[0.0023350694444444443,-0.20077256944444444],[0.004361979166666667,-0.20077256944444444],[0.006918402777777778,-0.20001302083333333],[0.011076388888888889,-0.19836805555555556],[0.018159722222222223,-0.1947699652777778],[0.0236328125,-0.19155381944444444],[0.02998263888888889,-0.18764756944444444],[0.037022569444444445,-0.18311631944444445],[0.0440625,-0.17808159722222222],[0.05081597222222222,-0.17185329861111112],[0.058854166666666666,-0.16594184027777778],[0.067109375,-0.1593402777777778],[0.07614583333333333,-0.15255208333333334],[0.08440104166666666,-0.14541666666666667],[0.09265625,-0.13828125],[0.10013020833333333,-0.13133246527777778],[0.11212239583333333,-0.1209592013888889],[0.12037760416666667,-0.11379340277777777],[0.1278515625,-0.10737847222222222],[0.13532552083333332,-0.09989583333333334],[0.14279947916666666,-0.09294704861111111],[0.1518359375,-0.08559461805555556],[0.16087239583333332,-0.0782421875],[0.16990885416666668,-0.07088975694444444],[0.1781640625,-0.06372395833333333],[0.18720052083333333,-0.05637152777777778],[0.19623697916666666,-0.04845486111111111],[0.20979166666666665,-0.03714409722222222],[0.21516927083333334,-0.032703993055555554],[0.22035590277777778,-0.027981770833333332],[0.22420138888888888,-0.024982638888888888],[0.2260329861111111,-0.02279513888888889],[0.22730034722222223,-0.0218359375],[0.22790364583333333,-0.020907118055555556],[0.2284765625,-0.020325520833333333],[0.22904947916666665,-0.02003472222222222],[0.22904947916666665,-0.02003472222222222],[0.22931423611111112,-0.02003472222222222],[0.22931423611111112,-0.02003472222222222]]]",3,"[58,42,52]",,,,,,,,,,,,,,homeoffice.jpg,space,7.200775,0,13,13,53,1,gazebo3.jpg,frontLawn3.jpg,homegarage3.jpg,fountain.jpg,,
Image_List_2,,,,,,,,,,,,,,,,43974,2020-11-19_13h47.33.224,analogCatScenes,2020.1.3,MacIntel,60,"[1440,900]","[[[-0.0005381944444444444,-0.1999262152777778],[-0.0005381944444444444,-0.1999262152777778],[-0.0005381944444444444,-0.1999262152777778],[-0.0005381944444444444,-0.1999262152777778],[-0.0005381944444444444,-0.1999262152777778],[-0.0005381944444444444,-0.1999262152777778],[-0.0005381944444444444,-0.1999262152777778],[-0.0005381944444444444,-0.1999262152777778],[-0.0005381944444444444,-0.1999262152777778],[-0.0005381944444444444,-0.1999262152777778],[-0.002105034722222222,-0.19896701388888888],[-0.004856770833333334,-0.1965625],[-0.009149305555555556,-0.19359375],[-0.0148828125,-0.18981336805555554],[-0.020616319444444444,-0.1860329861111111],[-0.025811631944444444,-0.1813107638888889],[-0.031006944444444445,-0.1761154513888889],[-0.037421875,-0.1686328125],[-0.04418402777777778,-0.16187065972222223],[-0.051666666666666666,-0.15438802083333333],[-0.062890625,-0.14423177083333333],[-0.06965277777777777,-0.13800347222222223],[-0.07431857638888889,-0.13333767361111112],[-0.08023003472222222,-0.12742621527777778],[-0.084765625,-0.12176215277777777],[-0.08776475694444444,-0.1175],[-0.09023003472222223,-0.11380208333333333],[-0.09168836805555555,-0.11123697916666667],[-0.0930859375,-0.10914496527777778],[-0.09407552083333333,-0.1074609375],[-0.09503472222222223,-0.10618489583333333],[-0.09628472222222222,-0.10493489583333333],[-0.09657552083333333,-0.10435329861111112],[-0.09715711805555556,-0.1040625],[-0.09743055555555556,-0.1040625],[-0.09801215277777778,-0.10377170138888889],[-0.09830295138888889,-0.10377170138888889],[-0.0988671875,-0.10377170138888889],[-0.09944878472222222,-0.10348090277777777],[-0.10037760416666666,-0.10255208333333334],[-0.10133680555555556,-0.10127604166666666],[-0.102265625,-0.10034722222222223],[-0.10287760416666666,-0.09941840277777778],[-0.10412760416666667,-0.09816840277777777],[-0.10441840277777778,-0.09787760416666667],[-0.10498263888888888,-0.09731336805555556],[-0.1052734375,-0.0963845486111111],[-0.10588541666666666,-0.09545572916666667],[-0.10655815972222223,-0.09377170138888889],[-0.10720052083333333,-0.09249565972222222],[-0.10815972222222223,-0.09121961805555556],[-0.10877170138888889,-0.09029079861111111],[-0.1090625,-0.09],[-0.1090625,-0.09],[-0.1090625,-0.09],[-0.1090625,-0.09]],[[-0.002052951388888889,-0.19849392361111112],[-0.002052951388888889,-0.19849392361111112],[-0.002052951388888889,-0.19849392361111112],[-0.002052951388888889,-0.19849392361111112],[-0.002052951388888889,-0.19849392361111112],[-0.002052951388888889,-0.19849392361111112],[-0.002052951388888889,-0.19849392361111112],[-0.002052951388888889,-0.19849392361111112],[-0.002052951388888889,-0.19849392361111112],[-0.002052951388888889,-0.19849392361111112],[-0.002052951388888889,-0.19849392361111112],[-0.002052951388888889,-0.19849392361111112],[-0.002052951388888889,-0.19849392361111112],[-0.001796875,-0.19823350694444444],[0.0013585069444444445,-0.19582899305555557],[0.006393229166666667,-0.19170138888888888],[0.012743055555555556,-0.18682291666666667],[0.020750868055555555,-0.18094184027777777],[0.032100694444444446,-0.17315538194444444],[0.04310329861111111,-0.1639626736111111],[0.055013020833333336,-0.1539236111111111],[0.07256510416666667,-0.13887152777777778],[0.08509982638888888,-0.12883680555555554],[0.09700954861111111,-0.11880208333333334],[0.10829427083333333,-0.10876736111111111],[0.119296875,-0.09957465277777777],[0.13120659722222222,-0.08953993055555555],[0.14311631944444445,-0.08013020833333333],[0.15565104166666666,-0.0707204861111111],[0.1678732638888889,-0.05977864583333333],[0.1804079861111111,-0.04974392361111111],[0.19767795138888888,-0.03553385416666666],[0.20780381944444445,-0.026588541666666667],[0.21733506944444445,-0.01704861111111111],[0.22686631944444444,-0.007508680555555556],[0.2369921875,0.0014366319444444444],[0.24549479166666666,0.009947916666666667],[0.25375,0.017113715277777778],[0.26122395833333334,0.023528645833333334],[0.26776041666666667,0.029066840277777777],[0.2722309027777778,0.032660590277777776],[0.277890625,0.0369140625],[0.28173611111111113,0.039913194444444446],[0.28605902777777775,0.04307725694444445],[0.2874175347222222,0.0444140625],[0.2883376736111111,0.04502604166666667],[0.28891059027777777,0.04531684027777778],[0.2891970486111111,0.04560763888888889],[0.2891970486111111,0.04560763888888889],[0.2891970486111111,0.04560763888888889],[0.2891970486111111,0.04560763888888889]]]",2,"[56,51]",,,,,,,,,,,,,,photographer_studio2.jpg,space,4.450175,0,14,14,73,1,musicStore3.jpg,nursery.jpg,nursery4.jpg,library_aisle9.jpg,,
Image_List_2,,,,,,,,,,,,,,,,43974,2020-11-19_13h47.33.224,analogCatScenes,2020.1.3,MacIntel,60,"[1440,900]","[[[0.0013541666666666667,-0.19688802083333334],[0.0013541666666666667,-0.19688802083333334],[0.0013541666666666667,-0.19688802083333334],[0.0013541666666666667,-0.19688802083333334],[0.0013541666666666667,-0.19688802083333334],[0.0013541666666666667,-0.19688802083333334],[0.0013541666666666667,-0.19688802083333334],[0.0013541666666666667,-0.19688802083333334],[0.0013541666666666667,-0.19688802083333334],[0.0013541666666666667,-0.19688802083333334],[0.0013541666666666667,-0.19688802083333334],[0.0013541666666666667,-0.19688802083333334],[0.0013541666666666667,-0.19637152777777778],[0.0013541666666666667,-0.1938064236111111],[0.0013541666666666667,-0.1878515625],[0.0013541666666666667,-0.17823350694444445],[0.0013541666666666667,-0.1669314236111111],[0.0013541666666666667,-0.14907118055555554],[0.0019487847222222222,-0.13686197916666668],[0.0025130208333333333,-0.12555989583333332],[0.0025130208333333333,-0.1150998263888889],[0.0025130208333333333,-0.10548177083333334],[0.0025130208333333333,-0.09861979166666666],[0.0025130208333333333,-0.09128472222222223],[0.0025130208333333333,-0.08598958333333333],[0.0025130208333333333,-0.0812890625],[0.0025130208333333333,-0.07825086805555556],[0.002131076388888889,-0.07521267361111111],[0.0013671875,-0.07059461805555556],[0.0009548611111111111,-0.06749565972222223],[0.0005425347222222222,-0.06338975694444444],[0.00013020833333333333,-0.059283854166666664],[-0.00028211805555555553,-0.05517795138888889],[-0.0011371527777777777,-0.050104166666666665],[-0.0020225694444444445,-0.04480902777777778],[-0.003029513888888889,-0.038728298611111114],[-0.0035329861111111113,-0.03318142361111111],[-0.004006076388888889,-0.0272265625],[-0.004448784722222222,-0.02127170138888889],[-0.005425347222222222,-0.010629340277777777],[-0.005928819444444444,-0.002573784722222222],[-0.005928819444444444,0.005542534722222222],[-0.005928819444444444,0.012877604166666667],[-0.005928819444444444,0.02021267361111111],[-0.006310763888888889,0.02575954861111111],[-0.006310763888888889,0.03237413194444445],[-0.006310763888888889,0.03832899305555556],[-0.006310763888888889,0.04362413194444444],[-0.006814236111111111,0.04917100694444444],[-0.006814236111111111,0.05446614583333333],[-0.007256944444444444,0.06181423611111111],[-0.0076692708333333335,0.06651475694444445],[-0.0076692708333333335,0.07121527777777778],[-0.008111979166666667,0.07591579861111111],[-0.00861545138888889,0.08199652777777777],[-0.00911892361111111,0.08754340277777778],[-0.009943576388888889,0.09171006944444444],[-0.011271701388888888,0.09700520833333333],[-0.012981770833333333,0.10170572916666666],[-0.014973958333333334,0.10486979166666667],[-0.01675347222222222,0.10664930555555556],[-0.019075520833333335,0.10830729166666667],[-0.02003472222222222,0.10926649305555555],[-0.02064670138888889,0.1101953125],[-0.0209375,0.11106770833333333],[-0.021228298611111113,0.11135850694444445],[-0.021228298611111113,0.11163194444444445],[-0.021228298611111113,0.11163194444444445],[-0.021228298611111113,0.11163194444444445],[-0.02069878472222222,0.11163194444444445],[-0.01943142361111111,0.11163194444444445],[-0.01775607638888889,0.11163194444444445],[-0.016549479166666665,0.11192274305555555],[-0.0159765625,0.11221354166666667],[-0.015690104166666666,0.11250434027777778]]]",1,[75],,,,,,,,,,,,,,sandDunes_desert_outdoor9.jpg,space,3.381425,0,15,15,82,1,publicrestroom2.jpg,promenadeDeck3.jpg,readingroom4.jpg,postoffice4.jpg,,
Image_List_2,,,,,,,,,,,,,,,,43974,2020-11-19_13h47.33.224,analogCatScenes,2020.1.3,MacIntel,60,"[1440,900]","[[[-0.0021788194444444446,-0.20394965277777777],[-0.0021788194444444446,-0.20394965277777777],[-0.0021788194444444446,-0.20394965277777777],[-0.0021788194444444446,-0.20394965277777777],[-0.0021788194444444446,-0.20394965277777777],[-0.0021788194444444446,-0.20394965277777777],[-0.0021788194444444446,-0.20394965277777777],[-0.0021788194444444446,-0.20394965277777777],[-0.0021788194444444446,-0.20394965277777777],[-0.0021788194444444446,-0.20305121527777778],[-0.0021788194444444446,-0.19947916666666668],[-0.0021788194444444446,-0.1926171875],[-0.00010850694444444444,-0.18378038194444443],[0.0032378472222222223,-0.1696657986111111],[0.0069010416666666664,-0.15558159722222223],[0.011163194444444444,-0.14149739583333334],[0.01580295138888889,-0.12928819444444445],[0.02103732638888889,-0.11767361111111112],[0.026744791666666667,-0.10690104166666667],[0.033463541666666666,-0.09589409722222222],[0.037235243055555554,-0.09016059027777777],[0.04010416666666667,-0.08687065972222222],[0.041493055555555554,-0.08477864583333333],[0.04206597222222222,-0.08419704861111112],[0.042638888888888886,-0.08361545138888889],[0.04292534722222222,-0.08361545138888889],[0.04292534722222222,-0.08361545138888889],[0.04292534722222222,-0.08361545138888889],[0.04292534722222222,-0.08361545138888889]],[[-0.009231770833333333,-0.2004123263888889],[-0.009231770833333333,-0.2004123263888889],[-0.009231770833333333,-0.2004123263888889],[-0.009231770833333333,-0.2004123263888889],[-0.009231770833333333,-0.2004123263888889],[-0.009231770833333333,-0.2004123263888889],[-0.009231770833333333,-0.2004123263888889],[-0.009231770833333333,-0.2004123263888889],[-0.009231770833333333,-0.2004123263888889],[-0.009231770833333333,-0.2004123263888889],[-0.009231770833333333,-0.2004123263888889],[-0.009231770833333333,-0.2004123263888889],[-0.009231770833333333,-0.2004123263888889],[-0.009231770833333333,-0.2004123263888889],[-0.009231770833333333,-0.2004123263888889],[-0.009231770833333333,-0.2004123263888889],[-0.0115234375,-0.2004123263888889],[-0.016883680555555555,-0.2004123263888889],[-0.02355902777777778,-0.2004123263888889],[-0.030894097222222222,-0.1994357638888889],[-0.03697482638888889,-0.19851996527777777],[-0.04414496527777778,-0.19756944444444444],[-0.050099826388888886,-0.19665364583333333],[-0.05942274305555555,-0.19476128472222223],[-0.06537760416666667,-0.1929296875],[-0.07343315972222222,-0.1904123263888889],[-0.08226996527777777,-0.18676215277777777],[-0.09188802083333333,-0.18301649305555556],[-0.10178385416666667,-0.17805121527777779],[-0.11086805555555555,-0.1732378472222222],[-0.12076388888888889,-0.16827256944444444],[-0.13181423611111112,-0.16187065972222223],[-0.14374131944444443,-0.15471788194444444],[-0.1550998263888889,-0.1469314236111111],[-0.17125868055555554,-0.13496961805555555],[-0.17952256944444445,-0.12780381944444444],[-0.18700520833333334,-0.12085503472222223],[-0.19395399305555555,-0.11337239583333333],[-0.20018229166666668,-0.10661024305555555],[-0.20731770833333332,-0.09834635416666666],[-0.21373263888888888,-0.09086371527777778],[-0.21964409722222222,-0.08281684027777778],[-0.2255251736111111,-0.07480034722222222],[-0.23125,-0.06753472222222222],[-0.23550347222222223,-0.0624609375],[-0.24249131944444444,-0.05345920138888889],[-0.24561631944444445,-0.04857204861111111],[-0.24817274305555556,-0.04387152777777778],[-0.2506380208333333,-0.04017361111111111],[-0.2520355902777778,-0.03808159722222222],[-0.2534678819444444,-0.03664930555555555],[-0.25439670138888887,-0.03603732638888889],[-0.25439670138888887,-0.03603732638888889],[-0.25439670138888887,-0.03603732638888889],[-0.25439670138888887,-0.03603732638888889]]]",2,"[29,55]",,,,,,,,,,,,,,diningroom1.jpg,space,4.549355,0,16,16,33,1,deck1.jpg,courthouse2.jpg,diner10.jpg,cabinIndoors5.jpg,,
Image_List_2,,,,,,,,,,,,,,,,43974,2020-11-19_13h47.33.224,analogCatScenes,2020.1.3,MacIntel,60,"[1440,900]","[[[-0.00021701388888888888,-0.19480902777777778],[-0.00021701388888888888,-0.19480902777777778],[-0.00021701388888888888,-0.19480902777777778],[-0.00021701388888888888,-0.19480902777777778],[-0.00021701388888888888,-0.19480902777777778],[-0.00021701388888888888,-0.19480902777777778],[-0.00021701388888888888,-0.19480902777777778],[-0.0007378472222222222,-0.19480902777777778],[-0.002421875,-0.19480902777777778],[-0.005993923611111111,-0.19480902777777778],[-0.009565972222222222,-0.19480902777777778],[-0.014266493055555555,-0.19480902777777778],[-0.020221354166666667,-0.19250434027777777],[-0.0268359375,-0.19013888888888889],[-0.03819878472222222,-0.18469184027777777],[-0.047035590277777775,-0.18053819444444444],[-0.055091145833333334,-0.17651041666666667],[-0.06388888888888888,-0.17044270833333333],[-0.07322048611111111,-0.16490885416666667],[-0.080703125,-0.15796006944444443],[-0.08765190972222223,-0.15101128472222222],[-0.09406684027777777,-0.14352864583333333],[-0.10141927083333334,-0.13448350694444444],[-0.10820746527777778,-0.12543836805555555],[-0.11499565972222223,-0.11582899305555555],[-0.12445746527777778,-0.10194444444444445],[-0.1305251736111111,-0.09258246527777778],[-0.13602430555555556,-0.08322048611111112],[-0.14071180555555557,-0.07542100694444444],[-0.144296875,-0.06881510416666667],[-0.148203125,-0.06245659722222222],[-0.1516362847222222,-0.055625],[-0.15494791666666666,-0.04948350694444444],[-0.15897569444444445,-0.04243489583333333],[-0.16300347222222222,-0.035386284722222223],[-0.1675347222222222,-0.02833767361111111],[-0.17065972222222223,-0.023858506944444444],[-0.17555121527777778,-0.017170138888888888],[-0.17773871527777776,-0.015329861111111112],[-0.1783203125,-0.015329861111111112],[-0.1783203125,-0.015329861111111112]],[[-0.005959201388888889,-0.20283420138888889],[-0.005959201388888889,-0.20283420138888889],[-0.005959201388888889,-0.20283420138888889],[-0.005959201388888889,-0.20283420138888889],[-0.005959201388888889,-0.20283420138888889],[-0.005959201388888889,-0.20283420138888889],[-0.005959201388888889,-0.20283420138888889],[-0.005959201388888889,-0.20283420138888889],[-0.005959201388888889,-0.20283420138888889],[-0.005959201388888889,-0.20283420138888889],[-0.005959201388888889,-0.20283420138888889],[-0.004188368055555555,-0.20283420138888889],[-0.0016319444444444445,-0.20283420138888889],[0.0019314236111111112,-0.20283420138888889],[0.006028645833333333,-0.20283420138888889],[0.009713541666666667,-0.20283420138888889],[0.013810763888888888,-0.20283420138888889],[0.018502604166666665,-0.20197916666666665],[0.023194444444444445,-0.20026909722222222],[0.029861111111111113,-0.19837673611111112],[0.03514756944444444,-0.1970486111111111],[0.04505642361111111,-0.19373697916666666],[0.05310329861111111,-0.19121961805555557],[0.06115017361111111,-0.1876953125],[0.0716015625,-0.183828125],[0.0812109375,-0.17954861111111112],[0.09031684027777778,-0.1747092013888889],[0.09914496527777777,-0.17055555555555554],[0.10668836805555555,-0.16602430555555556],[0.11498263888888889,-0.16133680555555555],[0.12352430555555556,-0.15598958333333332],[0.13078125,-0.15026475694444444],[0.13662760416666667,-0.1448828125],[0.1460503472222222,-0.1343793402777778],[0.1528298611111111,-0.12476996527777778],[0.16234809027777777,-0.10850260416666667],[0.1683029513888889,-0.09657552083333333],[0.1757248263888889,-0.07905381944444445],[0.1823046875,-0.06193576388888889],[0.18731336805555557,-0.04688368055555556],[0.19220052083333333,-0.032799479166666666],[0.1955859375,-0.021497395833333332],[0.19815972222222222,-0.012660590277777778],[0.19953993055555555,-0.007113715277777778],[0.20135850694444443,0.0014887152777777778],[0.20214409722222224,0.005060763888888889],[0.20289930555555555,0.008159722222222223],[0.20359375,0.01025173611111111],[0.20359375,0.011527777777777777],[0.20359375,0.012165798611111112],[0.20359375,0.012165798611111112],[0.20359375,0.012165798611111112],[0.20359375,0.009856770833333334]],[[-0.0033289930555555555,-0.20092881944444443],[-0.0033289930555555555,-0.20092881944444443],[-0.0033289930555555555,-0.20092881944444443],[-0.0033289930555555555,-0.20092881944444443],[-0.0033289930555555555,-0.20092881944444443],[-0.0033289930555555555,-0.20092881944444443],[-0.0033289930555555555,-0.20092881944444443],[-0.0033289930555555555,-0.2004079861111111],[-0.0033289930555555555,-0.19784288194444444],[-0.0033289930555555555,-0.19427083333333334],[-0.0033289930555555555,-0.18434895833333334],[-0.0033289930555555555,-0.17305555555555555],[-0.0033289930555555555,-0.15472222222222223],[-0.0033289930555555555,-0.1438888888888889],[-0.0033289930555555555,-0.12877170138888888],[-0.0033289930555555555,-0.1146875],[-0.0020486111111111113,-0.0984765625],[-0.00026475694444444447,-0.08536024305555556],[0.0008940972222222222,-0.07315104166666667],[0.0018663194444444445,-0.06569444444444444],[0.0023654513888888887,-0.055052083333333335],[0.0023654513888888887,-0.0503515625],[0.0023654513888888887,-0.04778645833333333],[0.0023654513888888887,-0.046857638888888886],[0.0023654513888888887,-0.04656684027777778],[0.002651909722222222,-0.045989583333333334]]]",3,"[41,53,26]",,,,,,,,,,,,,,diningroom5.jpg,space,5.28154,0,17,17,34,1,deck4.jpg,courthouse4.jpg,diner11.jpg,campusquad1.jpg,,
Image_List_2,,,,,,,,,,,,,,,,43974,2020-11-19_13h47.33.224,analogCatScenes,2020.1.3,MacIntel,60,"[1440,900]","[[[-0.0023394097222222223,-0.20321614583333333],[-0.0023394097222222223,-0.20321614583333333],[-0.0023394097222222223,-0.20321614583333333],[-0.0023394097222222223,-0.20321614583333333],[-0.0023394097222222223,-0.20321614583333333],[-0.0023394097222222223,-0.20321614583333333],[-0.0023394097222222223,-0.20321614583333333],[-0.0023394097222222223,-0.20321614583333333],[-0.0023394097222222223,-0.20321614583333333],[-0.0023394097222222223,-0.20321614583333333],[-0.0023394097222222223,-0.20321614583333333],[-0.0023394097222222223,-0.20321614583333333],[-0.0023394097222222223,-0.20164930555555555],[-0.003572048611111111,-0.19895833333333332],[-0.003953993055555555,-0.19680121527777777],[-0.004748263888888889,-0.19322916666666667],[-0.005130208333333333,-0.18965711805555555],[-0.005130208333333333,-0.18709201388888888],[-0.005130208333333333,-0.18351996527777778],[-0.005130208333333333,-0.17842881944444444],[-0.005130208333333333,-0.1730685763888889],[-0.005130208333333333,-0.16799479166666667],[-0.005130208333333333,-0.163828125],[-0.004283854166666667,-0.15912760416666666],[-0.0023350694444444443,-0.15167100694444444],[-0.0001345486111111111,-0.14637586805555555],[0.0022222222222222222,-0.1397612847222222],[0.004670138888888889,-0.1324262152777778],[0.006840277777777778,-0.1275998263888889],[0.009479166666666667,-0.1223046875],[0.011527777777777777,-0.11819878472222223],[0.013858506944444444,-0.11310763888888889],[0.015933159722222222,-0.10894097222222222],[0.01794704861111111,-0.10524739583333333],[0.02115451388888889,-0.099765625],[0.024930555555555556,-0.09409722222222222],[0.029075520833333333,-0.08526041666666667],[0.034344618055555554,-0.07355034722222223],[0.03945746527777778,-0.06277777777777778],[0.04334201388888889,-0.05647135416666667],[0.04711371527777778,-0.05073784722222222],[0.05092447916666667,-0.04729600694444445],[0.05559461805555556,-0.04454427083333334],[0.05915798611111111,-0.044131944444444446],[0.0621875,-0.04375],[0.06521701388888888,-0.04375],[0.0677734375,-0.04375],[0.069921875,-0.04375],[0.07079427083333334,-0.04375],[0.07142795138888888,-0.04375],[0.07142795138888888,-0.04375]],[[-0.0003732638888888889,-0.19508680555555555],[-0.0003732638888888889,-0.19508680555555555],[-0.0003732638888888889,-0.19508680555555555],[-0.0003732638888888889,-0.19508680555555555],[-0.0003732638888888889,-0.19508680555555555],[-0.0003732638888888889,-0.19508680555555555],[-0.0003732638888888889,-0.19508680555555555],[-0.0003732638888888889,-0.19508680555555555],[-0.0003732638888888889,-0.19508680555555555],[-0.0003732638888888889,-0.19508680555555555],[-0.0001171875,-0.19508680555555555],[0.0022178819444444446,-0.19508680555555555],[0.00578125,-0.19508680555555555],[0.010473090277777777,-0.19508680555555555],[0.017799479166666667,-0.19508680555555555],[0.027408854166666666,-0.19508680555555555],[0.037860243055555555,-0.1934157986111111],[0.050967881944444446,-0.19043402777777776],[0.06607638888888889,-0.187265625],[0.0876736111111111,-0.18171006944444446],[0.10271701388888889,-0.17794270833333334],[0.11876302083333333,-0.17267361111111112],[0.1338064236111111,-0.16765625],[0.15422309027777778,-0.15822482638888888],[0.17438802083333332,-0.14885850694444444],[0.19342881944444446,-0.13898871527777779],[0.21331163194444444,-0.1272092013888889],[0.23319444444444445,-0.11395833333333333],[0.24691840277777777,-0.10407986111111112],[0.263828125,-0.09207899305555556],[0.2793359375,-0.08129340277777777],[0.29911024305555556,-0.06789930555555555],[0.31015190972222223,-0.06092881944444444],[0.31606336805555557,-0.05702256944444444],[0.3210980902777778,-0.05336371527777778],[0.32418836805555556,-0.051432291666666664],[0.32545572916666665,-0.05047309027777778],[0.3257421875,-0.05018229166666666],[0.3257421875,-0.05018229166666666],[0.3257421875,-0.05018229166666666],[0.3257421875,-0.05018229166666666],[0.3257421875,-0.05018229166666666]],[[0.0019097222222222222,-0.19556423611111112],[0.0019097222222222222,-0.19556423611111112],[0.0019097222222222222,-0.19556423611111112],[0.0019097222222222222,-0.19556423611111112],[0.0019097222222222222,-0.19556423611111112],[0.0019097222222222222,-0.19556423611111112],[0.0019097222222222222,-0.19556423611111112],[0.0019097222222222222,-0.19556423611111112],[0.0016493055555555556,-0.19556423611111112],[-0.0027039930555555554,-0.19556423611111112],[-0.009379340277777778,-0.19361111111111112],[-0.016241319444444444,-0.19118055555555555],[-0.023793402777777778,-0.18715277777777778],[-0.029934895833333332,-0.18384114583333333],[-0.04056857638888889,-0.17726128472222222],[-0.04861545138888889,-0.17134982638888888],[-0.05822482638888889,-0.16513020833333333],[-0.068359375,-0.15618489583333334],[-0.07937065972222222,-0.14636284722222223],[-0.08953993055555555,-0.13738715277777777],[-0.09848524305555556,-0.12725260416666667],[-0.10661892361111111,-0.11736545138888889],[-0.11865451388888888,-0.09959635416666666],[-0.13065538194444445,-0.08195746527777778],[-0.14496961805555555,-0.06162760416666667],[-0.15666232638888888,-0.04648871527777778],[-0.16963107638888889,-0.0284765625],[-0.18811631944444446,-0.0029123263888888888],[-0.19733506944444446,0.011575520833333333],[-0.20530381944444445,0.023810763888888888],[-0.20993055555555556,0.030386284722222223],[-0.21515190972222223,0.037651909722222224],[-0.2188107638888889,0.0426953125],[-0.22180989583333333,0.046549479166666664],[-0.2242751736111111,0.04983940972222222],[-0.22567274305555557,0.05193142361111111],[-0.2270703125,0.0540234375],[-0.22774305555555555,0.05570746527777778],[-0.2283550347222222,0.056927083333333336],[-0.2283550347222222,0.056927083333333336],[-0.2283550347222222,0.056927083333333336],[-0.2283550347222222,0.056927083333333336],[-0.2283550347222222,0.05576388888888889],[-0.2283550347222222,0.05408854166666666],[-0.2280078125,0.053046875]]]",3,"[51,42,45]",,,,,,,,,,,,,,pavilion5.jpg,space,7.581555,0,18,18,71,1,metroInside2.jpg,metroInside3.jpg,museum3.jpg,jewelrystore.jpg,,
Image_List_2,,,,,,,,,,,,,,,,43974,2020-11-19_13h47.33.224,analogCatScenes,2020.1.3,MacIntel,60,"[1440,900]","[[[-0.0017534722222222222,-0.20062065972222223],[-0.0017534722222222222,-0.20062065972222223],[-0.0017534722222222222,-0.20062065972222223],[-0.0017534722222222222,-0.20062065972222223],[-0.0017534722222222222,-0.20062065972222223],[-0.0017534722222222222,-0.20036024305555555],[-0.0017534722222222222,-0.19514756944444445],[-0.0017534722222222222,-0.1846875],[-0.0017534722222222222,-0.1733203125],[-0.0017534722222222222,-0.15723524305555556],[-0.0017534722222222222,-0.1378689236111111],[0.00043402777777777775,-0.11618923611111111],[0.002651909722222222,-0.09335503472222222],[0.00640625,-0.06930121527777777],[0.010065104166666667,-0.04646701388888889],[0.013289930555555555,-0.030850694444444444],[0.01679253472222222,-0.010390625],[0.022174479166666667,0.01759548611111111],[0.024739583333333332,0.033680555555555554],[0.026493055555555554,0.04588975694444444],[0.027934027777777776,0.05256510416666667],[0.028871527777777777,0.059240451388888886],[0.02974826388888889,0.06453559027777778],[0.030503472222222223,0.06757378472222222],[0.03088107638888889,0.07013888888888889],[0.03088107638888889,0.07141493055555556],[0.03088107638888889,0.07205295138888888],[0.03088107638888889,0.07232638888888888],[0.03088107638888889,0.07206597222222222]]]",1,[29],,,,,,,,,,,,,,parkinglot.jpg,space,2.217675,0,19,19,68,1,liquorstore7.jpg,lightingstore4.jpg,lockerroom2.jpg,hospitalroom3.jpg,,
