image_list,key_resp_intructions.keys,key_resp_intructions.rt,key_resp_intructions_3.keys,key_resp_intructions_3.rt,PracticeComplete_2.keys,PracticeComplete_2.rt,PracticeComplete_3.keys,PracticeComplete_3.rt,demo_trials.thisRepN,demo_trials.thisTrialN,demo_trials.thisN,demo_trials.thisIndex,demo_trials.ran,demo_images,path_images,participant,date,expName,psychopyVersion,OS,frameRate,windowSize,practice_complete.keys,practice_complete.rt,boxes_checked,PracticeComplete.keys,PracticeComplete.rt,practice_trials.thisRepN,practice_trials.thisTrialN,practice_trials.thisN,practice_trials.thisIndex,practice_trials.ran,practice_images,feedback_images,key_resp_intructions_2.keys,key_resp_intructions_2.rt,Image_List_1,trial_complete.keys,trial_complete.rt,trial_mouse.x,trial_mouse.y,trial_mouse.leftButton,trial_mouse.midButton,trial_mouse.rightButton,trial_mouse.time,trial_mouse.clicked_name,trials.thisRepN,trials.thisTrialN,trials.thisN,trials.thisIndex,trials.ran,Image_List_2,Image_List_3,Image_List_4,Image_List_5,key_resp.keys,key_resp.rt
Image_List_1,space,12.26672,space,2.933415,space,7.28053,space,3.738715,0,0,0,3,1,ahead_right_left.jpg,ahead_right_left_path.jpg,44020,2020-11-06_18h08.05.081,lingCatScenes,2020.1.3,MacIntel,60,,,,,,,,,,,,,,,,,,,,,,,,,,,,,,,,,,,,
Image_List_1,,,,,space,24.42247,space,0.59315,0,1,1,0,1,ahead.jpg,ahead_path.jpg,44020,2020-11-06_18h08.05.081,lingCatScenes,2020.1.3,MacIntel,60,,,,,,,,,,,,,,,,,,,,,,,,,,,,,,,,,,,,
Image_List_1,,,,,space,4.304035,space,2.225245,0,2,2,2,1,ahead_right.jpg,ahead_right_path.jpg,44020,2020-11-06_18h08.05.081,lingCatScenes,2020.1.3,MacIntel,60,,,,,,,,,,,,,,,,,,,,,,,,,,,,,,,,,,,,
Image_List_1,,,,,space,35.14703,space,2.16726,0,3,3,5,1,right.jpg,right_path.jpg,44020,2020-11-06_18h08.05.081,lingCatScenes,2020.1.3,MacIntel,60,,,,,,,,,,,,,,,,,,,,,,,,,,,,,,,,,,,,
Image_List_1,,,,,space,6.906065,space,10.250295,0,4,4,1,1,ahead_left.jpg,ahead_left_path.jpg,44020,2020-11-06_18h08.05.081,lingCatScenes,2020.1.3,MacIntel,60,,,,,,,,,,,,,,,,,,,,,,,,,,,,,,,,,,,,
Image_List_1,,,,,space,1.722825,space,1.583355,0,5,5,6,1,right_left.jpg,right_left_path.jpg,44020,2020-11-06_18h08.05.081,lingCatScenes,2020.1.3,MacIntel,60,,,,,,,,,,,,,,,,,,,,,,,,,,,,,,,,,,,,
Image_List_1,,,,,space,2.193435,space,0.7277,0,6,6,4,1,left.jpg,left_path.jpg,44020,2020-11-06_18h08.05.081,lingCatScenes,2020.1.3,MacIntel,60,,,,,,,,,,,,,,,,,,,,,,,,,,,,,,,,,,,,
Image_List_1,,,,,,,,,,,,,,,,44020,2020-11-06_18h08.05.081,lingCatScenes,2020.1.3,MacIntel,60,"[1280,800]",space,10.721415,[],space,3.926425,0,0,0,6,1,right_left_2.jpg,right_left_2_path.jpg,,,,,,,,,,,,,,,,,,,,,,,
Image_List_1,,,,,,,,,,,,,,,,44020,2020-11-06_18h08.05.081,lingCatScenes,2020.1.3,MacIntel,60,"[1280,800]",space,5.19693,[],space,1.649295,0,1,1,4,1,left_2.jpg,left_2_path.jpg,,,,,,,,,,,,,,,,,,,,,,,
Image_List_1,,,,,,,,,,,,,,,,44020,2020-11-06_18h08.05.081,lingCatScenes,2020.1.3,MacIntel,60,"[1280,800]",space,9.91542,"[""ahead_box""]",space,1.96179,0,2,2,0,1,ahead_2.jpg,ahead_2_path.jpg,,,,,,,,,,,,,,,,,,,,,,,
Image_List_1,,,,,,,,,,,,,,,,44020,2020-11-06_18h08.05.081,lingCatScenes,2020.1.3,MacIntel,60,"[1280,800]",space,21.18936,"[""right_box"",""sharp_left_box"",""ahead_box""]",space,4.68275,0,3,3,3,1,ahead_right_left_2.jpg,ahead_right_left_2_path.jpg,,,,,,,,,,,,,,,,,,,,,,,
Image_List_1,,,,,,,,,,,,,,,,44020,2020-11-06_18h08.05.081,lingCatScenes,2020.1.3,MacIntel,60,"[1280,800]",space,11.48212,"[""slight_right_box""]",space,1.29703,0,4,4,1,1,ahead_left_2.jpg,ahead_left_2_path.jpg,,,,,,,,,,,,,,,,,,,,,,,
Image_List_1,,,,,,,,,,,,,,,,44020,2020-11-06_18h08.05.081,lingCatScenes,2020.1.3,MacIntel,60,"[1280,800]",space,8.311345,"[""slight_right_box"",""right_box""]",space,2.04665,0,5,5,5,1,right_2.jpg,right_2_path.jpg,,,,,,,,,,,,,,,,,,,,,,,
Image_List_1,,,,,,,,,,,,,,,,44020,2020-11-06_18h08.05.081,lingCatScenes,2020.1.3,MacIntel,60,"[1280,800]",space,8.56365,"[""ahead_box"",""sharp_right_box""]",space,1.13278,0,6,6,2,1,ahead_right_2.jpg,ahead_right_2_path.jpg,,,,,,,,,,,,,,,,,,,,,,,
Image_List_1,,,,,,,,,,,,,,,,44020,2020-11-06_18h08.05.081,lingCatScenes,2020.1.3,MacIntel,60,"[1280,800]",,,"[""trial_ahead_box""]",,,,,,,,,,space,2.73376,treehouse.jpg,space,5.60526,[0.00546875],[-0.309248046875],[1],[0],[0],[4.454459999979008],"[""trial_ahead_box""]",0,0,0,94,1,waitingroom3.jpg,staircase6.jpg,weightroom.jpg,trainStation3.jpg,,
Image_List_1,,,,,,,,,,,,,,,,44020,2020-11-06_18h08.05.081,lingCatScenes,2020.1.3,MacIntel,60,"[1280,800]",,,"[""trial_sharp_right_box"",""trial_sharp_left_box""]",,,,,,,,,,,,bus_shelter.jpg,space,7.40123,"[0.592685546875,-0.5708740234375,-0.58751953125]","[-0.30923828125,-0.2968408203125,-0.3149365234375]","[1,1,1]","[0,0,0]","[0,0,0]","[5.032335000025341,6.3487350000068545,7.066775000013877]","[""trial_sharp_right_box"",""trial_sharp_left_box""]",0,1,1,23,1,church8.jpg,carmechanic4.jpeg,cemetery3.jpg,bleachers6.jpg,,
Image_List_1,,,,,,,,,,,,,,,,44020,2020-11-06_18h08.05.081,lingCatScenes,2020.1.3,MacIntel,60,"[1280,800]",,,"[""trial_sharp_right_box"",""trial_sharp_left_box""]",,,,,,,,,,,,backyard2.jpg,space,8.09967,"[0.604052734375,-0.577373046875]","[-0.3081787109375,-0.2975048828125]","[1,1]","[0,0]","[0,0]","[6.597750000015367,7.649070000014035]","[""trial_sharp_right_box"",""trial_sharp_left_box""]",0,2,2,11,1,basketballcourt4.jpg,bambooforest3.jpg,baywindow5.jpg,backyard1.jpg,,
Image_List_1,,,,,,,,,,,,,,,,44020,2020-11-06_18h08.05.081,lingCatScenes,2020.1.3,MacIntel,60,"[1280,800]",,,"[""trial_ahead_box"",""trial_right_box""]",,,,,,,,,,,,courthouse1.jpg,space,5.19789,"[0.0084619140625,0.3839013671875]","[-0.3056103515625,-0.2922412109375]","[1,1]","[0,0]","[0,0]","[2.1624700000102166,4.730730000010226]","[""trial_ahead_box"",""trial_right_box""]",0,3,3,30,1,desertvegetation3.jpg,clothingstore2.jpg,copyroom2.jpg,bus_shelter3.jpg,,
Image_List_1,,,,,,,,,,,,,,,,44020,2020-11-06_18h08.05.081,lingCatScenes,2020.1.3,MacIntel,60,"[1280,800]",,,"[""trial_slight_right_box"",""trial_sharp_right_box""]",,,,,,,,,,,,library_aisle10.jpg,space,4.52433,"[0.20494140625,0.6113427734375]","[-0.2993701171875,-0.3151025390625]","[1,1]","[0,0]","[0,0]","[2.3778499999898486,3.6462049999972805]","[""trial_slight_right_box"",""trial_sharp_right_box""]",0,4,4,66,1,office3.jpg,laundromat3.jpg,liquorstore.jpg,horsebarn9.jpg,,
Image_List_1,,,,,,,,,,,,,,,,44020,2020-11-06_18h08.05.081,lingCatScenes,2020.1.3,MacIntel,60,"[1280,800]",,,"[""trial_ahead_box"",""trial_right_box""]",,,,,,,,,,,,highway7.jpg,space,82.42048,"[0.017548828125,0.4021484375]","[-0.2975341796875,-0.316787109375]","[1,1]","[0,0]","[0,0]","[63.12633500000811,80.20071000000462]","[""trial_ahead_box"",""trial_right_box""]",0,5,5,58,1,lab1.jpg,hedgemaze1.jpg,igloo4.jpg,grocerystore2.jpg,,
Image_List_1,,,,,,,,,,,,,,,,44020,2020-11-06_18h08.05.081,lingCatScenes,2020.1.3,MacIntel,60,"[1280,800]",,,"[""trial_left_box"",""trial_sharp_left_box"",""trial_sharp_right_box""]",,,,,,,,,,,,HorseRaceTrack.jpg,space,9.549825,"[-0.390166015625,-0.5790283203125,0.620791015625]","[-0.3127197265625,-0.2923046875,-0.3146923828125]","[1,1,1]","[0,0,0]","[0,0,0]","[3.9802900000067893,8.249125000002095,9.199519999994664]","[""trial_left_box"",""trial_sharp_left_box"",""trial_sharp_right_box""]",0,6,6,61,1,metroInside4.jpg,homegarden6.jpg,kindergarten_classroom7.jpg,hayfield6.jpg,,
Image_List_1,,,,,,,,,,,,,,,,44020,2020-11-06_18h08.05.081,lingCatScenes,2020.1.3,MacIntel,60,"[1280,800]",,,"[""trial_ahead_box""]",,,,,,,,,,,,exerciseequipment3.jpg,space,5.40063,[0.0023681640625],[-0.3178515625],[1],[0],[0],[2.8970200000039767],"[""trial_ahead_box""]",0,7,7,42,1,firestation3.jpg,drymountains6.jpg,farm4.jpg,desertvegetation2.jpg,,
Image_List_1,,,,,,,,,,,,,,,,44020,2020-11-06_18h08.05.081,lingCatScenes,2020.1.3,MacIntel,60,"[1280,800]",,,"[""trial_sharp_right_box"",""trial_sharp_left_box""]",,,,,,,,,,,,grocerystore5.jpg,space,4.24531,"[0.620029296875,-0.575654296875,-0.5938720703125]","[-0.29650390625,-0.2706494140625,-0.30779296875]","[1,1,1]","[0,0,0]","[0,0,0]","[1.812405000004219,2.8630150000099093,3.8967850000190083]","[""trial_sharp_right_box"",""trial_sharp_left_box""]",0,8,8,56,1,hut3.jpg,golfcourse10.jpg,hut1.jpg,gasstation2.jpg,,
Image_List_1,,,,,,,,,,,,,,,,44020,2020-11-06_18h08.05.081,lingCatScenes,2020.1.3,MacIntel,60,"[1280,800]",,,"[""trial_left_box""]",,,,,,,,,,,,backstage2.jpg,space,7.652915,"[-0.22037109375,-0.3875390625,-0.24818359375,-0.1910205078125]","[-0.2895458984375,-0.28236328125,-0.297294921875,-0.30009765625]","[1,1,1,1]","[0,0,0,0]","[0,0,0,0]","[4.196500000020023,5.297775000013644,6.516425000008894,6.998580000014044]","[""trial_slight_left_box"",""trial_left_box"",""trial_slight_left_box""]",0,9,9,10,1,barbershop3.jpg,ballroom4.jpg,basketballcourt3.jpg,ATM4.jpg,,
Image_List_1,,,,,,,,,,,,,,,,44020,2020-11-06_18h08.05.081,lingCatScenes,2020.1.3,MacIntel,60,"[1280,800]",,,"[""trial_ahead_box"",""trial_right_box""]",,,,,,,,,,,,publicrestroom2.jpg,space,7.331335,"[0.01263671875,0.4136083984375]","[-0.2913818359375,-0.308837890625]","[1,1]","[0,0]","[0,0]","[3.5639249999949243,6.49805500000366]","[""trial_ahead_box"",""trial_right_box""]",0,10,10,82,1,sandDunes_desert_outdoor9.jpg,promenadeDeck3.jpg,readingroom4.jpg,postoffice4.jpg,,
Image_List_1,,,,,,,,,,,,,,,,44020,2020-11-06_18h08.05.081,lingCatScenes,2020.1.3,MacIntel,60,"[1280,800]",,,"[""trial_ahead_box"",""trial_sharp_right_box"",""trial_sharp_left_box""]",,,,,,,,,,,,gasstation6.jpg,space,5.14483,"[-0.0086474609375,0.6202783203125,-0.585908203125]","[-0.31337890625,-0.3128369140625,-0.2980322265625]","[1,1,1]","[0,0,0]","[0,0,0]","[2.8131949999951757,4.015400000003865,4.831304999999702]","[""trial_ahead_box"",""trial_sharp_right_box"",""trial_sharp_left_box""]",0,11,11,51,1,hallway5.jpg,frontDoor5.jpg,hayfield4.jpg,firestation5.jpg,,
Image_List_1,,,,,,,,,,,,,,,,44020,2020-11-06_18h08.05.081,lingCatScenes,2020.1.3,MacIntel,60,"[1280,800]",,,"[""trial_right_box"",""trial_sharp_left_box""]",,,,,,,,,,,,gasstation7.jpg,space,4.833025,"[0.4139306640625,0.4104736328125,-0.5901611328125]","[-0.269814453125,-0.3148291015625,-0.2942822265625]","[1,1,1]","[0,0,0]","[0,0,0]","[2.2458200000110082,2.8958150000253227,4.363915000023553]","[""trial_right_box"",""trial_sharp_left_box""]",0,12,12,52,1,hardwarestore1.jpg,frontFoyer6.jpg,highway.jpg,forestpath2.jpg,,
Image_List_1,,,,,,,,,,,,,,,,44020,2020-11-06_18h08.05.081,lingCatScenes,2020.1.3,MacIntel,60,"[1280,800]",,,"[""trial_ahead_box""]",,,,,,,,,,,,attic2.jpg,space,3.029555,[0.011259765625],[-0.30322265625],[1],[0],[0],[1.6976200000208337],"[""trial_ahead_box""]",0,13,13,7,1,banquetHall4.jpg,backstage1.jpg,baggageClaim3.jpg,applestore2.jpg,,
Image_List_1,,,,,,,,,,,,,,,,44020,2020-11-06_18h08.05.081,lingCatScenes,2020.1.3,MacIntel,60,"[1280,800]",,,"[""trial_left_box"",""trial_sharp_right_box""]",,,,,,,,,,,,campusquad2.jpg,space,12.682985,"[0.00994140625,-0.1595166015625,-0.257607421875,-0.5742529296875,-0.6128125,-0.5953125,0.0007568359375,0.008017578125,-0.4028564453125,0.6065869140625]","[-0.288486328125,-0.306513671875,-0.3054931640625,-0.2987939453125,-0.28740234375,-0.293125,-0.2712890625,-0.29232421875,-0.30029296875,-0.302060546875]","[1,1,1,1,1,1,1,1,1,1]","[0,0,0,0,0,0,0,0,0,0]","[0,0,0,0,0,0,0,0,0,0]","[2.462180000002263,3.077935000008438,3.5627500000118744,4.32979499999783,5.464930000016466,7.0642250000091735,8.296505000005709,8.914060000010068,9.664875000016764,11.582360000000335]","[""trial_ahead_box"",""trial_sharp_left_box"",""trial_sharp_left_box"",""trial_ahead_box"",""trial_left_box"",""trial_sharp_right_box""]",0,14,14,26,1,cornfield4.jpg,church4.jpg,churchInside3.jpg,botanicalGarden7.jpg,,
Image_List_1,,,,,,,,,,,,,,,,44020,2020-11-06_18h08.05.081,lingCatScenes,2020.1.3,MacIntel,60,"[1280,800]",,,"[""trial_ahead_box""]",,,,,,,,,,,,liquorstore7.jpg,space,5.11662,[-0.0020654296875],[-0.32060546875],[1],[0],[0],[1.8311899999971502],"[""trial_ahead_box""]",0,15,15,68,1,parkinglot.jpg,lightingstore4.jpg,lockerroom2.jpg,hospitalroom3.jpg,,
Image_List_1,,,,,,,,,,,,,,,,44020,2020-11-06_18h08.05.081,lingCatScenes,2020.1.3,MacIntel,60,"[1280,800]",,,"[""trial_left_box"",""trial_sharp_right_box""]",,,,,,,,,,,,cubicle4.jpg,space,4.515975,"[-0.3733056640625,-0.4071923828125,0.5850390625]","[-0.2977978515625,-0.2977978515625,-0.2951025390625]","[1,1,1]","[0,0,0]","[0,0,0]","[2.4635249999992084,3.2822349999914877,4.215399999986403]","[""trial_left_box"",""trial_sharp_right_box""]",0,16,16,31,1,desertvegetation6.jpg,conference4.jpg,courtroom2.jpg,cabin3.jpg,,
Image_List_1,,,,,,,,,,,,,,,,44020,2020-11-06_18h08.05.081,lingCatScenes,2020.1.3,MacIntel,60,"[1280,800]",,,"[""trial_sharp_right_box"",""trial_left_box"",""trial_sharp_left_box""]",,,,,,,,,,,,weightroom5.jpg,space,9.71561,"[0.6478466796875,0.5923388671875,0.0077490234375,-0.0025244140625,-0.3883154296875,-0.603466796875,-0.6050439453125]","[-0.3023388671875,-0.2973974609375,-0.312470703125,-0.30640625,-0.3045849609375,-0.328466796875,-0.3020654296875]","[1,1,1,1,1,1,1]","[0,0,0,0,0,0,0]","[0,0,0,0,0,0,0]","[3.445110000000568,3.93067499998142,5.862575000006473,7.346744999988005,8.098154999985127,8.949239999987185,9.416694999992615]","[""trial_sharp_right_box"",""trial_ahead_box"",""trial_ahead_box"",""trial_left_box"",""trial_sharp_left_box""]",0,17,17,98,1,wineVineyard8.jpg,warehouse3.jpg,winebarrel4.jpg,winebarrel2.jpg,,
Image_List_1,,,,,,,,,,,,,,,,44020,2020-11-06_18h08.05.081,lingCatScenes,2020.1.3,MacIntel,60,"[1280,800]",,,"[""trial_ahead_box""]",,,,,,,,,,,,greenhouse2.jpg,space,1.609755,[0.012587890625],[-0.2951513671875],[1],[0],[0],[1.245550000021467],"[""trial_ahead_box""]",0,18,18,54,1,horsebarn11.jpg,gazebo2.jpg,homegarage4.jpg,frontFoyer.jpg,,
Image_List_1,,,,,,,,,,,,,,,,44020,2020-11-06_18h08.05.081,lingCatScenes,2020.1.3,MacIntel,60,"[1280,800]",,,"[""trial_right_box"",""trial_sharp_left_box""]",,,,,,,,,,,,newsstand2.jpg,space,3.552035,"[0.43705078125,0.4110546875,-0.588642578125]","[-0.313427734375,-0.298203125,-0.312900390625]","[1,1,1]","[0,0,0]","[0,0,0]","[1.5797399999864865,2.014119999977993,3.182154999987688]","[""trial_right_box"",""trial_sharp_left_box""]",0,19,19,74,1,playground10.jpg,observatory4.jpeg,operatingroom1.jpg,lightingstore2.jpg,,
Image_List_1,,,,,,,,,,,,,,,,44020,2020-11-06_18h08.05.081,lingCatScenes,2020.1.3,MacIntel,60,"[1280,800]",,,"[""trial_ahead_box"",""trial_right_box"",""trial_sharp_right_box"",""trial_slight_right_box"",""trial_slight_left_box"",""trial_left_box"",""trial_sharp_left_box""]",,,,,,,,,,,,frontLawn4.jpg,space,6.833625,"[0.0022607421875,0.40900390625,0.605625,0.191982421875,-0.219658203125,-0.3753759765625,-0.600908203125]","[-0.2995849609375,-0.2829296875,-0.3057666015625,-0.280537109375,-0.301044921875,-0.285283203125,-0.3018408203125]","[1,1,1,1,1,1,1]","[0,0,0,0,0,0,0]","[0,0,0,0,0,0,0]","[1.5482600000104867,3.0651099999959115,3.798385000001872,4.53197499999078,5.466550000011921,5.98235500001465,6.518164999986766]","[""trial_ahead_box"",""trial_right_box"",""trial_sharp_right_box"",""trial_slight_right_box"",""trial_slight_left_box"",""trial_left_box"",""trial_sharp_left_box""]",0,20,20,50,1,grocerystore6.jpg,forestpath6.jpg,hallway2.jpg,fireplace4.jpg,,
Image_List_1,,,,,,,,,,,,,,,,44020,2020-11-06_18h08.05.081,lingCatScenes,2020.1.3,MacIntel,60,"[1280,800]",,,"[""trial_ahead_box""]",,,,,,,,,,,,cornfield2.jpg,space,2.29782,[-0.009189453125],[-0.321669921875],[1],[0],[0],[1.8790250000020023],"[""trial_ahead_box""]",0,21,21,29,1,deck2.jpg,cliff2.jpg,constructionSite4.jpg,bridalboutique3.jpg,,
Image_List_1,,,,,,,,,,,,,,,,44020,2020-11-06_18h08.05.081,lingCatScenes,2020.1.3,MacIntel,60,"[1280,800]",,,"[""trial_ahead_box"",""trial_right_box""]",,,,,,,,,,,,restaurantkitchen2.jpg,space,3.89971,"[-0.009189453125,0.4127490234375]","[-0.321669921875,-0.3050634765625]","[1,1]","[0,0]","[0,0]","[1.1960649999964517,3.514950000011595]","[""trial_ahead_box"",""trial_right_box""]",0,22,22,87,1,theater2.jpg,savanna.jpg,sculpturegarden2.jpg,RVinside2.jpg,,
Image_List_1,,,,,,,,,,,,,,,,44020,2020-11-06_18h08.05.081,lingCatScenes,2020.1.3,MacIntel,60,"[1280,800]",,,"[""trial_ahead_box"",""trial_slight_right_box"",""trial_slight_left_box"",""trial_sharp_right_box""]",,,,,,,,,,,,boardwalk6.jpg,space,6.197825,"[-0.0101123046875,0.20197265625,-0.1736962890625,-0.2031298828125,0.61875]","[-0.294375,-0.297119140625,-0.2857080078125,-0.286142578125,-0.29359375]","[1,1,1,1,1]","[0,0,0,0,0]","[0,0,0,0,0]","[1.6800450000155251,2.8630600000033155,4.246964999998454,4.781455000018468,5.765340000012657]","[""trial_ahead_box"",""trial_slight_right_box"",""trial_slight_left_box"",""trial_sharp_right_box""]",0,23,23,20,1,cave.jpg,campsite3.jpg,cave4.jpg,basketballcourt7.jpg,,
Image_List_1,,,,,,,,,,,,,,,,44020,2020-11-06_18h08.05.081,lingCatScenes,2020.1.3,MacIntel,60,"[1280,800]",,,"[""trial_slight_left_box"",""trial_ahead_box""]",,,,,,,,,,,,airportTerminal4.jpg,space,3.967665,"[-0.214443359375,-0.0047607421875]","[-0.2930126953125,-0.28662109375]","[1,1]","[0,0]","[0,0]","[1.5450499999860767,3.1954749999858905]","[""trial_slight_left_box"",""trial_ahead_box""]",0,24,24,1,1,apartmentBuilding1.jpg,applestore1.jpg,airportTerminal3.jpg,airportTerminal2.jpg,,
Image_List_1,,,,,,,,,,,,,,,,44020,2020-11-06_18h08.05.081,lingCatScenes,2020.1.3,MacIntel,60,"[1280,800]",,,"[""trial_ahead_box""]",,,,,,,,,,,,metroInside2.jpg,space,13.216915,[0.010078125],[-0.2980419921875],[1],[0],[0],[11.730674999998882],"[""trial_ahead_box""]",0,25,25,71,1,pavilion5.jpg,metroInside3.jpg,museum3.jpg,jewelrystore.jpg,,
Image_List_1,,,,,,,,,,,,,,,,44020,2020-11-06_18h08.05.081,lingCatScenes,2020.1.3,MacIntel,60,"[1280,800]",,,"[""trial_sharp_right_box"",""trial_right_box"",""trial_slight_right_box"",""trial_left_box"",""trial_sharp_left_box""]",,,,,,,,,,,,castle3.jpg,space,7.17034,"[0.5928857421875,0.4099853515625,0.191044921875,-0.40703125,-0.6202880859375]","[-0.3106298828125,-0.2876708984375,-0.3125927734375,-0.2874169921875,-0.3047509765625]","[1,1,1,1,1]","[0,0,0,0,0]","[0,0,0,0,0]","[2.6646049999981187,3.5979149999911897,5.332659999985481,6.334104999987176,6.849099999992177]","[""trial_sharp_right_box"",""trial_right_box"",""trial_slight_right_box"",""trial_left_box"",""trial_sharp_left_box""]",0,26,26,27,1,courtroom3.jpg,churchInside4.jpg,closet.jpg,brewery2.jpg,,
Image_List_1,,,,,,,,,,,,,,,,44020,2020-11-06_18h08.05.081,lingCatScenes,2020.1.3,MacIntel,60,"[1280,800]",,,"[""trial_ahead_box"",""trial_slight_left_box""]",,,,,,,,,,,,exerciseequipment5.jpg,space,4.16751,"[-0.0105078125,-0.165322265625,-0.1943603515625]","[-0.289072265625,-0.306279296875,-0.2832080078125]","[1,1,1]","[0,0,0]","[0,0,0]","[1.4974999999976717,3.2473799999861512,3.798595000000205]","[""trial_ahead_box"",""trial_slight_left_box""]",0,27,27,43,1,forestpath10.jpg,dugout2.jpg,foodcourt.jpg,diningroom3.jpg,,
Image_List_1,,,,,,,,,,,,,,,,44020,2020-11-06_18h08.05.081,lingCatScenes,2020.1.3,MacIntel,60,"[1280,800]",,,"[""trial_ahead_box"",""trial_left_box""]",,,,,,,,,,,,lockerroom4.jpg,space,4.68423,"[0.0103564453125,-0.41095703125]","[-0.312578125,-0.3142041015625]","[1,1]","[0,0]","[0,0]","[1.4792750000196975,4.39707500001532]","[""trial_ahead_box"",""trial_left_box""]",0,28,28,70,1,pavilion.jpg,lockerroom3.jpg,minigolf8.jpg,igloo.jpg,,
Image_List_1,,,,,,,,,,,,,,,,44020,2020-11-06_18h08.05.081,lingCatScenes,2020.1.3,MacIntel,60,"[1280,800]",,,"[""trial_ahead_box""]",,,,,,,,,,,,fittingroom2.jpg,space,1.566625,[-0.011611328125],[-0.27955078125],[1],[0],[0],[1.2295949999825098],"[""trial_ahead_box""]",0,29,29,45,1,frontFoyer7.jpg,factory1.jpg,forestpath4.jpg,dock4.jpg,,
Image_List_1,,,,,,,,,,,,,,,,44020,2020-11-06_18h08.05.081,lingCatScenes,2020.1.3,MacIntel,60,"[1280,800]",,,"[""trial_ahead_box""]",,,,,,,,,,,,frontDoor2.jpg,space,1.548575,[-0.011611328125],[-0.27955078125],[1],[0],[0],[1.179405000002589],"[""trial_ahead_box""]",0,30,30,48,1,golfcourse6.jpg,fittingroom5.jpg,golfcourse7.jpg,fabricstore2.jpg,,
Image_List_1,,,,,,,,,,,,,,,,44020,2020-11-06_18h08.05.081,lingCatScenes,2020.1.3,MacIntel,60,"[1280,800]",,,"[""trial_right_box"",""trial_left_box"",""trial_ahead_box""]",,,,,,,,,,,,parkinggarage.jpg,space,8.817195,"[0.2226220703125,0.4381298828125,0.399873046875,-0.36875,-0.402373046875,-0.0268994140625,-0.0075390625]","[-0.2724951171875,-0.3031396484375,-0.29595703125,-0.3053271484375,-0.2903662109375,-0.305703125,-0.30630859375]","[1,1,1,1,1,1,1]","[0,0,0,0,0,0,0]","[0,0,0,0,0,0,0]","[2.913620000006631,3.847699999983888,4.280960000003688,5.8148849999997765,6.465969999990193,7.900179999996908,8.53269999998156]","[""trial_right_box"",""trial_left_box"",""trial_ahead_box""]",0,31,31,76,1,playroom4.jpg,parkinggarage3.jpg,park2.jpg,lookout4.jpg,,
Image_List_1,,,,,,,,,,,,,,,,44020,2020-11-06_18h08.05.081,lingCatScenes,2020.1.3,MacIntel,60,"[1280,800]",,,"[""trial_ahead_box""]",,,,,,,,,,,,churchInside1.jpg,space,1.34685,[-0.0075390625],[-0.30630859375],[1],[0],[0],[0.7608499999914784],"[""trial_ahead_box""]",0,32,32,28,1,dancestudio5.jpg,citystreet10.jpg,clothingstore5.jpg,bridalboutique2.jpg,,
Image_List_1,,,,,,,,,,,,,,,,44020,2020-11-06_18h08.05.081,lingCatScenes,2020.1.3,MacIntel,60,"[1280,800]",,,"[""trial_right_box""]",,,,,,,,,,,,bleachers5.jpg,space,1.847315,[0.410654296875],[-0.3089453125],[1],[0],[0],[1.5467650000064168],"[""trial_right_box""]",0,33,33,18,1,casino1.jpg,brewery4.jpg,castle2.jpg,basement6.jpg,,
Image_List_1,,,,,,,,,,,,,,,,44020,2020-11-06_18h08.05.081,lingCatScenes,2020.1.3,MacIntel,60,"[1280,800]",,,"[""trial_sharp_right_box"",""trial_sharp_left_box""]",,,,,,,,,,,,igloo2.jpg,space,5.44678,"[0.5954150390625,0.573544921875,0.6046728515625,-0.5919384765625,-0.5966943359375]","[-0.2704736328125,-0.2989111328125,-0.3136865234375,-0.2715576171875,-0.32083984375]","[1,1,1,1,1]","[0,0,0,0,0]","[0,0,0,0,0]","[2.731130000000121,3.3636549999937415,3.86271499999566,4.646949999994831,5.164309999992838]","[""trial_sharp_right_box"",""trial_sharp_left_box""]",0,34,34,64,1,newsstand5.jpg,jewelrystore8.jpg,lab5.jpg,homegarage2.jpg,,
Image_List_1,,,,,,,,,,,,,,,,44020,2020-11-06_18h08.05.081,lingCatScenes,2020.1.3,MacIntel,60,"[1280,800]",,,"[""trial_left_box"",""trial_sharp_right_box""]",,,,,,,,,,,,baggageClaim4.jpg,space,3.164135,"[-0.3775634765625,0.6489599609375,0.6176513671875]","[-0.3006298828125,-0.316591796875,-0.30189453125]","[1,1,1]","[0,0,0]","[0,0,0]","[1.329874999995809,2.397114999999758,2.8643600000068545]","[""trial_left_box"",""trial_sharp_right_box""]",0,35,35,12,1,bedroom6.jpg,bambooforest5.jpg,bleachers7.jpg,backyard5.jpg,,
Image_List_1,,,,,,,,,,,,,,,,44020,2020-11-06_18h08.05.081,lingCatScenes,2020.1.3,MacIntel,60,"[1280,800]",,,"[""trial_slight_left_box""]",,,,,,,,,,,,homegarden7.jpg,space,4.40182,[-0.206181640625],[-0.29802734375],[1],[0],[0],[4.082504999998491],"[""trial_slight_left_box""]",0,36,36,59,1,library_aisle8.jpg,highway4.jpg,kindergarten_classroom5.jpg,grocerystore3.jpg,,
Image_List_1,,,,,,,,,,,,,,,,44020,2020-11-06_18h08.05.081,lingCatScenes,2020.1.3,MacIntel,60,"[1280,800]",,,"[""trial_right_box""]",,,,,,,,,,,,musicStore3.jpg,space,4.89896,"[0.4304248046875,0.4166455078125]","[-0.309306640625,-0.29771484375]","[1,1]","[0,0]","[0,0]","[3.8817899999849033,4.467124999995576]","[""trial_right_box""]",0,37,37,73,1,photographer_studio2.jpg,nursery.jpg,nursery4.jpg,library_aisle9.jpg,,
Image_List_1,,,,,,,,,,,,,,,,44020,2020-11-06_18h08.05.081,lingCatScenes,2020.1.3,MacIntel,60,"[1280,800]",,,"[""trial_ahead_box""]",,,,,,,,,,,,frontDoor3.jpg,space,2.34683,[0.004013671875],[-0.3178271484375],[1],[0],[0],[1.310654999979306],"[""trial_ahead_box""]",0,38,38,49,1,greenhouse5.jpg,flowershop3.jpg,greenhouse.jpg,farm2.jpg,,
Image_List_1,,,,,,,,,,,,,,,,44020,2020-11-06_18h08.05.081,lingCatScenes,2020.1.3,MacIntel,60,"[1280,800]",,,"[""trial_right_box"",""trial_sharp_right_box"",""trial_slight_right_box""]",,,,,,,,,,,,pasture.jpg,space,3.386185,"[0.4157470703125,0.598310546875,0.216435546875]","[-0.3187353515625,-0.3187353515625,-0.2771337890625]","[1,1,1]","[0,0,0]","[0,0,0]","[1.2816549999988638,1.847879999986617,2.948644999996759]","[""trial_right_box"",""trial_sharp_right_box"",""trial_slight_right_box""]",0,39,39,79,1,poolhall2.jpeg,playground9.jpg,pier2.jpg,observatory2.jpg,,
Image_List_1,,,,,,,,,,,,,,,,44020,2020-11-06_18h08.05.081,lingCatScenes,2020.1.3,MacIntel,60,"[1280,800]",,,"[""trial_sharp_right_box""]",,,,,,,,,,,,bowlingalley5.jpg,space,5.802215,"[0.405849609375,0.590439453125,0.3895166015625]","[-0.292763671875,-0.30255859375,-0.3185009765625]","[1,1,1]","[0,0,0]","[0,0,0]","[2.1474400000006426,3.364419999998063,4.46429000000353]","[""trial_right_box"",""trial_sharp_right_box"",""trial_right_box""]",0,40,40,22,1,church6.jpg,cargo5.jpg,cemetery.jpg,bistrooutdoor6.jpg,,
Image_List_1,,,,,,,,,,,,,,,,44020,2020-11-06_18h08.05.081,lingCatScenes,2020.1.3,MacIntel,60,"[1280,800]",,,"[""trial_sharp_right_box"",""trial_sharp_left_box""]",,,,,,,,,,,,attic3.jpg,space,7.102585,"[0.3895166015625,0.5755224609375,-0.6088818359375,0.3990283203125]","[-0.3185009765625,-0.2985595703125,-0.3106298828125,-0.3114453125]","[1,1,1,1]","[0,0,0,0]","[0,0,0,0]","[2.2484350000158884,3.665640000021085,5.566240000014659,6.433165000024019]","[""trial_right_box"",""trial_sharp_right_box"",""trial_sharp_left_box"",""trial_right_box""]",0,41,41,8,1,banquetHall6.jpg,balconyIN.jpg,bar.jpg,applestore4.jpg,,
Image_List_1,,,,,,,,,,,,,,,,44020,2020-11-06_18h08.05.081,lingCatScenes,2020.1.3,MacIntel,60,"[1280,800]",,,"[""trial_sharp_left_box""]",,,,,,,,,,,,dugout4.jpg,space,4.51297,"[-0.427431640625,-0.5889892578125]","[-0.299052734375,-0.2871240234375]","[1,1]","[0,0]","[0,0]","[2.9983399999910034,4.097909999982221]","[""trial_sharp_left_box""]",0,42,42,41,1,farm3.jpg,drymountains3.jpg,fabricstore1.jpg,dentist2.jpg,,
Image_List_1,,,,,,,,,,,,,,,,44020,2020-11-06_18h08.05.081,lingCatScenes,2020.1.3,MacIntel,60,"[1280,800]",,,"[""trial_left_box"",""trial_sharp_left_box"",""trial_ahead_box"",""trial_right_box"",""trial_sharp_right_box""]",,,,,,,,,,,,warehouseoutside4.jpg,space,8.134355,"[-0.574580078125,-0.379052734375,-0.5957958984375,0.011220703125,0.3805126953125,0.6585693359375,0.586904296875]","[-0.3094775390625,-0.30201171875,-0.3161376953125,-0.300107421875,-0.3075927734375,-0.3075927734375,-0.3022509765625]","[1,1,1,1,1,1,1]","[0,0,0,0,0,0,0]","[0,0,0,0,0,0,0]","[1.643595000001369,2.810570000001462,4.028515000012703,5.028749999997672,6.897035000001779,7.430625000008149,7.830194999987725]","[""trial_left_box"",""trial_sharp_left_box"",""trial_ahead_box"",""trial_right_box"",""trial_sharp_right_box""]",0,43,43,97,1,wineVineyard2.jpg,waitingroom4.jpg,winebarrel3.jpg,warehouseoutside3.jpg,,
Image_List_1,,,,,,,,,,,,,,,,44020,2020-11-06_18h08.05.081,lingCatScenes,2020.1.3,MacIntel,60,"[1280,800]",,,"[""trial_slight_right_box""]",,,,,,,,,,,,deck5.jpg,space,2.11035,[0.1790087890625],[-0.301982421875],[1],[0],[0],[1.7777249999926426],"[""trial_slight_right_box""]",0,44,44,35,1,dock3.jpg,cubicle7.jpg,dining_car6.jpg,carmechanic2.jpg,,
Image_List_1,,,,,,,,,,,,,,,,44020,2020-11-06_18h08.05.081,lingCatScenes,2020.1.3,MacIntel,60,"[1280,800]",,,"[""trial_left_box"",""trial_slight_left_box""]",,,,,,,,,,,,campsite7.jpg,space,5.999715,"[-0.0219384765625,-0.1687109375,0.023056640625,-0.3998583984375,-0.13728515625,-0.181728515625]","[-0.315830078125,-0.3025341796875,-0.2888720703125,-0.3087841796875,-0.313212890625,-0.308125]","[1,1,1,1,1,1]","[0,0,0,0,0,0]","[0,0,0,0,0,0]","[2.0806900000025053,3.0977750000020023,4.248649999994086,4.8821549999993294,5.331729999976233,5.698109999997541]","[""trial_ahead_box"",""trial_ahead_box"",""trial_left_box"",""trial_slight_left_box""]",0,45,45,25,1,conference3.jpg,church3.jpg,checkoutcounter2.jpg,botanicalGarden4.jpg,,
Image_List_1,,,,,,,,,,,,,,,,44020,2020-11-06_18h08.05.081,lingCatScenes,2020.1.3,MacIntel,60,"[1280,800]",,,"[""trial_right_box"",""trial_sharp_left_box""]",,,,,,,,,,,,drycleaners4.jpg,space,4.93305,"[0.394658203125,-0.5967822265625]","[-0.3106689453125,-0.3028662109375]","[1,1]","[0,0]","[0,0]","[3.129799999995157,4.64730499999132]","[""trial_right_box"",""trial_sharp_left_box""]",0,46,46,40,1,farm1.jpg,drymountains.jpg,dugout1.jpg,clothingstore3.jpg,,
Image_List_1,,,,,,,,,,,,,,,,44020,2020-11-06_18h08.05.081,lingCatScenes,2020.1.3,MacIntel,60,"[1280,800]",,,"[""trial_sharp_right_box""]",,,,,,,,,,,,botanicalGarden6.jpg,space,3.87967,[0.60734375],[-0.291376953125],[1],[0],[0],[3.4811899999913294],"[""trial_sharp_right_box""]",0,47,47,21,1,cemetery6.jpg,campusquad3.jpg,cave5.jpg,beach1.jpeg,,
Image_List_1,,,,,,,,,,,,,,,,44020,2020-11-06_18h08.05.081,lingCatScenes,2020.1.3,MacIntel,60,"[1280,800]",,,"[""trial_sharp_right_box"",""trial_sharp_left_box"",""trial_left_box"",""trial_right_box""]",,,,,,,,,,,,pavilion2.jpg,space,8.36854,"[0.60884765625,-0.6178515625,-0.4565966796875,-0.35638671875,-0.413974609375,0.3804931640625]","[-0.3089697265625,-0.2858984375,-0.295390625,-0.2957421875,-0.28587890625,-0.291767578125]","[1,1,1,1,1,1]","[0,0,0,0,0,0]","[0,0,0,0,0,0]","[2.515045000007376,5.4990600000019185,6.366845000011381,6.733360000012908,7.151305000006687,8.068520000000717]","[""trial_sharp_right_box"",""trial_sharp_left_box"",""trial_left_box"",""trial_right_box""]",0,48,48,80,1,racecarcourse2.jpg,porch.jpg,poolhall5.jpg,parkinggarage4.jpg,,
Image_List_1,,,,,,,,,,,,,,,,44020,2020-11-06_18h08.05.081,lingCatScenes,2020.1.3,MacIntel,60,"[1280,800]",,,"[""trial_ahead_box"",""trial_right_box"",""trial_left_box""]",,,,,,,,,,,,rooftop1.jpg,space,4.696755,"[0.01798828125,0.4137744140625,-0.3814892578125]","[-0.2908984375,-0.298759765625,-0.2923779296875]","[1,1,1]","[0,0,0]","[0,0,0]","[1.7616350000025705,3.1954550000082236,4.431660000002012]","[""trial_ahead_box"",""trial_right_box"",""trial_left_box""]",0,49,49,88,1,track.jpg,sculpturegarden4.jpg,soccerfield.jpg,sandbox.jpg,,
Image_List_1,,,,,,,,,,,,,,,,44020,2020-11-06_18h08.05.081,lingCatScenes,2020.1.3,MacIntel,60,"[1280,800]",,,"[""trial_ahead_box""]",,,,,,,,,,,,driveway6.jpg,space,1.667035,[-0.0103857421875],[-0.3050537109375],[1],[0],[0],[1.3477199999906588],"[""trial_ahead_box""]",0,50,50,39,1,eyeglassstore9.jpg,drycleaners6.jpg,drymountains5.jpg,cliff5.jpg,,
Image_List_1,,,,,,,,,,,,,,,,44020,2020-11-06_18h08.05.081,lingCatScenes,2020.1.3,MacIntel,60,"[1280,800]",,,"[""trial_right_box"",""trial_sharp_right_box""]",,,,,,,,,,,,bikerack1.jpg,space,3.71571,"[0.41943359375,0.5876953125]","[-0.2975146484375,-0.3124072265625]","[1,1]","[0,0]","[0,0]","[1.5964349999849219,2.8305899999977555]","[""trial_right_box"",""trial_sharp_right_box""]",0,51,51,17,1,campsite6.jpg,breakroom4.jpg,carmechanic.jpg,baseball6.jpg,,
Image_List_1,,,,,,,,,,,,,,,,44020,2020-11-06_18h08.05.081,lingCatScenes,2020.1.3,MacIntel,60,"[1280,800]",,,"[""trial_sharp_right_box"",""trial_sharp_left_box""]",,,,,,,,,,,,flowershop.jpg,space,3.262485,"[0.609619140625,-0.5819873046875]","[-0.3054296875,-0.293759765625]","[1,1]","[0,0]","[0,0]","[1.9456349999818485,2.895584999991115]","[""trial_sharp_right_box"",""trial_sharp_left_box""]",0,52,52,46,1,frontLawn5.jpg,farmersmarket4.jpg,fountain4.jpg,dormroom6.jpg,,
Image_List_1,,,,,,,,,,,,,,,,44020,2020-11-06_18h08.05.081,lingCatScenes,2020.1.3,MacIntel,60,"[1280,800]",,,"[""trial_sharp_left_box"",""trial_sharp_right_box""]",,,,,,,,,,,,restaurant14.jpg,space,3.597405,"[-0.5893701171875,0.6043994140625]","[-0.3132861328125,-0.3157275390625]","[1,1]","[0,0]","[0,0]","[2.1634250000061,3.012844999990193]","[""trial_sharp_left_box"",""trial_sharp_right_box""]",0,53,53,86,1,stripmall.jpg,ruralroad3.jpg,sandDunes_desert_outdoor8.jpg,rooftop4.jpg,,
Image_List_1,,,,,,,,,,,,,,,,44020,2020-11-06_18h08.05.081,lingCatScenes,2020.1.3,MacIntel,60,"[1280,800]",,,[],,,,,,,,,,,,artStudio3.jpg,space,3.997695,"[0.4120751953125,0.4137158203125,0.4119580078125,0.4119580078125,0.4119580078125]","[-0.335390625,-0.277783203125,-0.2938037109375,-0.2938037109375,-0.2938037109375]","[1,1,1,1,1]","[0,0,0,0,0]","[0,0,0,0,0]","[1.7977449999889359,2.380329999985406,3.0137899999972433,3.4146100000070874,3.7972249999875203]","[""trial_right_box"",""trial_right_box"",""trial_right_box"",""trial_right_box""]",0,54,54,5,1,bambooforest.jpg,auto_showroom4.jpg,attic4.jpg,amusement3.jpg,,
Image_List_1,,,,,,,,,,,,,,,,44020,2020-11-06_18h08.05.081,lingCatScenes,2020.1.3,MacIntel,60,"[1280,800]",,,"[""trial_right_box"",""trial_sharp_right_box""]",,,,,,,,,,,,auto_showroom3.jpg,space,3.71574,"[0.385166015625,0.5799658203125]","[-0.3004345703125,-0.3093115234375]","[1,1]","[0,0]","[0,0]","[2.0291999999899417,3.19684999997844]","[""trial_right_box"",""trial_sharp_right_box""]",0,55,55,9,1,bar2.jpg,ballroom2.jpg,basement5.jpg,arcade2.jpg,,
Image_List_1,,,,,,,,,,,,,,,,44020,2020-11-06_18h08.05.081,lingCatScenes,2020.1.3,MacIntel,60,"[1280,800]",,,"[""trial_right_box"",""trial_sharp_right_box""]",,,,,,,,,,,,basement.jpg,space,4.88646,"[0.4187109375,0.590654296875]","[-0.3047998046875,-0.3047998046875]","[1,1]","[0,0]","[0,0]","[3.432184999983292,4.482974999991711]","[""trial_right_box"",""trial_sharp_right_box""]",0,56,56,16,1,cafeteria6.jpg,breakroom2.jpg,campusquad4.jpg,barbershop2.jpg,,
Image_List_1,,,,,,,,,,,,,,,,44020,2020-11-06_18h08.05.081,lingCatScenes,2020.1.3,MacIntel,60,"[1280,800]",,,"[""trial_sharp_right_box"",""trial_right_box"",""trial_left_box"",""trial_sharp_left_box""]",,,,,,,,,,,,parkinglot3.jpg,space,11.400975,"[-0.014697265625,0.5761962890625,0.4098681640625,-0.4046044921875,-0.55802734375,-0.6085693359375,-0.2292041015625,-0.1938916015625,0.19109375,0.005517578125,0.2056298828125,-0.214326171875]","[-0.298662109375,-0.3099267578125,-0.3000341796875,-0.3046875,-0.30029296875,-0.307041015625,-0.2911376953125,-0.2980908203125,-0.3022705078125,-0.3084130859375,-0.289462890625,-0.304765625]","[1,1,1,1,1,1,1,1,1,1,1,1]","[0,0,0,0,0,0,0,0,0,0,0,0]","[0,0,0,0,0,0,0,0,0,0,0,0]","[1.51273499999661,2.746855000004871,3.381970000016736,4.1808900000178255,4.930125000013504,5.446905000018887,5.980494999996154,7.081000000005588,8.365990000020247,9.449930000002496,10.384125000011409,11.033355000021402]","[""trial_ahead_box"",""trial_sharp_right_box"",""trial_right_box"",""trial_left_box"",""trial_sharp_left_box"",""trial_slight_left_box"",""trial_slight_right_box"",""trial_ahead_box"",""trial_slight_right_box"",""trial_slight_left_box""]",0,57,57,78,1,poolhall1.jpg,pier5.jpg,pavilion3.jpg,observatory1.jpg,,
Image_List_1,,,,,,,,,,,,,,,,44020,2020-11-06_18h08.05.081,lingCatScenes,2020.1.3,MacIntel,60,"[1280,800]",,,"[""trial_ahead_box"",""trial_sharp_right_box"",""trial_sharp_left_box""]",,,,,,,,,,,,hut2.jpg,space,5.949695,"[0.009921875,0.6145947265625,-0.5478076171875,-0.6087890625]","[-0.3029541015625,-0.300166015625,-0.27978515625,-0.31041015625]","[1,1,1,1]","[0,0,0,0]","[0,0,0,0]","[3.0475149999838322,4.048534999979893,5.148669999995036,5.666724999988219]","[""trial_ahead_box"",""trial_sharp_right_box"",""trial_sharp_left_box""]",0,58,58,63,1,museum6.jpg,hotelRoom2.jpg,lab4.jpg,highway2.jpg,,
Image_List_1,,,,,,,,,,,,,,,,44020,2020-11-06_18h08.05.081,lingCatScenes,2020.1.3,MacIntel,60,"[1280,800]",,,"[""trial_slight_right_box"",""trial_right_box"",""trial_slight_left_box"",""trial_left_box""]",,,,,,,,,,,,museum5.jpg,space,9.018355,"[0.219677734375,0.602353515625,0.4102294921875,0.6135888671875,-0.2035546875,-0.3881982421875]","[-0.2945849609375,-0.2914306640625,-0.3037255859375,-0.3180712890625,-0.297119140625,-0.3190869140625]","[1,1,1,1,1,1]","[0,0,0,0,0,0]","[0,0,0,0,0,0]","[4.178634999989299,5.0955899999826215,5.979699999996228,6.830219999974361,7.615294999995967,8.699179999995977]","[""trial_slight_right_box"",""trial_sharp_right_box"",""trial_right_box"",""trial_sharp_right_box"",""trial_slight_left_box"",""trial_left_box""]",0,59,59,72,1,pharmacy4.jpg,musicStore1.jpg,museum4.jpg,kindergarten_classroom.jpg,,
Image_List_1,,,,,,,,,,,,,,,,44020,2020-11-06_18h08.05.081,lingCatScenes,2020.1.3,MacIntel,60,"[1280,800]",,,"[""trial_slight_left_box""]",,,,,,,,,,,,hometheater2.jpg,space,2.598875,[-0.205390625],[-0.2955322265625],[1],[0],[0],[2.1652649999887217],"[""trial_slight_left_box""]",0,60,60,60,1,lightingstore3.jpg,homegarage.jpg,kindergarten_classroom6.jpg,hallway.jpg,,
Image_List_1,,,,,,,,,,,,,,,,44020,2020-11-06_18h08.05.081,lingCatScenes,2020.1.3,MacIntel,60,"[1280,800]",,,"[""trial_ahead_box"",""trial_slight_left_box"",""trial_left_box"",""trial_sharp_left_box"",""trial_sharp_right_box""]",,,,,,,,,,,,boardwalk2.jpg,space,6.15102,"[-0.0137060546875,-0.211318359375,-0.4128369140625,-0.5918359375,0.602021484375,0.606650390625]","[-0.29890625,-0.30564453125,-0.308173828125,-0.3148828125,-0.2666259765625,-0.308232421875]","[1,1,1,1,1,1]","[0,0,0,0,0,0]","[0,0,0,0,0,0]","[1.8466349999944214,2.630494999990333,3.281359999993583,3.9645949999976438,5.098794999998063,5.6976599999761675]","[""trial_ahead_box"",""trial_slight_left_box"",""trial_left_box"",""trial_sharp_left_box"",""trial_sharp_right_box""]",0,61,61,19,1,casino3.jpg,cafeteria1.jpg,castle4.jpg,basketballcourt.jpg,,
Image_List_1,,,,,,,,,,,,,,,,44020,2020-11-06_18h08.05.081,lingCatScenes,2020.1.3,MacIntel,60,"[1280,800]",,,"[""trial_sharp_right_box"",""trial_sharp_left_box""]",,,,,,,,,,,,frontDoor.jpg,space,14.07153,"[0.617568359375,-0.5873779296875]","[-0.309755859375,-0.28439453125]","[1,1]","[0,0]","[0,0]","[12.650609999982407,13.653854999982286]","[""trial_sharp_right_box"",""trial_sharp_left_box""]",0,62,62,47,1,gasstation8.jpg,firestation4.jpg,fountain7.jpg,elevatorOutside2.jpg,,
Image_List_1,,,,,,,,,,,,,,,,44020,2020-11-06_18h08.05.081,lingCatScenes,2020.1.3,MacIntel,60,"[1280,800]",,,"[""trial_sharp_right_box"",""trial_sharp_left_box""]",,,,,,,,,,,,artStudio1.jpg,space,3.76435,"[0.588251953125,-0.58779296875]","[-0.30751953125,-0.288896484375]","[1,1]","[0,0]","[0,0]","[2.662994999991497,3.4820199999958277]","[""trial_sharp_right_box"",""trial_sharp_left_box""]",0,63,63,4,1,baggageClaim2.jpg,auto_showroom1.jpg,appleorchard3.jpg,alley4.jpg,,
Image_List_1,,,,,,,,,,,,,,,,44020,2020-11-06_18h08.05.081,lingCatScenes,2020.1.3,MacIntel,60,"[1280,800]",,,"[""trial_ahead_box"",""trial_slight_right_box"",""trial_slight_left_box""]",,,,,,,,,,,,ballroom1.jpg,space,4.683365,"[0.0239501953125,0.2215234375,-0.199140625]","[-0.32365234375,-0.3139404296875,-0.29998046875]","[1,1,1]","[0,0,0]","[0,0,0]","[1.2961749999958556,3.7313450000074226,4.398329999996349]","[""trial_ahead_box"",""trial_slight_right_box"",""trial_slight_left_box""]",0,64,64,14,1,breakroom5.jpg,bistrooutdoor5.jpg,botanicalGarden5.jpg,ballroom3.jpg,,
Image_List_1,,,,,,,,,,,,,,,,44020,2020-11-06_18h08.05.081,lingCatScenes,2020.1.3,MacIntel,60,"[1280,800]",,,"[""trial_ahead_box""]",,,,,,,,,,,,wineVineyard9.jpg,space,3.769035,[0.0140673828125],[-0.2962060546875],[1],[0],[0],[1.3468700000084937],"[""trial_ahead_box""]",0,65,65,99,1,yogastudio4.jpg,windmill2.jpg,wrestlingring7.jpg,yogastudio1.jpg,,
Image_List_1,,,,,,,,,,,,,,,,44020,2020-11-06_18h08.05.081,lingCatScenes,2020.1.3,MacIntel,60,"[1280,800]",,,"[""trial_ahead_box"",""trial_right_box"",""trial_left_box""]",,,,,,,,,,,,gazebo3.jpg,space,4.55111,"[0.0140673828125,0.40376953125,-0.4068896484375]","[-0.2962060546875,-0.3058056640625,-0.2941552734375]","[1,1,1]","[0,0,0]","[0,0,0]","[2.5805299999774434,3.481854999990901,4.264934999984689]","[""trial_ahead_box"",""trial_right_box"",""trial_left_box""]",0,66,66,53,1,homeoffice.jpg,frontLawn3.jpg,homegarage3.jpg,fountain.jpg,,
Image_List_1,,,,,,,,,,,,,,,,44020,2020-11-06_18h08.05.081,lingCatScenes,2020.1.3,MacIntel,60,"[1280,800]",,,"[""trial_slight_left_box"",""trial_sharp_right_box""]",,,,,,,,,,,,staircase.jpg,space,4.080375,"[-0.1986083984375,0.584130859375]","[-0.3112255859375,-0.3013330078125]","[1,1]","[0,0]","[0,0]","[2.4642750000057276,3.7291799999948125]","[""trial_slight_left_box"",""trial_sharp_right_box""]",0,67,67,92,1,volleyballcourt.jpg,skatepark7.jpg,tvstudio2.jpg,soccerfield2.jpg,,
Image_List_1,,,,,,,,,,,,,,,,44020,2020-11-06_18h08.05.081,lingCatScenes,2020.1.3,MacIntel,60,"[1280,800]",,,"[""trial_left_box""]",,,,,,,,,,,,liquorstore8.jpg,space,1.83354,[-0.3860888671875],[-0.291337890625],[1],[0],[0],[1.5285800000128802],"[""trial_left_box""]",0,68,68,69,1,parkinglot2.jpg,livingroom.jpg,metroInside1.jpg,icecream2.jpg,,
Image_List_1,,,,,,,,,,,,,,,,44020,2020-11-06_18h08.05.081,lingCatScenes,2020.1.3,MacIntel,60,"[1280,800]",,,"[""trial_left_box"",""trial_sharp_left_box""]",,,,,,,,,,,,ATM1.jpg,space,7.43442,"[-0.3860888671875,-0.610029296875,-0.5518505859375]","[-0.291337890625,-0.3026708984375,-0.2251611328125]","[1,1,1]","[0,0,0]","[0,0,0]","[1.4448599999886937,4.679284999991069,7.064524999994319]","[""trial_left_box"",""trial_sharp_left_box""]",0,69,69,6,1,banquetHall2.jpg,auto_showroom5.jpg,baggageClaim1.jpg,apartmentBuilding3.jpg,,
Image_List_1,,,,,,,,,,,,,,,,44020,2020-11-06_18h08.05.081,lingCatScenes,2020.1.3,MacIntel,60,"[1280,800]",,,"[""trial_slight_left_box"",""trial_left_box"",""trial_sharp_left_box"",""trial_right_box"",""trial_sharp_right_box""]",,,,,,,,,,,,hayfield5.jpg,space,7.30374,"[-0.2010400390625,-0.36966796875,-0.3892822265625,-0.57392578125,-0.593095703125,0.3958740234375,0.62408203125]","[-0.3249267578125,-0.31634765625,-0.3099755859375,-0.3101806640625,-0.309658203125,-0.32310546875,-0.3083837890625]","[1,1,1,1,1,1,1]","[0,0,0,0,0,0,0]","[0,0,0,0,0,0,0]","[1.713175000011688,2.2467199999955483,2.679869999992661,3.2466049999929965,3.6642550000105985,4.930280000000494,6.314570000016829]","[""trial_slight_left_box"",""trial_left_box"",""trial_sharp_left_box"",""trial_right_box"",""trial_sharp_right_box""]",0,70,70,57,1,jail1.jpg,hallway4.jpg,hut5.jpg,gazebo.jpg,,
Image_List_1,,,,,,,,,,,,,,,,44020,2020-11-06_18h08.05.081,lingCatScenes,2020.1.3,MacIntel,60,"[1280,800]",,,"[""trial_left_box""]",,,,,,,,,,,,pantry5.jpg,space,2.851245,"[-0.20447265625,-0.396953125,-0.2202392578125]","[-0.2838818359375,-0.28064453125,-0.283779296875]","[1,1,1]","[0,0,0]","[0,0,0]","[1.3642150000086986,1.9639399999869056,2.531510000000708]","[""trial_slight_left_box"",""trial_left_box"",""trial_slight_left_box""]",0,71,71,75,1,playground6.jpg,operatingroom4.jpg,park.jpg,lockerroom.jpg,,
Image_List_1,,,,,,,,,,,,,,,,44020,2020-11-06_18h08.05.081,lingCatScenes,2020.1.3,MacIntel,60,"[1280,800]",,,"[""trial_right_box""]",,,,,,,,,,,,dining_car2.jpg,space,1.912545,[0.4020654296875],[-0.29900390625],[1],[0],[0],[1.6132849999994505],"[""trial_right_box""]",0,72,72,38,1,elevatorOutside4.jpg,dock1.jpg,driveway8.jpg,classroom1.jpg,,
Image_List_1,,,,,,,,,,,,,,,,44020,2020-11-06_18h08.05.081,lingCatScenes,2020.1.3,MacIntel,60,"[1280,800]",,,"[""trial_sharp_right_box"",""trial_ahead_box"",""trial_sharp_left_box""]",,,,,,,,,,,,hotellobby2.jpg,space,6.30015,"[0.599912109375,0.010791015625,-0.59623046875]","[-0.3024365234375,-0.280771484375,-0.2937939453125]","[1,1,1]","[0,0,0]","[0,0,0]","[3.647529999987455,4.898554999992484,6.048305000003893]","[""trial_sharp_right_box"",""trial_ahead_box"",""trial_sharp_left_box""]",0,73,73,62,1,minigolf.jpg,horsebarn8.jpg,lab3.jpg,hayfield7.jpg,,
Image_List_1,,,,,,,,,,,,,,,,44020,2020-11-06_18h08.05.081,lingCatScenes,2020.1.3,MacIntel,60,"[1280,800]",,,"[""trial_left_box""]",,,,,,,,,,,,diner14.jpg,space,2.498275,[-0.383447265625],[-0.2874755859375],[1],[0],[0],[2.1780499999877065],"[""trial_left_box""]",0,74,74,36,1,dormroom9.jpg,dining_car3.jpg,doctor1.jpg,checkoutcounter9.jpg,,
Image_List_1,,,,,,,,,,,,,,,,44020,2020-11-06_18h08.05.081,lingCatScenes,2020.1.3,MacIntel,60,"[1280,800]",,,"[""trial_sharp_right_box"",""trial_sharp_left_box""]",,,,,,,,,,,,campsite.jpg,space,3.798905,"[0.5910693359375,-0.590166015625]","[-0.2926708984375,-0.2990625]","[1,1]","[0,0]","[0,0]","[2.2471049999876413,3.431394999992335]","[""trial_sharp_right_box"",""trial_sharp_left_box""]",0,75,75,24,1,cliff3.jpg,cave6.jpg,cemetery5.jpg,boardwalk.jpg,,
Image_List_1,,,,,,,,,,,,,,,,44020,2020-11-06_18h08.05.081,lingCatScenes,2020.1.3,MacIntel,60,"[1280,800]",,,"[""trial_left_box"",""trial_ahead_box""]",,,,,,,,,,,,ruralroad7.jpg,space,5.96771,"[-0.43103515625,-0.395478515625,-0.0009716796875]","[-0.3133544921875,-0.308857421875,-0.3108447265625]","[1,1,1]","[0,0,0]","[0,0,0]","[1.7312999999849126,2.746450000006007,5.632485000009183]","[""trial_left_box"",""trial_ahead_box""]",0,76,76,89,1,track5.jpg,ShowJumping7.jpg,staircase7.jpg,sculpturegarden3.jpg,,
Image_List_1,,,,,,,,,,,,,,,,44020,2020-11-06_18h08.05.081,lingCatScenes,2020.1.3,MacIntel,60,"[1280,800]",,,"[""trial_slight_right_box""]",,,,,,,,,,,,balconyIN2.jpg,space,2.34985,[0.2074755859375],[-0.30310546875],[1],[0],[0],[1.713354999985313],"[""trial_slight_right_box""]",0,77,77,13,1,bowlingalley3.jpg,beach2.jpg,boardwalk4.jpg,backyard6.jpg,,
Image_List_1,,,,,,,,,,,,,,,,44020,2020-11-06_18h08.05.081,lingCatScenes,2020.1.3,MacIntel,60,"[1280,800]",,,"[""trial_ahead_box"",""trial_slight_left_box"",""trial_left_box"",""trial_sharp_left_box"",""trial_slight_right_box"",""trial_right_box"",""trial_sharp_right_box""]",,,,,,,,,,,,savanna5.jpg,space,7.167365,"[0.0029248046875,-0.19517578125,-0.3880078125,-0.6264599609375,-0.6007373046875,0.2281689453125,0.2083984375,0.3844384765625,0.590322265625]","[-0.2837158203125,-0.302734375,-0.30822265625,-0.309658203125,-0.297060546875,-0.286982421875,-0.29744140625,-0.29744140625,-0.309150390625]","[1,1,1,1,1,1,1,1,1]","[0,0,0,0,0,0,0,0,0]","[0,0,0,0,0,0,0,0,0]","[1.6795599999895785,2.3311800000083167,3.0966649999900255,3.646470000006957,4.264744999993127,5.065159999998286,5.548869999998715,6.147709999990184,6.848789999989094]","[""trial_ahead_box"",""trial_slight_left_box"",""trial_left_box"",""trial_sharp_left_box"",""trial_slight_right_box"",""trial_right_box"",""trial_sharp_right_box""]",0,78,78,90,1,trainStation1.jpg,sidewalk1.jpg,stripmall3.jpg,shoestore4.jpg,,
Image_List_1,,,,,,,,,,,,,,,,44020,2020-11-06_18h08.05.081,lingCatScenes,2020.1.3,MacIntel,60,"[1280,800]",,,"[""trial_right_box"",""trial_sharp_right_box"",""trial_sharp_left_box""]",,,,,,,,,,,,dancestudio6.jpg,space,4.715765,"[0.3966552734375,0.5740185546875,0.6165771484375,-0.5796435546875]","[-0.298037109375,-0.303671875,-0.30591796875,-0.3078759765625]","[1,1,1,1]","[0,0,0,0]","[0,0,0,0]","[1.9302699999825563,2.830999999976484,3.2477649999782443,4.43206999998074]","[""trial_right_box"",""trial_sharp_right_box"",""trial_sharp_left_box""]",0,79,79,32,1,diner12.jpg,constructionSite2.jpg,dentist4.jpg,cabin4.jpg,,
Image_List_1,,,,,,,,,,,,,,,,44020,2020-11-06_18h08.05.081,lingCatScenes,2020.1.3,MacIntel,60,"[1280,800]",,,"[""trial_sharp_left_box"",""trial_sharp_right_box""]",,,,,,,,,,,,recordingstudio4.jpg,space,17.62231,"[-0.5948681640625,0.590859375]","[-0.295048828125,-0.3195166015625]","[1,1]","[0,0]","[0,0]","[15.989274999999907,17.08999499998754]","[""trial_sharp_left_box"",""trial_sharp_right_box""]",0,80,80,85,1,sidewalk5.jpg,ruralroad2.jpg,sandDunes_desert_outdoor3.jpg,rooftop3.jpg,,
Image_List_1,,,,,,,,,,,,,,,,44020,2020-11-06_18h08.05.081,lingCatScenes,2020.1.3,MacIntel,60,"[1280,800]",,,"[""trial_ahead_box"",""trial_sharp_left_box""]",,,,,,,,,,,,library_aisle3.jpg,space,3.525645,"[-0.00125,-0.59021484375]","[-0.277841796875,-0.307333984375]","[1,1]","[0,0]","[0,0]","[1.3603250000160187,3.0944299999973737]","[""trial_ahead_box"",""trial_sharp_left_box""]",0,81,81,67,1,park7.jpg,laundromat4.jpg,liquorstore2.jpg,hospitalroom2.jpg,,
Image_List_1,,,,,,,,,,,,,,,,44020,2020-11-06_18h08.05.081,lingCatScenes,2020.1.3,MacIntel,60,"[1280,800]",,,"[""trial_ahead_box"",""trial_right_box"",""trial_sharp_right_box"",""trial_sharp_left_box""]",,,,,,,,,,,,parkinggarage2.jpg,space,6.147175,"[-0.0092626953125,0.436044921875,0.405478515625,0.596162109375,-0.598994140625]","[-0.3110107421875,-0.28947265625,-0.294912109375,-0.29673828125,-0.314814453125]","[1,1,1,1,1]","[0,0,0,0,0]","[0,0,0,0,0]","[1.327129999990575,3.8113699999812525,4.312434999999823,4.895909999992,5.845994999981485]","[""trial_ahead_box"",""trial_right_box"",""trial_sharp_right_box"",""trial_sharp_left_box""]",0,82,82,77,1,playroom6.jpg,pasture9.jpg,park8.jpg,mallindoor6.jpg,,
Image_List_1,,,,,,,,,,,,,,,,44020,2020-11-06_18h08.05.081,lingCatScenes,2020.1.3,MacIntel,60,"[1280,800]",,,"[""trial_slight_left_box"",""trial_right_box""]",,,,,,,,,,,,shoestore2.jpg,space,3.89957,"[-0.2119384765625,0.41505859375]","[-0.2951806640625,-0.300224609375]","[1,1]","[0,0]","[0,0]","[2.3476899999950547,3.5647400000016205]","[""trial_slight_left_box"",""trial_right_box""]",0,83,83,91,1,trainStation5.jpg,skatepark5.jpg,ticket_counter6.jpg,sidewalk3.jpg,,
Image_List_1,,,,,,,,,,,,,,,,44020,2020-11-06_18h08.05.081,lingCatScenes,2020.1.3,MacIntel,60,"[1280,800]",,,"[""trial_ahead_box"",""trial_sharp_left_box"",""trial_sharp_right_box""]",,,,,,,,,,,,igloo5.jpg,space,4.63529,"[-0.01345703125,-0.575361328125,0.5688037109375,0.592998046875]","[-0.3120166015625,-0.3162060546875,-0.293349609375,-0.293349609375]","[1,1,1,1]","[0,0,0,0]","[0,0,0,0]","[1.246870000002673,2.4649700000009034,3.8478650000179186,4.334940000000643]","[""trial_ahead_box"",""trial_sharp_left_box"",""trial_sharp_right_box""]",0,84,84,65,1,newsstand7.jpg,laundromat2.jpeg,labClass7.jpg,homeoffice8.jpg,,
Image_List_1,,,,,,,,,,,,,,,,44020,2020-11-06_18h08.05.081,lingCatScenes,2020.1.3,MacIntel,60,"[1280,800]",,,"[""trial_ahead_box""]",,,,,,,,,,,,promenadeDeck.jpg,space,1.57994,[0.0078955078125],[-0.295732421875],[1],[0],[0],[1.1954900000127964],"[""trial_ahead_box""]",0,85,85,81,1,ruralroad5.jpg,promenadeDeck2.jpg,rainforest5.jpg,pasture8.jpg,,
Image_List_1,,,,,,,,,,,,,,,,44020,2020-11-06_18h08.05.081,lingCatScenes,2020.1.3,MacIntel,60,"[1280,800]",,,"[""trial_slight_right_box""]",,,,,,,,,,,,alley1.jpg,space,1.563625,[0.1926171875],[-0.290390625],[1],[0],[0],[1.2957950000127312],"[""trial_slight_right_box""]",0,86,86,2,1,arcade1.jpg,applestore6.jpg,apartmentBuilding4.jpg,airportTerminal6.jpg,,
Image_List_1,,,,,,,,,,,,,,,,44020,2020-11-06_18h08.05.081,lingCatScenes,2020.1.3,MacIntel,60,"[1280,800]",,,"[""trial_ahead_box""]",,,,,,,,,,,,airplanecabin1.jpg,space,1.38216,[-0.0166015625],[-0.2888623046875],[1],[0],[0],[0.9142100000171922],"[""trial_ahead_box""]",0,87,87,0,1,alley2.jpg,appleorchard4.jpg,airplanecabin5.jpg,airplanecabin3.jpg,,
Image_List_1,,,,,,,,,,,,,,,,44020,2020-11-06_18h08.05.081,lingCatScenes,2020.1.3,MacIntel,60,"[1280,800]",,,"[""trial_ahead_box""]",,,,,,,,,,,,waitingroom2.jpg,space,2.400855,[-0.0166015625],[-0.2888623046875],[1],[0],[0],[1.8951950000191573],"[""trial_ahead_box""]",0,88,88,95,1,warehouse2.jpg,stripmall6.jpg,weightroom4.jpg,tvstudio3.jpg,,
Image_List_1,,,,,,,,,,,,,,,,44020,2020-11-06_18h08.05.081,lingCatScenes,2020.1.3,MacIntel,60,"[1280,800]",,,"[""trial_ahead_box"",""trial_right_box""]",,,,,,,,,,,,tollbooth8.jpg,space,26.19413,"[-0.0166015625,0.3988671875]","[-0.2888623046875,-0.307978515625]","[1,1]","[0,0]","[0,0]","[23.941495000006398,25.476504999998724]","[""trial_ahead_box"",""trial_right_box""]",0,89,89,93,1,volleyballcourt4.jpg,staircase4.jpg,warehouseoutside2.jpg,tenniscourt.jpg,,
Image_List_1,,,,,,,,,,,,,,,,44020,2020-11-06_18h08.05.081,lingCatScenes,2020.1.3,MacIntel,60,"[1280,800]",,,"[""trial_right_box"",""trial_sharp_right_box""]",,,,,,,,,,,,apartmentBuilding2.jpg,space,3.61678,"[0.3988671875,0.5690771484375,0.6000634765625]","[-0.307978515625,-0.28599609375,-0.2941796875]","[1,1,1]","[0,0,0]","[0,0,0]","[1.7298700000101235,2.44694000002346,2.9795950000116136]","[""trial_right_box"",""trial_sharp_right_box""]",0,90,90,3,1,attic1.jpg,aquarium1.jpg,appleorchard2.jpg,alley3.jpg,,
Image_List_1,,,,,,,,,,,,,,,,44020,2020-11-06_18h08.05.081,lingCatScenes,2020.1.3,MacIntel,60,"[1280,800]",,,"[""trial_ahead_box"",""trial_sharp_left_box""]",,,,,,,,,,,,deck1.jpg,space,4.218375,"[0.0031298828125,-0.6286767578125,-0.619140625]","[-0.2992236328125,-0.3187353515625,-0.3187353515625]","[1,1,1]","[0,0,0]","[0,0,0]","[2.030864999978803,3.0987800000002608,3.749614999978803]","[""trial_ahead_box"",""trial_sharp_left_box""]",0,91,91,33,1,diningroom1.jpg,courthouse2.jpg,diner10.jpg,cabinIndoors5.jpg,,
Image_List_1,,,,,,,,,,,,,,,,44020,2020-11-06_18h08.05.081,lingCatScenes,2020.1.3,MacIntel,60,"[1280,800]",,,"[""trial_sharp_left_box"",""trial_right_box""]",,,,,,,,,,,,readingroom5.jpg,space,14.182365,"[-0.565673828125,-0.5885107421875,0.3992529296875,0.4081689453125]","[-0.29615234375,-0.297255859375,-0.32505859375,-0.297509765625]","[1,1,1,1]","[0,0,0,0]","[0,0,0,0]","[10.351585000025807,10.83597000001464,12.434425000014016,13.501895000023069]","[""trial_sharp_left_box"",""trial_right_box""]",0,92,92,84,1,sidewalk2.jpg,restaurant13.jpg,sandDunes_desert_outdoor.jpg,rooftop2.jpg,,
Image_List_1,,,,,,,,,,,,,,,,44020,2020-11-06_18h08.05.081,lingCatScenes,2020.1.3,MacIntel,60,"[1280,800]",,,"[""trial_ahead_box"",""trial_slight_right_box"",""trial_right_box"",""trial_sharp_right_box"",""trial_slight_left_box"",""trial_left_box"",""trial_sharp_left_box""]",,,,,,,,,,,,greenmountains.jpg,space,10.96785,"[0.01654296875,0.177685546875,0.3937451171875,0.6044677734375,-0.20953125,-0.395673828125,-0.5785107421875]","[-0.293828125,-0.3070703125,-0.3057470703125,-0.302470703125,-0.318349609375,-0.314384765625,-0.3057373046875]","[1,1,1,1,1,1,1]","[0,0,0,0,0,0,0]","[0,0,0,0,0,0,0]","[5.314790000003995,6.0992499999993015,7.5661850000033155,8.71708000000217,9.56678500000271,10.017034999997122,10.601135000004433]","[""trial_ahead_box"",""trial_slight_right_box"",""trial_right_box"",""trial_sharp_right_box"",""trial_slight_left_box"",""trial_left_box"",""trial_sharp_left_box""]",0,93,93,55,1,hotelRoom3.jpg,gazebo5.jpg,hotelRoom7.jpg,frontLawn2.jpg,,
Image_List_1,,,,,,,,,,,,,,,,44020,2020-11-06_18h08.05.081,lingCatScenes,2020.1.3,MacIntel,60,"[1280,800]",,,"[""trial_ahead_box""]",,,,,,,,,,,,dining_car.jpg,space,2.14724,[0.0099267578125],[-0.2913427734375],[1],[0],[0],[1.2964999999967404],"[""trial_ahead_box""]",0,94,94,37,1,driveway4.jpg,dinosaur4.jpg,driveway7.jpg,citystreet9.jpg,,
Image_List_1,,,,,,,,,,,,,,,,44020,2020-11-06_18h08.05.081,lingCatScenes,2020.1.3,MacIntel,60,"[1280,800]",,,"[""trial_right_box"",""trial_sharp_right_box""]",,,,,,,,,,,,readingroom1.jpg,space,3.601595,"[0.3991259765625,0.60611328125]","[-0.291884765625,-0.30306640625]","[1,1]","[0,0]","[0,0]","[1.5775049999938346,3.0130150000040885]","[""trial_right_box"",""trial_sharp_right_box""]",0,95,95,83,1,sculpturegarden1.jpg,promenadeDeck6.jpg,restaurant8.jpg,readingroom2.jpg,,
Image_List_1,,,,,,,,,,,,,,,,44020,2020-11-06_18h08.05.081,lingCatScenes,2020.1.3,MacIntel,60,"[1280,800]",,,"[""trial_sharp_left_box""]",,,,,,,,,,,,firestation2.jpg,space,2.932575,[-0.5963037109375],[-0.3087109375],[1],[0],[0],[2.346655000001192],"[""trial_sharp_left_box""]",0,96,96,44,1,frontFoyer4.jpg,elevatorOutside1.jpg,foodcourt6.jpg,dock2.jpg,,
Image_List_1,,,,,,,,,,,,,,,,44020,2020-11-06_18h08.05.081,lingCatScenes,2020.1.3,MacIntel,60,"[1280,800]",,,"[""trial_ahead_box""]",,,,,,,,,,,,bambooforest4.jpg,space,1.913615,"[0.0302783203125,-0.00421875]","[-0.320546875,-0.2932568359375]","[1,1]","[0,0]","[0,0]","[1.1620999999868218,1.6131149999855552]","[""trial_ahead_box""]",0,97,97,15,1,cafeteria5.jpg,bleachers8.jpg,cabinIndoors.jpg,bar8.jpg,,
Image_List_1,,,,,,,,,,,,,,,,44020,2020-11-06_18h08.05.081,lingCatScenes,2020.1.3,MacIntel,60,"[1280,800]",,,"[""trial_slight_right_box""]",,,,,,,,,,,,warehouse4.jpg,space,14.13639,"[0.5870166015625,0.4220361328125,0.6112939453125,0.3929833984375,0.1803564453125,0.1803564453125,0.1803564453125]","[-0.29287109375,-0.2839501953125,-0.2959228515625,-0.2959228515625,-0.3176904296875,-0.3176904296875,-0.3176904296875]","[1,1,1,1,1,1,1]","[0,0,0,0,0,0,0]","[0,0,0,0,0,0,0]","[5.6135749999957625,7.481820000015432,8.999500000005355,9.5665100000042,11.265765000018291,13.05133499999647,13.68403999999282]","[""trial_sharp_right_box"",""trial_right_box"",""trial_sharp_right_box"",""trial_right_box"",""trial_slight_right_box"",""trial_slight_right_box"",""trial_slight_right_box""]",0,98,98,96,1,warehouseoutside1.jpg,tenniscourt3.jpg,windmill1.jpg,warehouse1.jpg,,
Image_List_1,,,,,,,,,,,,,,,,44020,2020-11-06_18h08.05.081,lingCatScenes,2020.1.3,MacIntel,60,"[1280,800]",,,"[""trial_sharp_right_box"",""trial_sharp_left_box""]",,,,,,,,,,,,deck4.jpg,space,6.79722,"[0.4037841796875,0.4056640625,0.593115234375,-0.61478515625]","[-0.292353515625,-0.297646484375,-0.3019140625,-0.3022607421875]","[1,1,1,1]","[0,0,0,0]","[0,0,0,0]","[3.012029999983497,4.596354999986943,5.214234999992186,6.43134499998996]","[""trial_right_box"",""trial_right_box"",""trial_sharp_right_box"",""trial_sharp_left_box""]",0,99,99,34,1,diningroom5.jpg,courthouse4.jpg,diner11.jpg,campusquad1.jpg,,
Image_List_1,,,,,,,,,,,,,,,,44020,2020-11-06_18h08.05.081,lingCatScenes,2020.1.3,MacIntel,60,,,,,,,,,,,,,,,,,,,,,,,,,,,,,,,,,,,space,29.39264
