image_list,key_resp_intructions.keys,key_resp_intructions.rt,key_resp_intructions_3.keys,key_resp_intructions_3.rt,PracticeComplete_2.keys,PracticeComplete_2.rt,PracticeComplete_3.keys,PracticeComplete_3.rt,demo_trials.thisRepN,demo_trials.thisTrialN,demo_trials.thisN,demo_trials.thisIndex,demo_trials.ran,demo_images,path_images,participant,date,expName,psychopyVersion,OS,frameRate,windowSize,practice_complete.keys,practice_complete.rt,boxes_checked,PracticeComplete.keys,PracticeComplete.rt,practice_trials.thisRepN,practice_trials.thisTrialN,practice_trials.thisN,practice_trials.thisIndex,practice_trials.ran,practice_images,feedback_images,key_resp_intructions_2.keys,key_resp_intructions_2.rt,Image_List_5,trial_complete.keys,trial_complete.rt,trial_mouse.x,trial_mouse.y,trial_mouse.leftButton,trial_mouse.midButton,trial_mouse.rightButton,trial_mouse.time,trial_mouse.clicked_name,trials.thisRepN,trials.thisTrialN,trials.thisN,trials.thisIndex,trials.ran,Image_List_1,Image_List_2,Image_List_3,Image_List_4,key_resp.keys,key_resp.rt
Image_List_5,space,4.7874,space,3.858735,space,12.35474,space,2.309815,0,0,0,6,1,right_left.jpg,right_left_path.jpg,44033,2020-11-12_15h58.18.492,lingCatScenes,2020.1.3,MacIntel,60,,,,,,,,,,,,,,,,,,,,,,,,,,,,,,,,,,,,
Image_List_5,,,,,space,1.44783,space,0.971715,0,1,1,0,1,ahead.jpg,ahead_path.jpg,44033,2020-11-12_15h58.18.492,lingCatScenes,2020.1.3,MacIntel,60,,,,,,,,,,,,,,,,,,,,,,,,,,,,,,,,,,,,
Image_List_5,,,,,space,1.25663,space,0.98616,0,2,2,4,1,left.jpg,left_path.jpg,44033,2020-11-12_15h58.18.492,lingCatScenes,2020.1.3,MacIntel,60,,,,,,,,,,,,,,,,,,,,,,,,,,,,,,,,,,,,
Image_List_5,,,,,space,1.036865,space,0.552355,0,3,3,1,1,ahead_left.jpg,ahead_left_path.jpg,44033,2020-11-12_15h58.18.492,lingCatScenes,2020.1.3,MacIntel,60,,,,,,,,,,,,,,,,,,,,,,,,,,,,,,,,,,,,
Image_List_5,,,,,space,0.71744,space,0.520415,0,4,4,3,1,ahead_right_left.jpg,ahead_right_left_path.jpg,44033,2020-11-12_15h58.18.492,lingCatScenes,2020.1.3,MacIntel,60,,,,,,,,,,,,,,,,,,,,,,,,,,,,,,,,,,,,
Image_List_5,,,,,space,0.95949,space,0.61149,0,5,5,5,1,right.jpg,right_path.jpg,44033,2020-11-12_15h58.18.492,lingCatScenes,2020.1.3,MacIntel,60,,,,,,,,,,,,,,,,,,,,,,,,,,,,,,,,,,,,
Image_List_5,,,,,space,0.68265,space,1.269235,0,6,6,2,1,ahead_right.jpg,ahead_right_path.jpg,44033,2020-11-12_15h58.18.492,lingCatScenes,2020.1.3,MacIntel,60,,,,,,,,,,,,,,,,,,,,,,,,,,,,,,,,,,,,
Image_List_5,,,,,,,,,,,,,,,,44033,2020-11-12_15h58.18.492,lingCatScenes,2020.1.3,MacIntel,60,"[1440,900]",space,9.38765,"[""right_box""]",space,3.905725,0,0,0,1,1,ahead_left_2.jpg,ahead_left_2_path.jpg,,,,,,,,,,,,,,,,,,,,,,,
Image_List_5,,,,,,,,,,,,,,,,44033,2020-11-12_15h58.18.492,lingCatScenes,2020.1.3,MacIntel,60,"[1440,900]",space,4.27372,"[""ahead_box""]",space,1.209865,0,1,1,3,1,ahead_right_left_2.jpg,ahead_right_left_2_path.jpg,,,,,,,,,,,,,,,,,,,,,,,
Image_List_5,,,,,,,,,,,,,,,,44033,2020-11-12_15h58.18.492,lingCatScenes,2020.1.3,MacIntel,60,"[1440,900]",space,1.43615,"[""ahead_box""]",space,0.488275,0,2,2,0,1,ahead_2.jpg,ahead_2_path.jpg,,,,,,,,,,,,,,,,,,,,,,,
Image_List_5,,,,,,,,,,,,,,,,44033,2020-11-12_15h58.18.492,lingCatScenes,2020.1.3,MacIntel,60,"[1440,900]",space,3.21674,"[""slight_left_box""]",space,1.4271,0,3,3,4,1,left_2.jpg,left_2_path.jpg,,,,,,,,,,,,,,,,,,,,,,,
Image_List_5,,,,,,,,,,,,,,,,44033,2020-11-12_15h58.18.492,lingCatScenes,2020.1.3,MacIntel,60,"[1440,900]",space,4.631345,"[""sharp_right_box""]",space,0.918165,0,4,4,6,1,right_left_2.jpg,right_left_2_path.jpg,,,,,,,,,,,,,,,,,,,,,,,
Image_List_5,,,,,,,,,,,,,,,,44033,2020-11-12_15h58.18.492,lingCatScenes,2020.1.3,MacIntel,60,"[1440,900]",space,2.30202,"[""ahead_box""]",space,0.880875,0,5,5,2,1,ahead_right_2.jpg,ahead_right_2_path.jpg,,,,,,,,,,,,,,,,,,,,,,,
Image_List_5,,,,,,,,,,,,,,,,44033,2020-11-12_15h58.18.492,lingCatScenes,2020.1.3,MacIntel,60,"[1440,900]",space,2.983635,"[""slight_right_box""]",space,1.28107,0,6,6,5,1,right_2.jpg,right_2_path.jpg,,,,,,,,,,,,,,,,,,,,,,,
Image_List_5,,,,,,,,,,,,,,,,44033,2020-11-12_15h58.18.492,lingCatScenes,2020.1.3,MacIntel,60,"[1440,900]",,,"[""trial_sharp_left_box""]",,,,,,,,,,space,3.43331,tvstudio3.jpg,space,2.42937,[-0.6044704861111111],[-0.32154947916666665],[1],[0],[0],[2.119814999983646],"[""trial_sharp_left_box""]",0,0,0,95,1,waitingroom2.jpg,warehouse2.jpg,stripmall6.jpg,weightroom4.jpg,,
Image_List_5,,,,,,,,,,,,,,,,44033,2020-11-12_15h58.18.492,lingCatScenes,2020.1.3,MacIntel,60,"[1440,900]",,,"[""trial_ahead_box""]",,,,,,,,,,,,hayfield7.jpg,space,2.015155,"[-0.027174479166666668,-0.02083767361111111]","[-0.3201736111111111,-0.31909288194444446]","[1,1]","[0,0]","[0,0]","[1.1283099999418482,1.5457999999634922]","[""trial_ahead_box""]",0,1,1,62,1,hotellobby2.jpg,minigolf.jpg,horsebarn8.jpg,lab3.jpg,,
Image_List_5,,,,,,,,,,,,,,,,44033,2020-11-12_15h58.18.492,lingCatScenes,2020.1.3,MacIntel,60,"[1440,900]",,,"[""trial_slight_right_box""]",,,,,,,,,,,,campusquad1.jpg,space,1.67697,[0.1773828125],[-0.31157986111111113],[1],[0],[0],[1.427475000033155],"[""trial_slight_right_box""]",0,2,2,34,1,deck4.jpg,diningroom5.jpg,courthouse4.jpg,diner11.jpg,,
Image_List_5,,,,,,,,,,,,,,,,44033,2020-11-12_15h58.18.492,lingCatScenes,2020.1.3,MacIntel,60,"[1440,900]",,,"[""trial_ahead_box""]",,,,,,,,,,,,hallway.jpg,space,1.130485,[-0.007673611111111111],[-0.2884548611111111],[1],[0],[0],[0.9497749999864027],"[""trial_ahead_box""]",0,3,3,60,1,hometheater2.jpg,lightingstore3.jpg,homegarage.jpg,kindergarten_classroom6.jpg,,
Image_List_5,,,,,,,,,,,,,,,,44033,2020-11-12_15h58.18.492,lingCatScenes,2020.1.3,MacIntel,60,"[1440,900]",,,"[""trial_ahead_box""]",,,,,,,,,,,,hospitalroom2.jpg,space,1.649425,[-0.007673611111111111],[-0.2884548611111111],[1],[0],[0],[1.3280500000109896],"[""trial_ahead_box""]",0,4,4,67,1,library_aisle3.jpg,park7.jpg,laundromat4.jpg,liquorstore2.jpg,,
Image_List_5,,,,,,,,,,,,,,,,44033,2020-11-12_15h58.18.492,lingCatScenes,2020.1.3,MacIntel,60,"[1440,900]",,,[],,,,,,,,,,,,backyard6.jpg,space,2.18233,[0.5950260416666666],[-0.3253081597222222],[1],[0],[0],[1.945380000048317],[],0,5,5,13,1,balconyIN2.jpg,bowlingalley3.jpg,beach2.jpg,boardwalk4.jpg,,
Image_List_5,,,,,,,,,,,,,,,,44033,2020-11-12_15h58.18.492,lingCatScenes,2020.1.3,MacIntel,60,"[1440,900]",,,"[""trial_ahead_box""]",,,,,,,,,,,,airplanecabin3.jpg,space,2.680995,[0.007183159722222222],[-0.3044878472222222],[1],[0],[0],[2.4130049999803305],"[""trial_ahead_box""]",0,6,6,0,1,airplanecabin1.jpg,alley2.jpg,appleorchard4.jpg,airplanecabin5.jpg,,
Image_List_5,,,,,,,,,,,,,,,,44033,2020-11-12_15h58.18.492,lingCatScenes,2020.1.3,MacIntel,60,"[1440,900]",,,"[""trial_ahead_box""]",,,,,,,,,,,,baseball6.jpg,space,0.966925,[0.007183159722222222],[-0.3044878472222222],[1],[0],[0],[0.7119050000328571],"[""trial_ahead_box""]",0,7,7,17,1,bikerack1.jpg,campsite6.jpg,breakroom4.jpg,carmechanic.jpg,,
Image_List_5,,,,,,,,,,,,,,,,44033,2020-11-12_15h58.18.492,lingCatScenes,2020.1.3,MacIntel,60,"[1440,900]",,,"[""trial_ahead_box""]",,,,,,,,,,,,tenniscourt.jpg,space,1.046825,[0.007183159722222222],[-0.3044878472222222],[1],[0],[0],[0.8621699999785051],"[""trial_ahead_box""]",0,8,8,93,1,tollbooth8.jpg,volleyballcourt4.jpg,staircase4.jpg,warehouseoutside2.jpg,,
Image_List_5,,,,,,,,,,,,,,,,44033,2020-11-12_15h58.18.492,lingCatScenes,2020.1.3,MacIntel,60,"[1440,900]",,,"[""trial_slight_right_box""]",,,,,,,,,,,,dormroom6.jpg,space,2.55801,[0.1978081597222222],[-0.3024782986111111],[1],[0],[0],[2.396210000035353],"[""trial_slight_right_box""]",0,9,9,46,1,flowershop.jpg,frontLawn5.jpg,farmersmarket4.jpg,fountain4.jpg,,
Image_List_5,,,,,,,,,,,,,,,,44033,2020-11-12_15h58.18.492,lingCatScenes,2020.1.3,MacIntel,60,"[1440,900]",,,[],,,,,,,,,,,,homegarage2.jpg,space,3.003355,[0.023368055555555555],[-0.32948784722222224],[1],[0],[0],[2.7611650000326335],[],0,10,10,64,1,igloo2.jpg,newsstand5.jpg,jewelrystore8.jpg,lab5.jpg,,
Image_List_5,,,,,,,,,,,,,,,,44033,2020-11-12_15h58.18.492,lingCatScenes,2020.1.3,MacIntel,60,"[1440,900]",,,"[""trial_ahead_box""]",,,,,,,,,,,,firestation5.jpg,space,1.31197,[0.0105859375],[-0.3103255208333333],[1],[0],[0],[1.0940499999560416],"[""trial_ahead_box""]",0,11,11,51,1,gasstation6.jpg,hallway5.jpg,frontDoor5.jpg,hayfield4.jpg,,
Image_List_5,,,,,,,,,,,,,,,,44033,2020-11-12_15h58.18.492,lingCatScenes,2020.1.3,MacIntel,60,"[1440,900]",,,"[""trial_ahead_box""]",,,,,,,,,,,,icecream2.jpg,space,1.516795,[0.010008680555555555],[-0.31006510416666666],[1],[0],[0],[1.3300949999829754],"[""trial_ahead_box""]",0,12,12,69,1,liquorstore8.jpg,parkinglot2.jpg,livingroom.jpg,metroInside1.jpg,,
Image_List_5,,,,,,,,,,,,,,,,44033,2020-11-12_15h58.18.492,lingCatScenes,2020.1.3,MacIntel,60,"[1440,900]",,,"[""trial_ahead_box""]",,,,,,,,,,,,soccerfield2.jpg,space,1.330125,[0.010008680555555555],[-0.31006510416666666],[1],[0],[0],[1.111875000060536],"[""trial_ahead_box""]",0,13,13,92,1,staircase.jpg,volleyballcourt.jpg,skatepark7.jpg,tvstudio2.jpg,,
Image_List_5,,,,,,,,,,,,,,,,44033,2020-11-12_15h58.18.492,lingCatScenes,2020.1.3,MacIntel,60,"[1440,900]",,,"[""trial_slight_right_box""]",,,,,,,,,,,,lightingstore2.jpg,space,2.357505,[0.2059765625],[-0.2976388888888889],[1],[0],[0],[1.7286150000290945],"[""trial_slight_right_box""]",0,14,14,74,1,newsstand2.jpg,playground10.jpg,observatory4.jpeg,operatingroom1.jpg,,
Image_List_5,,,,,,,,,,,,,,,,44033,2020-11-12_15h58.18.492,lingCatScenes,2020.1.3,MacIntel,60,"[1440,900]",,,"[""trial_sharp_right_box""]",,,,,,,,,,,,cabinIndoors5.jpg,space,2.045425,[0.5757161458333333],[-0.308203125],[1],[0],[0],[1.7444599999580532],"[""trial_sharp_right_box""]",0,15,15,33,1,deck1.jpg,diningroom1.jpg,courthouse2.jpg,diner10.jpg,,
Image_List_5,,,,,,,,,,,,,,,,44033,2020-11-12_15h58.18.492,lingCatScenes,2020.1.3,MacIntel,60,"[1440,900]",,,"[""trial_ahead_box""]",,,,,,,,,,,,observatory2.jpg,space,1.365235,[0.0020442708333333333],[-0.2891579861111111],[1],[0],[0],[1.07902499998454],"[""trial_ahead_box""]",0,16,16,79,1,pasture.jpg,poolhall2.jpeg,playground9.jpg,pier2.jpg,,
Image_List_5,,,,,,,,,,,,,,,,44033,2020-11-12_15h58.18.492,lingCatScenes,2020.1.3,MacIntel,60,"[1440,900]",,,"[""trial_sharp_left_box""]",,,,,,,,,,,,backyard1.jpg,space,2.13313,[-0.6085373263888889],[-0.3090407986111111],[1],[0],[0],[1.9477049999404699],"[""trial_sharp_left_box""]",0,17,17,11,1,backyard2.jpg,basketballcourt4.jpg,bambooforest3.jpg,baywindow5.jpg,,
Image_List_5,,,,,,,,,,,,,,,,44033,2020-11-12_15h58.18.492,lingCatScenes,2020.1.3,MacIntel,60,"[1440,900]",,,"[""trial_sharp_right_box""]",,,,,,,,,,,,boardwalk.jpg,space,2.750025,[0.5865625],[-0.3235807291666667],[1],[0],[0],[2.0807150000473484],"[""trial_sharp_right_box""]",0,18,18,24,1,campsite.jpg,cliff3.jpg,cave6.jpg,cemetery5.jpg,,
Image_List_5,,,,,,,,,,,,,,,,44033,2020-11-12_15h58.18.492,lingCatScenes,2020.1.3,MacIntel,60,"[1440,900]",,,"[""trial_ahead_box""]",,,,,,,,,,,,ballroom3.jpg,space,20.264965,[-0.010043402777777778],[-0.29917100694444443],[1],[0],[0],[19.994949999963865],"[""trial_ahead_box""]",0,19,19,14,1,ballroom1.jpg,breakroom5.jpg,bistrooutdoor5.jpg,botanicalGarden5.jpg,,
Image_List_5,,,,,,,,,,,,,,,,44033,2020-11-12_15h58.18.492,lingCatScenes,2020.1.3,MacIntel,60,"[1440,900]",,,"[""trial_ahead_box""]",,,,,,,,,,,,hayfield6.jpg,space,1.097605,[-0.012508680555555556],[-0.29832465277777775],[1],[0],[0],[0.9461050000973046],"[""trial_ahead_box""]",0,20,20,61,1,HorseRaceTrack.jpg,metroInside4.jpg,homegarden6.jpg,kindergarten_classroom7.jpg,,
Image_List_5,,,,,,,,,,,,,,,,44033,2020-11-12_15h58.18.492,lingCatScenes,2020.1.3,MacIntel,60,"[1440,900]",,,"[""trial_sharp_left_box""]",,,,,,,,,,,,bistrooutdoor6.jpg,space,1.797805,[-0.5928949652777777],[-0.3223871527777778],[1],[0],[0],[1.6454200000735],"[""trial_sharp_left_box""]",0,21,21,22,1,bowlingalley5.jpg,church6.jpg,cargo5.jpg,cemetery.jpg,,
Image_List_5,,,,,,,,,,,,,,,,44033,2020-11-12_15h58.18.492,lingCatScenes,2020.1.3,MacIntel,60,"[1440,900]",,,"[""trial_sharp_right_box""]",,,,,,,,,,,,sculpturegarden3.jpg,space,2.995285,[0.5872612847222223],[-0.3124826388888889],[1],[0],[0],[2.7608349999645725],"[""trial_sharp_right_box""]",0,22,22,89,1,ruralroad7.jpg,track5.jpg,ShowJumping7.jpg,staircase7.jpg,,
Image_List_5,,,,,,,,,,,,,,,,44033,2020-11-12_15h58.18.492,lingCatScenes,2020.1.3,MacIntel,60,"[1440,900]",,,[],,,,,,,,,,,,gasstation2.jpg,space,1.280845,[0.63359375],[-0.29790798611111113],[1],[0],[0],[1.0783599999267608],[],0,23,23,56,1,grocerystore5.jpg,hut3.jpg,golfcourse10.jpg,hut1.jpg,,
Image_List_5,,,,,,,,,,,,,,,,44033,2020-11-12_15h58.18.492,lingCatScenes,2020.1.3,MacIntel,60,"[1440,900]",,,"[""trial_sharp_right_box""]",,,,,,,,,,,,kindergarten_classroom.jpg,space,2.046435,[0.6110069444444445],[-0.30388454861111114],[1],[0],[0],[1.728289999999106],"[""trial_sharp_right_box""]",0,24,24,72,1,museum5.jpg,pharmacy4.jpg,musicStore1.jpg,museum4.jpg,,
Image_List_5,,,,,,,,,,,,,,,,44033,2020-11-12_15h58.18.492,lingCatScenes,2020.1.3,MacIntel,60,"[1440,900]",,,"[""trial_sharp_right_box""]",,,,,,,,,,,,bleachers6.jpg,space,2.11085,[0.6198480902777778],[-0.2902777777777778],[1],[0],[0],[1.8952399999834597],"[""trial_sharp_right_box""]",0,25,25,23,1,bus_shelter.jpg,church8.jpg,carmechanic4.jpeg,cemetery3.jpg,,
Image_List_5,,,,,,,,,,,,,,,,44033,2020-11-12_15h58.18.492,lingCatScenes,2020.1.3,MacIntel,60,"[1440,900]",,,"[""trial_sharp_right_box""]",,,,,,,,,,,,fountain.jpg,space,4.484085,[0.6198480902777778],[-0.2902777777777778],[1],[0],[0],[3.994940000004135],"[""trial_sharp_right_box""]",0,26,26,53,1,gazebo3.jpg,homeoffice.jpg,frontLawn3.jpg,homegarage3.jpg,,
Image_List_5,,,,,,,,,,,,,,,,44033,2020-11-12_15h58.18.492,lingCatScenes,2020.1.3,MacIntel,60,"[1440,900]",,,"[""trial_sharp_right_box""]",,,,,,,,,,,,jewelrystore.jpg,space,1.933,[0.5993012152777778],[-0.297734375],[1],[0],[0],[1.6781600000103936],"[""trial_sharp_right_box""]",0,27,27,71,1,metroInside2.jpg,pavilion5.jpg,metroInside3.jpg,museum3.jpg,,
Image_List_5,,,,,,,,,,,,,,,,44033,2020-11-12_15h58.18.492,lingCatScenes,2020.1.3,MacIntel,60,"[1440,900]",,,"[""trial_sharp_left_box""]",,,,,,,,,,,,basement6.jpg,space,1.796745,[-0.6139713541666667],[-0.317890625],[1],[0],[0],[1.6282749999081716],"[""trial_sharp_left_box""]",0,28,28,18,1,bleachers5.jpg,casino1.jpg,brewery4.jpg,castle2.jpg,,
Image_List_5,,,,,,,,,,,,,,,,44033,2020-11-12_15h58.18.492,lingCatScenes,2020.1.3,MacIntel,60,"[1440,900]",,,"[""trial_sharp_right_box""]",,,,,,,,,,,,checkoutcounter9.jpg,space,1.849245,[0.5769227430555556],[-0.3079513888888889],[1],[0],[0],[1.6615150000434369],"[""trial_sharp_right_box""]",0,29,29,36,1,diner14.jpg,dormroom9.jpg,dining_car3.jpg,doctor1.jpg,,
Image_List_5,,,,,,,,,,,,,,,,44033,2020-11-12_15h58.18.492,lingCatScenes,2020.1.3,MacIntel,60,"[1440,900]",,,"[""trial_ahead_box""]",,,,,,,,,,,,forestpath2.jpg,space,1.065305,[-0.0037022569444444446],[-0.31852430555555555],[1],[0],[0],[0.9124800000572577],"[""trial_ahead_box""]",0,30,30,52,1,gasstation7.jpg,hardwarestore1.jpg,frontFoyer6.jpg,highway.jpg,,
Image_List_5,,,,,,,,,,,,,,,,44033,2020-11-12_15h58.18.492,lingCatScenes,2020.1.3,MacIntel,60,"[1440,900]",,,"[""trial_sharp_left_box""]",,,,,,,,,,,,winebarrel2.jpg,space,1.33093,[-0.6045920138888888],[-0.3056987847222222],[1],[0],[0],[1.147105000098236],"[""trial_sharp_left_box""]",0,31,31,98,1,weightroom5.jpg,wineVineyard8.jpg,warehouse3.jpg,winebarrel4.jpg,,
Image_List_5,,,,,,,,,,,,,,,,44033,2020-11-12_15h58.18.492,lingCatScenes,2020.1.3,MacIntel,60,"[1440,900]",,,"[""trial_sharp_right_box""]",,,,,,,,,,,,cliff5.jpg,space,1.515715,[0.5878081597222222],[-0.2941493055555556],[1],[0],[0],[1.3283100000116974],"[""trial_sharp_right_box""]",0,32,32,39,1,driveway6.jpg,eyeglassstore9.jpg,drycleaners6.jpg,drymountains5.jpg,,
Image_List_5,,,,,,,,,,,,,,,,44033,2020-11-12_15h58.18.492,lingCatScenes,2020.1.3,MacIntel,60,"[1440,900]",,,"[""trial_sharp_left_box""]",,,,,,,,,,,,igloo.jpg,space,1.998045,"[-0.5744227430555555,-0.5856901041666667]","[-0.3003168402777778,-0.29932291666666666]","[1,1]","[0,0]","[0,0]","[1.3130749999545515,1.7637149998918176]","[""trial_sharp_left_box""]",0,33,33,70,1,lockerroom4.jpg,pavilion.jpg,lockerroom3.jpg,minigolf8.jpg,,
Image_List_5,,,,,,,,,,,,,,,,44033,2020-11-12_15h58.18.492,lingCatScenes,2020.1.3,MacIntel,60,"[1440,900]",,,"[""trial_sharp_left_box""]",,,,,,,,,,,,grocerystore3.jpg,space,1.73359,[-0.5921875],[-0.29391927083333336],[1],[0],[0],[1.4298699999926612],"[""trial_sharp_left_box""]",0,34,34,59,1,homegarden7.jpg,library_aisle8.jpg,highway4.jpg,kindergarten_classroom5.jpg,,
Image_List_5,,,,,,,,,,,,,,,,44033,2020-11-12_15h58.18.492,lingCatScenes,2020.1.3,MacIntel,60,"[1440,900]",,,"[""trial_ahead_box""]",,,,,,,,,,,,ATM4.jpg,space,1.180365,[-0.012799479166666667],[-0.31019097222222225],[1],[0],[0],[0.9786050000693649],"[""trial_ahead_box""]",0,35,35,10,1,backstage2.jpg,barbershop3.jpg,ballroom4.jpg,basketballcourt3.jpg,,
Image_List_5,,,,,,,,,,,,,,,,44033,2020-11-12_15h58.18.492,lingCatScenes,2020.1.3,MacIntel,60,"[1440,900]",,,"[""trial_sharp_left_box""]",,,,,,,,,,,,clothingstore3.jpg,space,1.42995,[-0.5976649305555556],[-0.29777777777777775],[1],[0],[0],[1.1783849999774247],"[""trial_sharp_left_box""]",0,36,36,40,1,drycleaners4.jpg,farm1.jpg,drymountains.jpg,dugout1.jpg,,
Image_List_5,,,,,,,,,,,,,,,,44033,2020-11-12_15h58.18.492,lingCatScenes,2020.1.3,MacIntel,60,"[1440,900]",,,"[""trial_ahead_box""]",,,,,,,,,,,,cabin4.jpg,space,1.593045,[-0.013971354166666667],[-0.3101345486111111],[1],[0],[0],[1.360564999980852],"[""trial_ahead_box""]",0,37,37,32,1,dancestudio6.jpg,diner12.jpg,constructionSite2.jpg,dentist4.jpg,,
Image_List_5,,,,,,,,,,,,,,,,44033,2020-11-12_15h58.18.492,lingCatScenes,2020.1.3,MacIntel,60,"[1440,900]",,,"[""trial_ahead_box""]",,,,,,,,,,,,trainStation3.jpg,space,1.198505,[-0.00888454861111111],[-0.3101345486111111],[1],[0],[0],[1.012955000041984],"[""trial_ahead_box""]",0,38,38,94,1,treehouse.jpg,waitingroom3.jpg,staircase6.jpg,weightroom.jpg,,
Image_List_5,,,,,,,,,,,,,,,,44033,2020-11-12_15h58.18.492,lingCatScenes,2020.1.3,MacIntel,60,"[1440,900]",,,"[""trial_sharp_left_box""]",,,,,,,,,,,,bridalboutique2.jpg,space,1.764005,[-0.5848697916666666],[-0.30648871527777777],[1],[0],[0],[1.5638499999186024],"[""trial_sharp_left_box""]",0,39,39,28,1,churchInside1.jpg,dancestudio5.jpg,citystreet10.jpg,clothingstore5.jpg,,
Image_List_5,,,,,,,,,,,,,,,,44033,2020-11-12_15h58.18.492,lingCatScenes,2020.1.3,MacIntel,60,"[1440,900]",,,"[""trial_ahead_box""]",,,,,,,,,,,,readingroom2.jpg,space,1.69371,"[0.042808159722222225,0.0076605902777777775]","[-0.29834201388888887,-0.2958072916666667]","[1,1]","[0,0]","[0,0]","[0.9105050000362098,1.4602350000059232]","[""trial_ahead_box""]",0,40,40,83,1,readingroom1.jpg,sculpturegarden1.jpg,promenadeDeck6.jpg,restaurant8.jpg,,
Image_List_5,,,,,,,,,,,,,,,,44033,2020-11-12_15h58.18.492,lingCatScenes,2020.1.3,MacIntel,60,"[1440,900]",,,"[""trial_ahead_box""]",,,,,,,,,,,,shoestore4.jpg,space,3.19626,[0.009839409722222222],[-0.30178385416666664],[1],[0],[0],[2.47777999995742],"[""trial_ahead_box""]",0,41,41,90,1,savanna5.jpg,trainStation1.jpg,sidewalk1.jpg,stripmall3.jpg,,
Image_List_5,,,,,,,,,,,,,,,,44033,2020-11-12_15h58.18.492,lingCatScenes,2020.1.3,MacIntel,60,"[1440,900]",,,"[""trial_sharp_right_box""]",,,,,,,,,,,,classroom1.jpg,space,1.79811,[0.5945963541666667],[-0.3112977430555556],[1],[0],[0],[1.629380000056699],"[""trial_sharp_right_box""]",0,42,42,38,1,dining_car2.jpg,elevatorOutside4.jpg,dock1.jpg,driveway8.jpg,,
Image_List_5,,,,,,,,,,,,,,,,44033,2020-11-12_15h58.18.492,lingCatScenes,2020.1.3,MacIntel,60,"[1440,900]",,,"[""trial_ahead_box""]",,,,,,,,,,,,warehouseoutside3.jpg,space,1.99839,[-0.0068706597222222224],[-0.3044748263888889],[1],[0],[0],[1.8279600000241771],"[""trial_ahead_box""]",0,43,43,97,1,warehouseoutside4.jpg,wineVineyard2.jpg,waitingroom4.jpg,winebarrel3.jpg,,
Image_List_5,,,,,,,,,,,,,,,,44033,2020-11-12_15h58.18.492,lingCatScenes,2020.1.3,MacIntel,60,"[1440,900]",,,"[""trial_ahead_box""]",,,,,,,,,,,,library_aisle9.jpg,space,0.863105,[-0.0068706597222222224],[-0.3044748263888889],[1],[0],[0],[0.6612899999599904],"[""trial_ahead_box""]",0,44,44,73,1,musicStore3.jpg,photographer_studio2.jpg,nursery.jpg,nursery4.jpg,,
Image_List_5,,,,,,,,,,,,,,,,44033,2020-11-12_15h58.18.492,lingCatScenes,2020.1.3,MacIntel,60,"[1440,900]",,,"[""trial_ahead_box""]",,,,,,,,,,,,rooftop4.jpg,space,1.11586,[-0.0068706597222222224],[-0.3044748263888889],[1],[0],[0],[0.929424999980256],"[""trial_ahead_box""]",0,45,45,86,1,restaurant14.jpg,stripmall.jpg,ruralroad3.jpg,sandDunes_desert_outdoor8.jpg,,
Image_List_5,,,,,,,,,,,,,,,,44033,2020-11-12_15h58.18.492,lingCatScenes,2020.1.3,MacIntel,60,"[1440,900]",,,"[""trial_ahead_box""]",,,,,,,,,,,,lookout4.jpg,space,0.898515,[-0.0068706597222222224],[-0.3044748263888889],[1],[0],[0],[0.6616199999116361],"[""trial_ahead_box""]",0,46,46,76,1,parkinggarage.jpg,playroom4.jpg,parkinggarage3.jpg,park2.jpg,,
Image_List_5,,,,,,,,,,,,,,,,44033,2020-11-12_15h58.18.492,lingCatScenes,2020.1.3,MacIntel,60,"[1440,900]",,,"[""trial_sharp_right_box""]",,,,,,,,,,,,warehouse1.jpg,space,1.68365,"[0.5738454861111111,0.5989887152777778]","[-0.28468315972222225,-0.30287760416666665]","[1,1]","[0,0]","[0,0]","[1.029454999952577,1.4958699999842793]","[""trial_sharp_right_box""]",0,47,47,96,1,warehouse4.jpg,warehouseoutside1.jpg,tenniscourt3.jpg,windmill1.jpg,,
Image_List_5,,,,,,,,,,,,,,,,44033,2020-11-12_15h58.18.492,lingCatScenes,2020.1.3,MacIntel,60,"[1440,900]",,,"[""trial_sharp_left_box""]",,,,,,,,,,,,hospitalroom3.jpg,space,1.61498,[-0.5752560763888889],[-0.3040407986111111],[1],[0],[0],[1.4125200000125915],"[""trial_sharp_left_box""]",0,48,48,68,1,liquorstore7.jpg,parkinglot.jpg,lightingstore4.jpg,lockerroom2.jpg,,
Image_List_5,,,,,,,,,,,,,,,,44033,2020-11-12_15h58.18.492,lingCatScenes,2020.1.3,MacIntel,60,"[1440,900]",,,"[""trial_sharp_left_box""]",,,,,,,,,,,,sandbox.jpg,space,1.778945,[-0.6079296875],[-0.31121961805555554],[1],[0],[0],[1.5635250000050291],"[""trial_sharp_left_box""]",0,49,49,88,1,rooftop1.jpg,track.jpg,sculpturegarden4.jpg,soccerfield.jpg,,
Image_List_5,,,,,,,,,,,,,,,,44033,2020-11-12_15h58.18.492,lingCatScenes,2020.1.3,MacIntel,60,"[1440,900]",,,"[""trial_ahead_box""]",,,,,,,,,,,,bar8.jpg,space,1.179625,[-0.005407986111111111],[-0.3132378472222222],[1],[0],[0],[0.9457350000739098],"[""trial_ahead_box""]",0,50,50,15,1,bambooforest4.jpg,cafeteria5.jpg,bleachers8.jpg,cabinIndoors.jpg,,
Image_List_5,,,,,,,,,,,,,,,,44033,2020-11-12_15h58.18.492,lingCatScenes,2020.1.3,MacIntel,60,"[1440,900]",,,"[""trial_ahead_box""]",,,,,,,,,,,,airportTerminal2.jpg,space,1.564815,[0.005555555555555556],[-0.3082421875],[1],[0],[0],[1.3796100000618026],"[""trial_ahead_box""]",0,51,51,1,1,airportTerminal4.jpg,apartmentBuilding1.jpg,applestore1.jpg,airportTerminal3.jpg,,
Image_List_5,,,,,,,,,,,,,,,,44033,2020-11-12_15h58.18.492,lingCatScenes,2020.1.3,MacIntel,60,"[1440,900]",,,"[""trial_ahead_box""]",,,,,,,,,,,,basketballcourt.jpg,space,0.94684,[0.005555555555555556],[-0.3082421875],[1],[0],[0],[0.7799149999627843],"[""trial_ahead_box""]",0,52,52,19,1,boardwalk2.jpg,casino3.jpg,cafeteria1.jpg,castle4.jpg,,
Image_List_5,,,,,,,,,,,,,,,,44033,2020-11-12_15h58.18.492,lingCatScenes,2020.1.3,MacIntel,60,"[1440,900]",,,"[""trial_sharp_left_box""]",,,,,,,,,,,,pasture8.jpg,space,1.997835,[-0.5938194444444445],[-0.29891493055555557],[1],[0],[0],[1.7460599999176338],"[""trial_sharp_left_box""]",0,53,53,81,1,promenadeDeck.jpg,ruralroad5.jpg,promenadeDeck2.jpg,rainforest5.jpg,,
Image_List_5,,,,,,,,,,,,,,,,44033,2020-11-12_15h58.18.492,lingCatScenes,2020.1.3,MacIntel,60,"[1440,900]",,,"[""trial_sharp_left_box""]",,,,,,,,,,,,beach1.jpeg,space,1.264145,[-0.5938194444444445],[-0.29891493055555557],[1],[0],[0],[1.0134199999738485],"[""trial_sharp_left_box""]",0,54,54,21,1,botanicalGarden6.jpg,cemetery6.jpg,campusquad3.jpg,cave5.jpg,,
Image_List_5,,,,,,,,,,,,,,,,44033,2020-11-12_15h58.18.492,lingCatScenes,2020.1.3,MacIntel,60,"[1440,900]",,,"[""trial_sharp_left_box""]",,,,,,,,,,,,bus_shelter3.jpg,space,1.331765,[-0.5940928819444444],[-0.29944010416666667],[1],[0],[0],[1.047400000039488],"[""trial_sharp_left_box""]",0,55,55,30,1,courthouse1.jpg,desertvegetation3.jpg,clothingstore2.jpg,copyroom2.jpg,,
Image_List_5,,,,,,,,,,,,,,,,44033,2020-11-12_15h58.18.492,lingCatScenes,2020.1.3,MacIntel,60,"[1440,900]",,,"[""trial_ahead_box""]",,,,,,,,,,,,grocerystore2.jpg,space,2.11402,"[-0.030416666666666668,0.0007508680555555555]","[-0.29387152777777775,-0.28638020833333333]","[1,1]","[0,0]","[0,0]","[1.2634649999672547,1.8458150000078604]","[""trial_ahead_box""]",0,56,56,58,1,highway7.jpg,lab1.jpg,hedgemaze1.jpg,igloo4.jpg,,
Image_List_5,,,,,,,,,,,,,,,,44033,2020-11-12_15h58.18.492,lingCatScenes,2020.1.3,MacIntel,60,"[1440,900]",,,"[""trial_sharp_left_box""]",,,,,,,,,,,,farm2.jpg,space,1.730345,[-0.5978515625],[-0.2997135416666667],[1],[0],[0],[1.444374999962747],"[""trial_sharp_left_box""]",0,57,57,49,1,frontDoor3.jpg,greenhouse5.jpg,flowershop3.jpg,greenhouse.jpg,,
Image_List_5,,,,,,,,,,,,,,,,44033,2020-11-12_15h58.18.492,lingCatScenes,2020.1.3,MacIntel,60,"[1440,900]",,,"[""trial_sharp_left_box""]",,,,,,,,,,,,fabricstore2.jpg,space,1.813675,"[-0.5622873263888889,-0.5850086805555555]","[-0.3049001736111111,-0.3049001736111111]","[1,1]","[0,0]","[0,0]","[1.1629100000718608,1.5627300000051036]","[""trial_sharp_left_box""]",0,58,58,48,1,frontDoor2.jpg,golfcourse6.jpg,fittingroom5.jpg,golfcourse7.jpg,,
Image_List_5,,,,,,,,,,,,,,,,44033,2020-11-12_15h58.18.492,lingCatScenes,2020.1.3,MacIntel,60,"[1440,900]",,,"[""trial_sharp_left_box""]",,,,,,,,,,,,arcade2.jpg,space,1.833285,"[-0.5738888888888889,-0.5825390625]","[-0.30914930555555553,-0.30914930555555553]","[1,1]","[0,0]","[0,0]","[1.2142499999608845,1.5802799999946728]","[""trial_sharp_left_box""]",0,59,59,9,1,auto_showroom3.jpg,bar2.jpg,ballroom2.jpg,basement5.jpg,,
Image_List_5,,,,,,,,,,,,,,,,44033,2020-11-12_15h58.18.492,lingCatScenes,2020.1.3,MacIntel,60,"[1440,900]",,,"[""trial_ahead_box""]",,,,,,,,,,,,apartmentBuilding3.jpg,space,1.36606,[-0.020434027777777777],[-0.28442274305555554],[1],[0],[0],[1.061489999992773],"[""trial_ahead_box""]",0,60,60,6,1,ATM1.jpg,banquetHall2.jpg,auto_showroom5.jpg,baggageClaim1.jpg,,
Image_List_5,,,,,,,,,,,,,,,,44033,2020-11-12_15h58.18.492,lingCatScenes,2020.1.3,MacIntel,60,"[1440,900]",,,"[""trial_ahead_box""]",,,,,,,,,,,,alley4.jpg,space,0.831685,[-0.019331597222222222],[-0.28521267361111113],[1],[0],[0],[0.5612299999920651],"[""trial_ahead_box""]",0,61,61,4,1,artStudio1.jpg,baggageClaim2.jpg,auto_showroom1.jpg,appleorchard3.jpg,,
Image_List_5,,,,,,,,,,,,,,,,44033,2020-11-12_15h58.18.492,lingCatScenes,2020.1.3,MacIntel,60,"[1440,900]",,,"[""trial_sharp_left_box""]",,,,,,,,,,,,fireplace4.jpg,space,1.649705,[-0.5750564236111111],[-0.30193142361111114],[1],[0],[0],[1.3478950000135228],"[""trial_sharp_left_box""]",0,62,62,50,1,frontLawn4.jpg,grocerystore6.jpg,forestpath6.jpg,hallway2.jpg,,
Image_List_5,,,,,,,,,,,,,,,,44033,2020-11-12_15h58.18.492,lingCatScenes,2020.1.3,MacIntel,60,"[1440,900]",,,"[""trial_ahead_box""]",,,,,,,,,,,,dentist2.jpg,space,1.64709,[0.00888454861111111],[-0.2878776041666667],[1],[0],[0],[1.4126200000755489],"[""trial_ahead_box""]",0,63,63,41,1,dugout4.jpg,farm3.jpg,drymountains3.jpg,fabricstore1.jpg,,
Image_List_5,,,,,,,,,,,,,,,,44033,2020-11-12_15h58.18.492,lingCatScenes,2020.1.3,MacIntel,60,"[1440,900]",,,"[""trial_ahead_box""]",,,,,,,,,,,,rooftop2.jpg,space,0.795945,[0.005542534722222222],[-0.28954427083333334],[1],[0],[0],[0.5627150000073016],"[""trial_ahead_box""]",0,64,64,84,1,readingroom5.jpg,sidewalk2.jpg,restaurant13.jpg,sandDunes_desert_outdoor.jpg,,
Image_List_5,,,,,,,,,,,,,,,,44033,2020-11-12_15h58.18.492,lingCatScenes,2020.1.3,MacIntel,60,"[1440,900]",,,"[""trial_ahead_box""]",,,,,,,,,,,,amusement3.jpg,space,0.92981,[0.004448784722222222],[-0.2898307291666667],[1],[0],[0],[0.6114550000056624],"[""trial_ahead_box""]",0,65,65,5,1,artStudio3.jpg,bambooforest.jpg,auto_showroom4.jpg,attic4.jpg,,
Image_List_5,,,,,,,,,,,,,,,,44033,2020-11-12_15h58.18.492,lingCatScenes,2020.1.3,MacIntel,60,"[1440,900]",,,"[""trial_ahead_box""]",,,,,,,,,,,,frontFoyer.jpg,space,0.963185,[0.0020052083333333332],[-0.2898307291666667],[1],[0],[0],[0.6113049999112263],"[""trial_ahead_box""]",0,66,66,54,1,greenhouse2.jpg,horsebarn11.jpg,gazebo2.jpg,homegarage4.jpg,,
Image_List_5,,,,,,,,,,,,,,,,44033,2020-11-12_15h58.18.492,lingCatScenes,2020.1.3,MacIntel,60,"[1440,900]",,,"[""trial_ahead_box"",""trial_sharp_left_box""]",,,,,,,,,,,,botanicalGarden4.jpg,space,1.912985,"[-0.0006901041666666667,-0.5936935763888889]","[-0.2909982638888889,-0.27862413194444446]","[1,1]","[0,0]","[0,0]","[0.6288349999813363,1.6956149999750778]","[""trial_ahead_box"",""trial_sharp_left_box""]",0,67,67,25,1,campsite7.jpg,conference3.jpg,church3.jpg,checkoutcounter2.jpg,,
Image_List_5,,,,,,,,,,,,,,,,44033,2020-11-12_15h58.18.492,lingCatScenes,2020.1.3,MacIntel,60,"[1440,900]",,,"[""trial_ahead_box""]",,,,,,,,,,,,RVinside2.jpg,space,1.148355,[-0.005946180555555555],[-0.3014409722222222],[1],[0],[0],[0.9120750000001863],"[""trial_ahead_box""]",0,68,68,87,1,restaurantkitchen2.jpg,theater2.jpg,savanna.jpg,sculpturegarden2.jpg,,
Image_List_5,,,,,,,,,,,,,,,,44033,2020-11-12_15h58.18.492,lingCatScenes,2020.1.3,MacIntel,60,"[1440,900]",,,"[""trial_sharp_left_box""]",,,,,,,,,,,,lockerroom.jpg,space,1.51564,[-0.5882595486111111],[-0.30313368055555556],[1],[0],[0],[1.2460699999937788],"[""trial_sharp_left_box""]",0,69,69,75,1,pantry5.jpg,playground6.jpg,operatingroom4.jpg,park.jpg,,
Image_List_5,,,,,,,,,,,,,,,,44033,2020-11-12_15h58.18.492,lingCatScenes,2020.1.3,MacIntel,60,"[1440,900]",,,"[""trial_sharp_left_box""]",,,,,,,,,,,,mallindoor6.jpg,space,1.182735,[-0.6044227430555555],[-0.2777690972222222],[1],[0],[0],[0.9458800000138581],"[""trial_sharp_left_box""]",0,70,70,77,1,parkinggarage2.jpg,playroom6.jpg,pasture9.jpg,park8.jpg,,
Image_List_5,,,,,,,,,,,,,,,,44033,2020-11-12_15h58.18.492,lingCatScenes,2020.1.3,MacIntel,60,"[1440,900]",,,"[""trial_ahead_box""]",,,,,,,,,,,,highway2.jpg,space,1.364,[0.0012803819444444444],[-0.2910546875],[1],[0],[0],[1.095924999914132],"[""trial_ahead_box""]",0,71,71,63,1,hut2.jpg,museum6.jpg,hotelRoom2.jpg,lab4.jpg,,
Image_List_5,,,,,,,,,,,,,,,,44033,2020-11-12_15h58.18.492,lingCatScenes,2020.1.3,MacIntel,60,"[1440,900]",,,"[""trial_ahead_box""]",,,,,,,,,,,,bridalboutique3.jpg,space,0.93066,[0.0012803819444444444],[-0.2910546875],[1],[0],[0],[0.7288249999983236],"[""trial_ahead_box""]",0,72,72,29,1,cornfield2.jpg,deck2.jpg,cliff2.jpg,constructionSite4.jpg,,
Image_List_5,,,,,,,,,,,,,,,,44033,2020-11-12_15h58.18.492,lingCatScenes,2020.1.3,MacIntel,60,"[1440,900]",,,"[""trial_sharp_left_box""]",,,,,,,,,,,,applestore2.jpg,space,2.04863,"[-0.5613151041666666,-0.5945616319444444]","[-0.30984375,-0.304453125]","[1,1]","[0,0]","[0,0]","[1.3625999999931082,1.8289750000694767]","[""trial_sharp_left_box""]",0,73,73,7,1,attic2.jpg,banquetHall4.jpg,backstage1.jpg,baggageClaim3.jpg,,
Image_List_5,,,,,,,,,,,,,,,,44033,2020-11-12_15h58.18.492,lingCatScenes,2020.1.3,MacIntel,60,"[1440,900]",,,"[""trial_ahead_box""]",,,,,,,,,,,,dock2.jpg,space,1.11412,[0.006597222222222222],[-0.3002734375],[1],[0],[0],[0.9961000001057982],"[""trial_ahead_box""]",0,74,74,44,1,firestation2.jpg,frontFoyer4.jpg,elevatorOutside1.jpg,foodcourt6.jpg,,
Image_List_5,,,,,,,,,,,,,,,,44033,2020-11-12_15h58.18.492,lingCatScenes,2020.1.3,MacIntel,60,"[1440,900]",,,"[""trial_ahead_box""]",,,,,,,,,,,,brewery2.jpg,space,0.914775,[0.006597222222222222],[-0.3002734375],[1],[0],[0],[0.7956750000594184],"[""trial_ahead_box""]",0,75,75,27,1,castle3.jpg,courtroom3.jpg,churchInside4.jpg,closet.jpg,,
Image_List_5,,,,,,,,,,,,,,,,44033,2020-11-12_15h58.18.492,lingCatScenes,2020.1.3,MacIntel,60,"[1440,900]",,,"[""trial_ahead_box""]",,,,,,,,,,,,rooftop3.jpg,space,0.83165,[0.006597222222222222],[-0.3002734375],[1],[0],[0],[0.7134999999543652],"[""trial_ahead_box""]",0,76,76,85,1,recordingstudio4.jpg,sidewalk5.jpg,ruralroad2.jpg,sandDunes_desert_outdoor3.jpg,,
Image_List_5,,,,,,,,,,,,,,,,44033,2020-11-12_15h58.18.492,lingCatScenes,2020.1.3,MacIntel,60,"[1440,900]",,,"[""trial_ahead_box""]",,,,,,,,,,,,yogastudio1.jpg,space,0.913245,[0.006597222222222222],[-0.3002734375],[1],[0],[0],[0.7618350000120699],"[""trial_ahead_box""]",0,77,77,99,1,wineVineyard9.jpg,yogastudio4.jpg,windmill2.jpg,wrestlingring7.jpg,,
Image_List_5,,,,,,,,,,,,,,,,44033,2020-11-12_15h58.18.492,lingCatScenes,2020.1.3,MacIntel,60,"[1440,900]",,,"[""trial_ahead_box""]",,,,,,,,,,,,airportTerminal6.jpg,space,0.713335,[0.006597222222222222],[-0.3002734375],[1],[0],[0],[0.5611900000367314],"[""trial_ahead_box""]",0,78,78,2,1,alley1.jpg,arcade1.jpg,applestore6.jpg,apartmentBuilding4.jpg,,
Image_List_5,,,,,,,,,,,,,,,,44033,2020-11-12_15h58.18.492,lingCatScenes,2020.1.3,MacIntel,60,"[1440,900]",,,"[""trial_ahead_box""]",,,,,,,,,,,,postoffice4.jpg,space,0.863815,[0.006597222222222222],[-0.3002734375],[1],[0],[0],[0.6961799999698997],"[""trial_ahead_box""]",0,79,79,82,1,publicrestroom2.jpg,sandDunes_desert_outdoor9.jpg,promenadeDeck3.jpg,readingroom4.jpg,,
Image_List_5,,,,,,,,,,,,,,,,44033,2020-11-12_15h58.18.492,lingCatScenes,2020.1.3,MacIntel,60,"[1440,900]",,,"[""trial_ahead_box""]",,,,,,,,,,,,frontLawn2.jpg,space,0.84863,[0.006597222222222222],[-0.3002734375],[1],[0],[0],[0.628910000086762],"[""trial_ahead_box""]",0,80,80,55,1,greenmountains.jpg,hotelRoom3.jpg,gazebo5.jpg,hotelRoom7.jpg,,
Image_List_5,,,,,,,,,,,,,,,,44033,2020-11-12_15h58.18.492,lingCatScenes,2020.1.3,MacIntel,60,"[1440,900]",,,"[""trial_ahead_box""]",,,,,,,,,,,,basketballcourt7.jpg,space,0.76358,[0.006597222222222222],[-0.3002734375],[1],[0],[0],[0.5964849999872968],"[""trial_ahead_box""]",0,81,81,20,1,boardwalk6.jpg,cave.jpg,campsite3.jpg,cave4.jpg,,
Image_List_5,,,,,,,,,,,,,,,,44033,2020-11-12_15h58.18.492,lingCatScenes,2020.1.3,MacIntel,60,"[1440,900]",,,"[""trial_sharp_left_box""]",,,,,,,,,,,,elevatorOutside2.jpg,space,2.14622,[-0.5826909722222222],[-0.2756163194444444],[1],[0],[0],[1.9622049999888986],"[""trial_sharp_left_box""]",0,82,82,47,1,frontDoor.jpg,gasstation8.jpg,firestation4.jpg,fountain7.jpg,,
Image_List_5,,,,,,,,,,,,,,,,44033,2020-11-12_15h58.18.492,lingCatScenes,2020.1.3,MacIntel,60,"[1440,900]",,,"[""trial_ahead_box""]",,,,,,,,,,,,horsebarn9.jpg,space,1.432015,[-0.0074609375],[-0.2960199652777778],[1],[0],[0],[0.9451750000007451],"[""trial_ahead_box""]",0,83,83,66,1,library_aisle10.jpg,office3.jpg,laundromat3.jpg,liquorstore.jpg,,
Image_List_5,,,,,,,,,,,,,,,,44033,2020-11-12_15h58.18.492,lingCatScenes,2020.1.3,MacIntel,60,"[1440,900]",,,"[""trial_sharp_left_box""]",,,,,,,,,,,,desertvegetation2.jpg,space,1.564635,[-0.5894053819444445],[-0.30395399305555554],[1],[0],[0],[1.3797799999592826],"[""trial_sharp_left_box""]",0,84,84,42,1,exerciseequipment3.jpg,firestation3.jpg,drymountains6.jpg,farm4.jpg,,
Image_List_5,,,,,,,,,,,,,,,,44033,2020-11-12_15h58.18.492,lingCatScenes,2020.1.3,MacIntel,60,"[1440,900]",,,[],,,,,,,,,,,,cabin3.jpg,space,1.011555,[0.02767795138888889],[-0.3155295138888889],[1],[0],[0],[0.8127949999179691],[],0,85,85,31,1,cubicle4.jpg,desertvegetation6.jpg,conference4.jpg,courtroom2.jpg,,
Image_List_5,,,,,,,,,,,,,,,,44033,2020-11-12_15h58.18.492,lingCatScenes,2020.1.3,MacIntel,60,"[1440,900]",,,"[""trial_sharp_left_box""]",,,,,,,,,,,,diningroom3.jpg,space,1.54713,[-0.6199522569444444],[-0.30939670138888886],[1],[0],[0],[1.36270999989938],"[""trial_sharp_left_box""]",0,86,86,43,1,exerciseequipment5.jpg,forestpath10.jpg,dugout2.jpg,foodcourt.jpg,,
Image_List_5,,,,,,,,,,,,,,,,44033,2020-11-12_15h58.18.492,lingCatScenes,2020.1.3,MacIntel,60,"[1440,900]",,,"[""trial_ahead_box""]",,,,,,,,,,,,botanicalGarden7.jpg,space,1.679975,[0.014275173611111112],[-0.3096050347222222],[1],[0],[0],[1.3955999999307096],"[""trial_ahead_box""]",0,87,87,26,1,campusquad2.jpg,cornfield4.jpg,church4.jpg,churchInside3.jpg,,
Image_List_5,,,,,,,,,,,,,,,,44033,2020-11-12_15h58.18.492,lingCatScenes,2020.1.3,MacIntel,60,"[1440,900]",,,"[""trial_sharp_right_box""]",,,,,,,,,,,,parkinggarage4.jpg,space,44.13142,[0.6193359375],[-0.3050130208333333],[1],[0],[0],[43.427610000013374],"[""trial_sharp_right_box""]",0,88,88,80,1,pavilion2.jpg,racecarcourse2.jpg,porch.jpg,poolhall5.jpg,,
Image_List_5,,,,,,,,,,,,,,,,44033,2020-11-12_15h58.18.492,lingCatScenes,2020.1.3,MacIntel,60,"[1440,900]",,,"[""trial_ahead_box""]",,,,,,,,,,,,homeoffice8.jpg,space,1.76487,[-0.007725694444444445],[-0.3005425347222222],[1],[0],[0],[1.562400000053458],"[""trial_ahead_box""]",0,89,89,65,1,igloo5.jpg,newsstand7.jpg,laundromat2.jpeg,labClass7.jpg,,
Image_List_5,,,,,,,,,,,,,,,,44033,2020-11-12_15h58.18.492,lingCatScenes,2020.1.3,MacIntel,60,"[1440,900]",,,"[""trial_ahead_box""]",,,,,,,,,,,,alley3.jpg,space,0.84883,[-0.007725694444444445],[-0.3005425347222222],[1],[0],[0],[0.612569999997504],"[""trial_ahead_box""]",0,90,90,3,1,apartmentBuilding2.jpg,attic1.jpg,aquarium1.jpg,appleorchard2.jpg,,
Image_List_5,,,,,,,,,,,,,,,,44033,2020-11-12_15h58.18.492,lingCatScenes,2020.1.3,MacIntel,60,"[1440,900]",,,"[""trial_ahead_box""]",,,,,,,,,,,,carmechanic2.jpg,space,0.76424,[-0.007725694444444445],[-0.3005425347222222],[1],[0],[0],[0.5789850000292063],"[""trial_ahead_box""]",0,91,91,35,1,deck5.jpg,dock3.jpg,cubicle7.jpg,dining_car6.jpg,,
Image_List_5,,,,,,,,,,,,,,,,44033,2020-11-12_15h58.18.492,lingCatScenes,2020.1.3,MacIntel,60,"[1440,900]",,,"[""trial_sharp_left_box""]",,,,,,,,,,,,dock4.jpg,space,2.548765,[-0.6203515625],[-0.28663194444444445],[1],[0],[0],[2.279465000028722],"[""trial_sharp_left_box""]",0,92,92,45,1,fittingroom2.jpg,frontFoyer7.jpg,factory1.jpg,forestpath4.jpg,,
Image_List_5,,,,,,,,,,,,,,,,44033,2020-11-12_15h58.18.492,lingCatScenes,2020.1.3,MacIntel,60,"[1440,900]",,,"[""trial_ahead_box""]",,,,,,,,,,,,gazebo.jpg,space,1.51778,[-0.00125],[-0.2963107638888889],[1],[0],[0],[1.2123650000430644],"[""trial_ahead_box""]",0,93,93,57,1,hayfield5.jpg,jail1.jpg,hallway4.jpg,hut5.jpg,,
Image_List_5,,,,,,,,,,,,,,,,44033,2020-11-12_15h58.18.492,lingCatScenes,2020.1.3,MacIntel,60,"[1440,900]",,,"[""trial_ahead_box""]",,,,,,,,,,,,sidewalk3.jpg,space,0.814585,[-0.00125],[-0.2963107638888889],[1],[0],[0],[0.595145000028424],"[""trial_ahead_box""]",0,94,94,91,1,shoestore2.jpg,trainStation5.jpg,skatepark5.jpg,ticket_counter6.jpg,,
Image_List_5,,,,,,,,,,,,,,,,44033,2020-11-12_15h58.18.492,lingCatScenes,2020.1.3,MacIntel,60,"[1440,900]",,,"[""trial_ahead_box""]",,,,,,,,,,,,backyard5.jpg,space,0.78019,[-0.00125],[-0.2963107638888889],[1],[0],[0],[0.5629600000102073],"[""trial_ahead_box""]",0,95,95,12,1,baggageClaim4.jpg,bedroom6.jpg,bambooforest5.jpg,bleachers7.jpg,,
Image_List_5,,,,,,,,,,,,,,,,44033,2020-11-12_15h58.18.492,lingCatScenes,2020.1.3,MacIntel,60,"[1440,900]",,,"[""trial_ahead_box""]",,,,,,,,,,,,observatory1.jpg,space,0.74663,[-0.00125],[-0.2963107638888889],[1],[0],[0],[0.5617999999085441],"[""trial_ahead_box""]",0,96,96,78,1,parkinglot3.jpg,poolhall1.jpg,pier5.jpg,pavilion3.jpg,,
Image_List_5,,,,,,,,,,,,,,,,44033,2020-11-12_15h58.18.492,lingCatScenes,2020.1.3,MacIntel,60,"[1440,900]",,,"[""trial_ahead_box""]",,,,,,,,,,,,citystreet9.jpg,space,0.714615,[-0.00125],[-0.2963107638888889],[1],[0],[0],[0.5124599999981001],"[""trial_ahead_box""]",0,97,97,37,1,dining_car.jpg,driveway4.jpg,dinosaur4.jpg,driveway7.jpg,,
Image_List_5,,,,,,,,,,,,,,,,44033,2020-11-12_15h58.18.492,lingCatScenes,2020.1.3,MacIntel,60,"[1440,900]",,,"[""trial_sharp_right_box""]",,,,,,,,,,,,applestore4.jpg,space,1.98198,[0.5988541666666667],[-0.28121961805555556],[1],[0],[0],[1.6962550000753254],"[""trial_sharp_right_box""]",0,98,98,8,1,attic3.jpg,banquetHall6.jpg,balconyIN.jpg,bar.jpg,,
Image_List_5,,,,,,,,,,,,,,,,44033,2020-11-12_15h58.18.492,lingCatScenes,2020.1.3,MacIntel,60,"[1440,900]",,,"[""trial_ahead_box""]",,,,,,,,,,,,barbershop2.jpg,space,1.59775,[0.022196180555555556],[-0.28948350694444447],[1],[0],[0],[1.3275800000410527],"[""trial_ahead_box""]",0,99,99,16,1,basement.jpg,cafeteria6.jpg,breakroom2.jpg,campusquad4.jpg,,
Image_List_5,,,,,,,,,,,,,,,,44033,2020-11-12_15h58.18.492,lingCatScenes,2020.1.3,MacIntel,60,,,,,,,,,,,,,,,,,,,,,,,,,,,,,,,,,,,space,21.966795
