image_list,key_resp_intructions.keys,key_resp_intructions.rt,key_resp_intructions_3.keys,key_resp_intructions_3.rt,PracticeComplete_2.keys,PracticeComplete_2.rt,PracticeComplete_3.keys,PracticeComplete_3.rt,demo_trials.thisRepN,demo_trials.thisTrialN,demo_trials.thisN,demo_trials.thisIndex,demo_trials.ran,demo_images,path_images,participant,date,expName,psychopyVersion,OS,frameRate,windowSize,practice_complete.keys,practice_complete.rt,boxes_checked,PracticeComplete.keys,PracticeComplete.rt,practice_trials.thisRepN,practice_trials.thisTrialN,practice_trials.thisN,practice_trials.thisIndex,practice_trials.ran,practice_images,feedback_images,key_resp_intructions_2.keys,key_resp_intructions_2.rt,Image_List_5,trial_complete.keys,trial_complete.rt,trial_mouse.x,trial_mouse.y,trial_mouse.leftButton,trial_mouse.midButton,trial_mouse.rightButton,trial_mouse.time,trial_mouse.clicked_name,trials.thisRepN,trials.thisTrialN,trials.thisN,trials.thisIndex,trials.ran,Image_List_1,Image_List_2,Image_List_3,Image_List_4,key_resp.keys,key_resp.rt
Image_List_5,space,27.025645,space,2.611135,space,5.75984,space,1.655475,0,0,0,5,1,right.jpg,right_path.jpg,44076,2020-11-20_14h27.56.761,lingCatScenes,2020.1.3,MacIntel,60,,,,,,,,,,,,,,,,,,,,,,,,,,,,,,,,,,,,
Image_List_5,,,,,space,1.803125,space,1.190775,0,1,1,0,1,ahead.jpg,ahead_path.jpg,44076,2020-11-20_14h27.56.761,lingCatScenes,2020.1.3,MacIntel,60,,,,,,,,,,,,,,,,,,,,,,,,,,,,,,,,,,,,
Image_List_5,,,,,space,1.44212,space,1.37966,0,2,2,6,1,right_left.jpg,right_left_path.jpg,44076,2020-11-20_14h27.56.761,lingCatScenes,2020.1.3,MacIntel,60,,,,,,,,,,,,,,,,,,,,,,,,,,,,,,,,,,,,
Image_List_5,,,,,space,1.252095,space,1.26672,0,3,3,4,1,left.jpg,left_path.jpg,44076,2020-11-20_14h27.56.761,lingCatScenes,2020.1.3,MacIntel,60,,,,,,,,,,,,,,,,,,,,,,,,,,,,,,,,,,,,
Image_List_5,,,,,space,1.565275,space,0.80077,0,4,4,2,1,ahead_right.jpg,ahead_right_path.jpg,44076,2020-11-20_14h27.56.761,lingCatScenes,2020.1.3,MacIntel,60,,,,,,,,,,,,,,,,,,,,,,,,,,,,,,,,,,,,
Image_List_5,,,,,space,0.63948,space,0.38306,0,5,5,3,1,ahead_right_left.jpg,ahead_right_left_path.jpg,44076,2020-11-20_14h27.56.761,lingCatScenes,2020.1.3,MacIntel,60,,,,,,,,,,,,,,,,,,,,,,,,,,,,,,,,,,,,
Image_List_5,,,,,space,0.471645,space,0.42829,0,6,6,1,1,ahead_left.jpg,ahead_left_path.jpg,44076,2020-11-20_14h27.56.761,lingCatScenes,2020.1.3,MacIntel,60,,,,,,,,,,,,,,,,,,,,,,,,,,,,,,,,,,,,
Image_List_5,,,,,,,,,,,,,,,,44076,2020-11-20_14h27.56.761,lingCatScenes,2020.1.3,MacIntel,60,"[1440,900]",space,3.98035,"[""ahead_box""]",space,0.901255,0,0,0,0,1,ahead_2.jpg,ahead_2_path.jpg,,,,,,,,,,,,,,,,,,,,,,,
Image_List_5,,,,,,,,,,,,,,,,44076,2020-11-20_14h27.56.761,lingCatScenes,2020.1.3,MacIntel,60,"[1440,900]",space,2.568245,"[""slight_right_box""]",space,1.14144,0,1,1,5,1,right_2.jpg,right_2_path.jpg,,,,,,,,,,,,,,,,,,,,,,,
Image_List_5,,,,,,,,,,,,,,,,44076,2020-11-20_14h27.56.761,lingCatScenes,2020.1.3,MacIntel,60,"[1440,900]",space,2.881285,"[""sharp_left_box""]",space,0.86584,0,2,2,4,1,left_2.jpg,left_2_path.jpg,,,,,,,,,,,,,,,,,,,,,,,
Image_List_5,,,,,,,,,,,,,,,,44076,2020-11-20_14h27.56.761,lingCatScenes,2020.1.3,MacIntel,60,"[1440,900]",space,4.43382,"[""slight_left_box"",""slight_right_box""]",space,3.76058,0,3,3,3,1,ahead_right_left_2.jpg,ahead_right_left_2_path.jpg,,,,,,,,,,,,,,,,,,,,,,,
Image_List_5,,,,,,,,,,,,,,,,44076,2020-11-20_14h27.56.761,lingCatScenes,2020.1.3,MacIntel,60,"[1440,900]",space,4.669685,"[""ahead_box"",""right_box""]",space,1.142085,0,4,4,2,1,ahead_right_2.jpg,ahead_right_2_path.jpg,,,,,,,,,,,,,,,,,,,,,,,
Image_List_5,,,,,,,,,,,,,,,,44076,2020-11-20_14h27.56.761,lingCatScenes,2020.1.3,MacIntel,60,"[1440,900]",space,3.757745,"[""ahead_box"",""left_box""]",space,0.81234,0,5,5,1,1,ahead_left_2.jpg,ahead_left_2_path.jpg,,,,,,,,,,,,,,,,,,,,,,,
Image_List_5,,,,,,,,,,,,,,,,44076,2020-11-20_14h27.56.761,lingCatScenes,2020.1.3,MacIntel,60,"[1440,900]",space,3.02095,"[""slight_left_box"",""slight_right_box""]",space,1.64224,0,6,6,6,1,right_left_2.jpg,right_left_2_path.jpg,,,,,,,,,,,,,,,,,,,,,,,
Image_List_5,,,,,,,,,,,,,,,,44076,2020-11-20_14h27.56.761,lingCatScenes,2020.1.3,MacIntel,60,"[1440,900]",,,"[""trial_slight_right_box""]",,,,,,,,,,space,4.18021,highway2.jpg,space,4.24899,[0.1993185763888889],[-0.30852864583333334],[1],[0],[0],[4.013370000000577],"[""trial_slight_right_box""]",0,0,0,63,1,hut2.jpg,museum6.jpg,hotelRoom2.jpg,lab4.jpg,,
Image_List_5,,,,,,,,,,,,,,,,44076,2020-11-20_14h27.56.761,lingCatScenes,2020.1.3,MacIntel,60,"[1440,900]",,,"[""trial_slight_right_box"",""trial_ahead_box""]",,,,,,,,,,,,cabinIndoors5.jpg,space,4.79481,"[0.18416666666666667,0.0030078125]","[-0.31581163194444445,-0.29823784722222224]","[1,1]","[0,0]","[0,0]","[3.359539999975823,4.508474999980535]","[""trial_slight_right_box"",""trial_ahead_box""]",0,1,1,33,1,deck1.jpg,diningroom1.jpg,courthouse2.jpg,diner10.jpg,,
Image_List_5,,,,,,,,,,,,,,,,44076,2020-11-20_14h27.56.761,lingCatScenes,2020.1.3,MacIntel,60,"[1440,900]",,,"[""trial_ahead_box"",""trial_right_box""]",,,,,,,,,,,,applestore2.jpg,space,6.660055,"[-0.01818576388888889,0.21809461805555555,0.36475694444444445,0.3980251736111111,0.18686197916666666]","[-0.3033984375,-0.3102734375,-0.3002473958333333,-0.3028559027777778,-0.2851519097222222]","[1,1,1,1,1]","[0,0,0,0,0]","[0,0,0,0,0]","[1.9098550000053365,2.9762899999914225,4.927644999988843,5.392950000008568,5.97682499999064]","[""trial_ahead_box"",""trial_slight_right_box"",""trial_right_box"",""trial_slight_right_box""]",0,2,2,7,1,attic2.jpg,banquetHall4.jpg,backstage1.jpg,baggageClaim3.jpg,,
Image_List_5,,,,,,,,,,,,,,,,44076,2020-11-20_14h27.56.761,lingCatScenes,2020.1.3,MacIntel,60,"[1440,900]",,,"[""trial_ahead_box"",""trial_slight_right_box"",""trial_slight_left_box""]",,,,,,,,,,,,readingroom2.jpg,space,4.242755,"[0.015546875,0.20756944444444445,-0.19810763888888888]","[-0.2948871527777778,-0.30803819444444447,-0.3019791666666667]","[1,1,1]","[0,0,0]","[0,0,0]","[1.2433899999887217,3.2102799999993294,4.009874999988824]","[""trial_ahead_box"",""trial_slight_right_box"",""trial_slight_left_box""]",0,3,3,83,1,readingroom1.jpg,sculpturegarden1.jpg,promenadeDeck6.jpg,restaurant8.jpg,,
Image_List_5,,,,,,,,,,,,,,,,44076,2020-11-20_14h27.56.761,lingCatScenes,2020.1.3,MacIntel,60,"[1440,900]",,,"[""trial_left_box""]",,,,,,,,,,,,farm2.jpg,space,5.513415,"[-0.3836588541666667,-0.022886284722222223]","[-0.29508246527777776,-0.32555989583333333]","[1,1]","[0,0]","[0,0]","[3.7117900000012014,5.261555000004591]","[""trial_left_box""]",0,4,4,49,1,frontDoor3.jpg,greenhouse5.jpg,flowershop3.jpg,greenhouse.jpg,,
Image_List_5,,,,,,,,,,,,,,,,44076,2020-11-20_14h27.56.761,lingCatScenes,2020.1.3,MacIntel,60,"[1440,900]",,,"[""trial_ahead_box""]",,,,,,,,,,,,citystreet9.jpg,space,1.74986,[0.006935763888888889],[-0.2986111111111111],[1],[0],[0],[1.2274800000013784],"[""trial_ahead_box""]",0,5,5,37,1,dining_car.jpg,driveway4.jpg,dinosaur4.jpg,driveway7.jpg,,
Image_List_5,,,,,,,,,,,,,,,,44076,2020-11-20_14h27.56.761,lingCatScenes,2020.1.3,MacIntel,60,"[1440,900]",,,"[""trial_sharp_right_box""]",,,,,,,,,,,,dock2.jpg,space,2.47422,[0.6173480902777778],[-0.2928776041666667],[1],[0],[0],[1.7598899999866262],"[""trial_sharp_right_box""]",0,6,6,44,1,firestation2.jpg,frontFoyer4.jpg,elevatorOutside1.jpg,foodcourt6.jpg,,
Image_List_5,,,,,,,,,,,,,,,,44076,2020-11-20_14h27.56.761,lingCatScenes,2020.1.3,MacIntel,60,"[1440,900]",,,"[""trial_ahead_box"",""trial_slight_right_box""]",,,,,,,,,,,,desertvegetation2.jpg,space,2.64397,"[-0.009848090277777779,0.20391059027777778]","[-0.29563368055555556,-0.3079079861111111]","[1,1]","[0,0]","[0,0]","[1.62821000002441,2.360405000013998]","[""trial_ahead_box"",""trial_slight_right_box""]",0,7,7,42,1,exerciseequipment3.jpg,firestation3.jpg,drymountains6.jpg,farm4.jpg,,
Image_List_5,,,,,,,,,,,,,,,,44076,2020-11-20_14h27.56.761,lingCatScenes,2020.1.3,MacIntel,60,"[1440,900]",,,"[""trial_sharp_right_box"",""trial_slight_left_box""]",,,,,,,,,,,,parkinggarage4.jpg,space,4.471045,"[0.5829513888888889,-0.172734375,-0.20437934027777777]","[-0.30246961805555556,-0.32168836805555556,-0.2974392361111111]","[1,1,1]","[0,0,0]","[0,0,0]","[1.7955150000052527,3.509970000013709,4.092770000017481]","[""trial_sharp_right_box"",""trial_slight_left_box""]",0,8,8,80,1,pavilion2.jpg,racecarcourse2.jpg,porch.jpg,poolhall5.jpg,,
Image_List_5,,,,,,,,,,,,,,,,44076,2020-11-20_14h27.56.761,lingCatScenes,2020.1.3,MacIntel,60,"[1440,900]",,,"[""trial_ahead_box""]",,,,,,,,,,,,bus_shelter3.jpg,space,2.276605,[-0.010060763888888888],[-0.3118489583333333],[1],[0],[0],[1.3270750000083353],"[""trial_ahead_box""]",0,9,9,30,1,courthouse1.jpg,desertvegetation3.jpg,clothingstore2.jpg,copyroom2.jpg,,
Image_List_5,,,,,,,,,,,,,,,,44076,2020-11-20_14h27.56.761,lingCatScenes,2020.1.3,MacIntel,60,"[1440,900]",,,"[""trial_slight_right_box""]",,,,,,,,,,,,observatory2.jpg,space,2.12555,[0.18067274305555556],[-0.3197612847222222],[1],[0],[0],[1.527765000006184],"[""trial_slight_right_box""]",0,10,10,79,1,pasture.jpg,poolhall2.jpeg,playground9.jpg,pier2.jpg,,
Image_List_5,,,,,,,,,,,,,,,,44076,2020-11-20_14h27.56.761,lingCatScenes,2020.1.3,MacIntel,60,"[1440,900]",,,"[""trial_ahead_box""]",,,,,,,,,,,,backyard6.jpg,space,1.69919,[0.005086805555555555],[-0.2940451388888889],[1],[0],[0],[1.3139549999905284],"[""trial_ahead_box""]",0,11,11,13,1,balconyIN2.jpg,bowlingalley3.jpg,beach2.jpg,boardwalk4.jpg,,
Image_List_5,,,,,,,,,,,,,,,,44076,2020-11-20_14h27.56.761,lingCatScenes,2020.1.3,MacIntel,60,"[1440,900]",,,"[""trial_ahead_box"",""trial_left_box""]",,,,,,,,,,,,backyard1.jpg,space,2.776195,"[0.0010807291666666667,-0.40234375]","[-0.2953862847222222,-0.31026475694444444]","[1,1]","[0,0]","[0,0]","[1.475605000014184,2.4935199999890756]","[""trial_ahead_box"",""trial_left_box""]",0,12,12,11,1,backyard2.jpg,basketballcourt4.jpg,bambooforest3.jpg,baywindow5.jpg,,
Image_List_5,,,,,,,,,,,,,,,,44076,2020-11-20_14h27.56.761,lingCatScenes,2020.1.3,MacIntel,60,"[1440,900]",,,"[""trial_slight_left_box""]",,,,,,,,,,,,cabin4.jpg,space,2.39104,[-0.21667100694444444],[-0.31136284722222224],[1],[0],[0],[1.3282749999780208],"[""trial_slight_left_box""]",0,13,13,32,1,dancestudio6.jpg,diner12.jpg,constructionSite2.jpg,dentist4.jpg,,
Image_List_5,,,,,,,,,,,,,,,,44076,2020-11-20_14h27.56.761,lingCatScenes,2020.1.3,MacIntel,60,"[1440,900]",,,"[""trial_right_box""]",,,,,,,,,,,,cliff5.jpg,space,2.325635,[0.3897699652777778],[-0.31168836805555555],[1],[0],[0],[1.442845000012312],"[""trial_right_box""]",0,14,14,39,1,driveway6.jpg,eyeglassstore9.jpg,drycleaners6.jpg,drymountains5.jpg,,
Image_List_5,,,,,,,,,,,,,,,,44076,2020-11-20_14h27.56.761,lingCatScenes,2020.1.3,MacIntel,60,"[1440,900]",,,"[""trial_ahead_box"",""trial_right_box""]",,,,,,,,,,,,lightingstore2.jpg,space,2.39136,"[0.019210069444444443,0.4064626736111111]","[-0.2944791666666667,-0.30212239583333333]","[1,1]","[0,0]","[0,0]","[1.295270000002347,2.111304999998538]","[""trial_ahead_box"",""trial_right_box""]",0,15,15,74,1,newsstand2.jpg,playground10.jpg,observatory4.jpeg,operatingroom1.jpg,,
Image_List_5,,,,,,,,,,,,,,,,44076,2020-11-20_14h27.56.761,lingCatScenes,2020.1.3,MacIntel,60,"[1440,900]",,,"[""trial_ahead_box""]",,,,,,,,,,,,rooftop2.jpg,space,2.033685,"[0.04262152777777778,0.009574652777777777]","[-0.29022569444444446,-0.2878298611111111]","[1,1]","[0,0]","[0,0]","[1.2626500000187661,1.6788050000031944]","[""trial_ahead_box""]",0,16,16,84,1,readingroom5.jpg,sidewalk2.jpg,restaurant13.jpg,sandDunes_desert_outdoor.jpg,,
Image_List_5,,,,,,,,,,,,,,,,44076,2020-11-20_14h27.56.761,lingCatScenes,2020.1.3,MacIntel,60,"[1440,900]",,,"[""trial_ahead_box"",""trial_slight_right_box""]",,,,,,,,,,,,RVinside2.jpg,space,3.94353,"[0.19336805555555556,0.0073741319444444444,0.22090711805555555]","[-0.3254079861111111,-0.3162847222222222,-0.3121484375]","[1,1,1]","[0,0,0]","[0,0,0]","[1.8107049999816809,2.6111349999846425,3.6276799999759533]","[""trial_ahead_box"",""trial_slight_right_box""]",0,17,17,87,1,restaurantkitchen2.jpg,theater2.jpg,savanna.jpg,sculpturegarden2.jpg,,
Image_List_5,,,,,,,,,,,,,,,,44076,2020-11-20_14h27.56.761,lingCatScenes,2020.1.3,MacIntel,60,"[1440,900]",,,"[""trial_right_box""]",,,,,,,,,,,,airplanecabin3.jpg,space,2.972825,[0.40725260416666664],[-0.2894921875],[1],[0],[0],[2.209405000001425],"[""trial_right_box""]",0,18,18,0,1,airplanecabin1.jpg,alley2.jpg,appleorchard4.jpg,airplanecabin5.jpg,,
Image_List_5,,,,,,,,,,,,,,,,44076,2020-11-20_14h27.56.761,lingCatScenes,2020.1.3,MacIntel,60,"[1440,900]",,,"[""trial_ahead_box""]",,,,,,,,,,,,airportTerminal6.jpg,space,1.63999,[0.008159722222222223],[-0.2802560763888889],[1],[0],[0],[1.2912599999981467],"[""trial_ahead_box""]",0,19,19,2,1,alley1.jpg,arcade1.jpg,applestore6.jpg,apartmentBuilding4.jpg,,
Image_List_5,,,,,,,,,,,,,,,,44076,2020-11-20_14h27.56.761,lingCatScenes,2020.1.3,MacIntel,60,"[1440,900]",,,"[""trial_slight_right_box""]",,,,,,,,,,,,bridalboutique3.jpg,space,2.44968,[0.19684895833333332],[-0.2985199652777778],[1],[0],[0],[1.8618399999977555],"[""trial_slight_right_box""]",0,20,20,29,1,cornfield2.jpg,deck2.jpg,cliff2.jpg,constructionSite4.jpg,,
Image_List_5,,,,,,,,,,,,,,,,44076,2020-11-20_14h27.56.761,lingCatScenes,2020.1.3,MacIntel,60,"[1440,900]",,,"[""trial_slight_left_box"",""trial_ahead_box"",""trial_slight_right_box""]",,,,,,,,,,,,bleachers6.jpg,space,5.0277,"[-0.2076736111111111,-0.003841145833333333,0.19739583333333333]","[-0.2880078125,-0.3226041666666667,-0.3108029513888889]","[1,1,1]","[0,0,0]","[0,0,0]","[2.3775000000023283,3.49359500000719,4.743974999990314]","[""trial_slight_left_box"",""trial_ahead_box"",""trial_slight_right_box""]",0,21,21,23,1,bus_shelter.jpg,church8.jpg,carmechanic4.jpeg,cemetery3.jpg,,
Image_List_5,,,,,,,,,,,,,,,,44076,2020-11-20_14h27.56.761,lingCatScenes,2020.1.3,MacIntel,60,"[1440,900]",,,"[""trial_slight_right_box"",""trial_ahead_box""]",,,,,,,,,,,,botanicalGarden4.jpg,space,3.408485,"[0.026041666666666668,0.0038107638888888887,0.21639756944444444,-0.0060416666666666665]","[-0.2808072916666667,-0.27484375,-0.31411024305555557,-0.3065277777777778]","[1,1,1,1]","[0,0,0,0]","[0,0,0,0]","[1.2098650000116322,1.7772950000071432,2.5935650000174064,3.17616000000271]","[""trial_slight_right_box"",""trial_ahead_box""]",0,22,22,25,1,campsite7.jpg,conference3.jpg,church3.jpg,checkoutcounter2.jpg,,
Image_List_5,,,,,,,,,,,,,,,,44076,2020-11-20_14h27.56.761,lingCatScenes,2020.1.3,MacIntel,60,"[1440,900]",,,"[""trial_ahead_box""]",,,,,,,,,,,,basketballcourt.jpg,space,1.277705,[-0.0060416666666666665],[-0.3065277777777778],[1],[0],[0],[0.9451300000073388],"[""trial_ahead_box""]",0,23,23,19,1,boardwalk2.jpg,casino3.jpg,cafeteria1.jpg,castle4.jpg,,
Image_List_5,,,,,,,,,,,,,,,,44076,2020-11-20_14h27.56.761,lingCatScenes,2020.1.3,MacIntel,60,"[1440,900]",,,"[""trial_ahead_box""]",,,,,,,,,,,,observatory1.jpg,space,1.323895,[0.009071180555555556],[-0.3052951388888889],[1],[0],[0],[1.0582450000219978],"[""trial_ahead_box""]",0,24,24,78,1,parkinglot3.jpg,poolhall1.jpg,pier5.jpg,pavilion3.jpg,,
Image_List_5,,,,,,,,,,,,,,,,44076,2020-11-20_14h27.56.761,lingCatScenes,2020.1.3,MacIntel,60,"[1440,900]",,,"[""trial_right_box"",""trial_ahead_box""]",,,,,,,,,,,,amusement3.jpg,space,4.077595,"[0.6169748263888889,0.41021267361111113,-0.0020963541666666665]","[-0.33043402777777775,-0.2957769097222222,-0.2948177083333333]","[1,1,1]","[0,0,0]","[0,0,0]","[2.0276899999880698,2.945404999976745,3.8113799999991897]","[""trial_right_box"",""trial_ahead_box""]",0,25,25,5,1,artStudio3.jpg,bambooforest.jpg,auto_showroom4.jpg,attic4.jpg,,
Image_List_5,,,,,,,,,,,,,,,,44076,2020-11-20_14h27.56.761,lingCatScenes,2020.1.3,MacIntel,60,"[1440,900]",,,"[""trial_ahead_box"",""trial_slight_right_box""]",,,,,,,,,,,,gasstation2.jpg,space,7.310195,"[0.4222048611111111,0.02939670138888889,0.009756944444444445,0.1802734375,0.3912934027777778]","[-0.3037326388888889,-0.27869357638888886,-0.29355902777777776,-0.29299913194444444,-0.29434027777777777]","[1,1,1,1,1]","[0,0,0,0,0]","[0,0,0,0,0]","[3.460480000008829,5.277165000006789,5.7436499999894295,6.443924999999581,7.078314999991562]","[""trial_right_box"",""trial_ahead_box"",""trial_slight_right_box"",""trial_right_box""]",0,26,26,56,1,grocerystore5.jpg,hut3.jpg,golfcourse10.jpg,hut1.jpg,,
Image_List_5,,,,,,,,,,,,,,,,44076,2020-11-20_14h27.56.761,lingCatScenes,2020.1.3,MacIntel,60,"[1440,900]",,,"[""trial_sharp_right_box""]",,,,,,,,,,,,beach1.jpeg,space,1.89484,[0.6197829861111112],[-0.32125],[1],[0],[0],[1.611574999988079],"[""trial_sharp_right_box""]",0,27,27,21,1,botanicalGarden6.jpg,cemetery6.jpg,campusquad3.jpg,cave5.jpg,,
Image_List_5,,,,,,,,,,,,,,,,44076,2020-11-20_14h27.56.761,lingCatScenes,2020.1.3,MacIntel,60,"[1440,900]",,,"[""trial_slight_right_box""]",,,,,,,,,,,,ATM4.jpg,space,2.27881,[0.2231857638888889],[-0.3016189236111111],[1],[0],[0],[1.9948150000127498],"[""trial_slight_right_box""]",0,28,28,10,1,backstage2.jpg,barbershop3.jpg,ballroom4.jpg,basketballcourt3.jpg,,
Image_List_5,,,,,,,,,,,,,,,,44076,2020-11-20_14h27.56.761,lingCatScenes,2020.1.3,MacIntel,60,"[1440,900]",,,"[""trial_sharp_left_box""]",,,,,,,,,,,,winebarrel2.jpg,space,3.62881,[-0.5836197916666667],[-0.2985112847222222],[1],[0],[0],[3.2945049999980256],"[""trial_sharp_left_box""]",0,29,29,98,1,weightroom5.jpg,wineVineyard8.jpg,warehouse3.jpg,winebarrel4.jpg,,
Image_List_5,,,,,,,,,,,,,,,,44076,2020-11-20_14h27.56.761,lingCatScenes,2020.1.3,MacIntel,60,"[1440,900]",,,"[""trial_slight_left_box""]",,,,,,,,,,,,sculpturegarden3.jpg,space,3.695165,[-0.2046875],[-0.3075954861111111],[1],[0],[0],[2.610725000005914],"[""trial_slight_left_box""]",0,30,30,89,1,ruralroad7.jpg,track5.jpg,ShowJumping7.jpg,staircase7.jpg,,
Image_List_5,,,,,,,,,,,,,,,,44076,2020-11-20_14h27.56.761,lingCatScenes,2020.1.3,MacIntel,60,"[1440,900]",,,"[""trial_sharp_left_box""]",,,,,,,,,,,,pasture8.jpg,space,2.124785,[-0.5876736111111112],[-0.30485677083333335],[1],[0],[0],[1.8596299999917392],"[""trial_sharp_left_box""]",0,31,31,81,1,promenadeDeck.jpg,ruralroad5.jpg,promenadeDeck2.jpg,rainforest5.jpg,,
Image_List_5,,,,,,,,,,,,,,,,44076,2020-11-20_14h27.56.761,lingCatScenes,2020.1.3,MacIntel,60,"[1440,900]",,,"[""trial_left_box""]",,,,,,,,,,,,homegarage2.jpg,space,1.709325,[-0.3794357638888889],[-0.31149305555555556],[1],[0],[0],[1.462805000017397],"[""trial_left_box""]",0,32,32,64,1,igloo2.jpg,newsstand5.jpg,jewelrystore8.jpg,lab5.jpg,,
Image_List_5,,,,,,,,,,,,,,,,44076,2020-11-20_14h27.56.761,lingCatScenes,2020.1.3,MacIntel,60,"[1440,900]",,,"[""trial_slight_left_box""]",,,,,,,,,,,,forestpath2.jpg,space,1.626585,[-0.20618489583333333],[-0.30909722222222225],[1],[0],[0],[1.4275350000243634],"[""trial_slight_left_box""]",0,33,33,52,1,gasstation7.jpg,hardwarestore1.jpg,frontFoyer6.jpg,highway.jpg,,
Image_List_5,,,,,,,,,,,,,,,,44076,2020-11-20_14h27.56.761,lingCatScenes,2020.1.3,MacIntel,60,"[1440,900]",,,"[""trial_sharp_left_box""]",,,,,,,,,,,,elevatorOutside2.jpg,space,4.476285,[-0.6062369791666666],[-0.2892621527777778],[1],[0],[0],[3.294114999996964],"[""trial_sharp_left_box""]",0,34,34,47,1,frontDoor.jpg,gasstation8.jpg,firestation4.jpg,fountain7.jpg,,
Image_List_5,,,,,,,,,,,,,,,,44076,2020-11-20_14h27.56.761,lingCatScenes,2020.1.3,MacIntel,60,"[1440,900]",,,"[""trial_right_box""]",,,,,,,,,,,,arcade2.jpg,space,1.649995,[0.3993185763888889],[-0.2951953125],[1],[0],[0],[1.29448000001139],"[""trial_right_box""]",0,35,35,9,1,auto_showroom3.jpg,bar2.jpg,ballroom2.jpg,basement5.jpg,,
Image_List_5,,,,,,,,,,,,,,,,44076,2020-11-20_14h27.56.761,lingCatScenes,2020.1.3,MacIntel,60,"[1440,900]",,,"[""trial_slight_right_box""]",,,,,,,,,,,,warehouse1.jpg,space,1.808495,[0.21302951388888888],[-0.30876302083333335],[1],[0],[0],[1.5765250000113156],"[""trial_slight_right_box""]",0,36,36,96,1,warehouse4.jpg,warehouseoutside1.jpg,tenniscourt3.jpg,windmill1.jpg,,
Image_List_5,,,,,,,,,,,,,,,,44076,2020-11-20_14h27.56.761,lingCatScenes,2020.1.3,MacIntel,60,"[1440,900]",,,"[""trial_ahead_box""]",,,,,,,,,,,,sidewalk3.jpg,space,2.278795,[-0.00048177083333333335],[-0.2956640625],[1],[0],[0],[2.078830000013113],"[""trial_ahead_box""]",0,37,37,91,1,shoestore2.jpg,trainStation5.jpg,skatepark5.jpg,ticket_counter6.jpg,,
Image_List_5,,,,,,,,,,,,,,,,44076,2020-11-20_14h27.56.761,lingCatScenes,2020.1.3,MacIntel,60,"[1440,900]",,,"[""trial_ahead_box""]",,,,,,,,,,,,rooftop3.jpg,space,1.144685,[0.0017534722222222222],[-0.30719618055555553],[1],[0],[0],[0.9425150000024587],"[""trial_ahead_box""]",0,38,38,85,1,recordingstudio4.jpg,sidewalk5.jpg,ruralroad2.jpg,sandDunes_desert_outdoor3.jpg,,
Image_List_5,,,,,,,,,,,,,,,,44076,2020-11-20_14h27.56.761,lingCatScenes,2020.1.3,MacIntel,60,"[1440,900]",,,"[""trial_ahead_box""]",,,,,,,,,,,,yogastudio1.jpg,space,0.8959,[0.009635416666666667],[-0.30463541666666666],[1],[0],[0],[0.6948549999797251],"[""trial_ahead_box""]",0,39,39,99,1,wineVineyard9.jpg,yogastudio4.jpg,windmill2.jpg,wrestlingring7.jpg,,
Image_List_5,,,,,,,,,,,,,,,,44076,2020-11-20_14h27.56.761,lingCatScenes,2020.1.3,MacIntel,60,"[1440,900]",,,"[""trial_ahead_box"",""trial_slight_left_box""]",,,,,,,,,,,,fountain.jpg,space,70.93314,"[0.003376736111111111,-0.1939626736111111]","[-0.30463541666666666,-0.30225260416666666]","[1,1]","[0,0]","[0,0]","[69.17782499999157,69.96254999999655]","[""trial_ahead_box"",""trial_slight_left_box""]",0,40,40,53,1,gazebo3.jpg,homeoffice.jpg,frontLawn3.jpg,homegarage3.jpg,,
Image_List_5,,,,,,,,,,,,,,,,44076,2020-11-20_14h27.56.761,lingCatScenes,2020.1.3,MacIntel,60,"[1440,900]",,,"[""trial_slight_right_box""]",,,,,,,,,,,,mallindoor6.jpg,space,1.74887,[0.21586805555555555],[-0.29302517361111113],[1],[0],[0],[1.3787000000011176],"[""trial_slight_right_box""]",0,41,41,77,1,parkinggarage2.jpg,playroom6.jpg,pasture9.jpg,park8.jpg,,
Image_List_5,,,,,,,,,,,,,,,,44076,2020-11-20_14h27.56.761,lingCatScenes,2020.1.3,MacIntel,60,"[1440,900]",,,"[""trial_slight_left_box""]",,,,,,,,,,,,backyard5.jpg,space,1.78091,[-0.19076822916666666],[-0.2988324652777778],[1],[0],[0],[1.3766799999866635],"[""trial_slight_left_box""]",0,42,42,12,1,baggageClaim4.jpg,bedroom6.jpg,bambooforest5.jpg,bleachers7.jpg,,
Image_List_5,,,,,,,,,,,,,,,,44076,2020-11-20_14h27.56.761,lingCatScenes,2020.1.3,MacIntel,60,"[1440,900]",,,"[""trial_sharp_right_box""]",,,,,,,,,,,,checkoutcounter9.jpg,space,2.72524,"[0.5580685763888888,0.5965928819444445]","[-0.3004730902777778,-0.30292100694444446]","[1,1]","[0,0]","[0,0]","[1.9942250000021886,2.4762599999958184]","[""trial_sharp_right_box""]",0,43,43,36,1,diner14.jpg,dormroom9.jpg,dining_car3.jpg,doctor1.jpg,,
Image_List_5,,,,,,,,,,,,,,,,44076,2020-11-20_14h27.56.761,lingCatScenes,2020.1.3,MacIntel,60,"[1440,900]",,,"[""trial_right_box"",""trial_left_box""]",,,,,,,,,,,,fabricstore2.jpg,space,4.80703,"[0.4093793402777778,-0.2198263888888889,-0.36786024305555554,-0.41713975694444444,-0.3933203125,-0.19924913194444444]","[-0.3021961805555556,-0.2965581597222222,-0.2941536458333333,-0.2747222222222222,-0.2887717013888889,-0.2871484375]","[1,1,1,1,1,1]","[0,0,0,0,0,0]","[0,0,0,0,0,0]","[1.190054999984568,1.9568699999945238,2.6403249999857508,3.2730099999753293,3.923654999991413,4.539984999981243]","[""trial_right_box"",""trial_slight_left_box"",""trial_left_box"",""trial_slight_left_box""]",0,44,44,48,1,frontDoor2.jpg,golfcourse6.jpg,fittingroom5.jpg,golfcourse7.jpg,,
Image_List_5,,,,,,,,,,,,,,,,44076,2020-11-20_14h27.56.761,lingCatScenes,2020.1.3,MacIntel,60,"[1440,900]",,,"[""trial_slight_right_box""]",,,,,,,,,,,,bridalboutique2.jpg,space,2.2296,"[0.02851128472222222,0.17929253472222223]","[-0.30322482638888887,-0.28909288194444444]","[1,1]","[0,0]","[0,0]","[1.045270000002347,1.8950849999964703]","[""trial_slight_right_box""]",0,45,45,28,1,churchInside1.jpg,dancestudio5.jpg,citystreet10.jpg,clothingstore5.jpg,,
Image_List_5,,,,,,,,,,,,,,,,44076,2020-11-20_14h27.56.761,lingCatScenes,2020.1.3,MacIntel,60,"[1440,900]",,,"[""trial_left_box""]",,,,,,,,,,,,cabin3.jpg,space,2.36458,"[-0.43745225694444445,-0.41338975694444446]","[-0.3148958333333333,-0.3148958333333333]","[1,1]","[0,0]","[0,0]","[1.6448600000003353,2.0617050000000745]","[""trial_left_box""]",0,46,46,31,1,cubicle4.jpg,desertvegetation6.jpg,conference4.jpg,courtroom2.jpg,,
Image_List_5,,,,,,,,,,,,,,,,44076,2020-11-20_14h27.56.761,lingCatScenes,2020.1.3,MacIntel,60,"[1440,900]",,,"[""trial_ahead_box""]",,,,,,,,,,,,postoffice4.jpg,space,10.58452,[0.008185763888888888],[-0.30310763888888886],[1],[0],[0],[10.078255000000354],"[""trial_ahead_box""]",0,47,47,82,1,publicrestroom2.jpg,sandDunes_desert_outdoor9.jpg,promenadeDeck3.jpg,readingroom4.jpg,,
Image_List_5,,,,,,,,,,,,,,,,44076,2020-11-20_14h27.56.761,lingCatScenes,2020.1.3,MacIntel,60,"[1440,900]",,,"[""trial_left_box""]",,,,,,,,,,,,basement6.jpg,space,3.180285,[-0.39195746527777775],[-0.3145920138888889],[1],[0],[0],[2.8953399999882095],"[""trial_left_box""]",0,48,48,18,1,bleachers5.jpg,casino1.jpg,brewery4.jpg,castle2.jpg,,
Image_List_5,,,,,,,,,,,,,,,,44076,2020-11-20_14h27.56.761,lingCatScenes,2020.1.3,MacIntel,60,"[1440,900]",,,"[""trial_right_box"",""trial_sharp_right_box""]",,,,,,,,,,,,hayfield6.jpg,space,4.41238,"[0.40790364583333333,0.6054123263888889]","[-0.3015321180555556,-0.29997395833333335]","[1,1]","[0,0]","[0,0]","[1.5277099999948405,4.17725999999675]","[""trial_right_box"",""trial_sharp_right_box""]",0,49,49,61,1,HorseRaceTrack.jpg,metroInside4.jpg,homegarden6.jpg,kindergarten_classroom7.jpg,,
Image_List_5,,,,,,,,,,,,,,,,44076,2020-11-20_14h27.56.761,lingCatScenes,2020.1.3,MacIntel,60,"[1440,900]",,,"[""trial_right_box""]",,,,,,,,,,,,kindergarten_classroom.jpg,space,4.098975,[0.41854166666666665],[-0.3117144097222222],[1],[0],[0],[3.8116449999797624],"[""trial_right_box""]",0,50,50,72,1,museum5.jpg,pharmacy4.jpg,musicStore1.jpg,museum4.jpg,,
Image_List_5,,,,,,,,,,,,,,,,44076,2020-11-20_14h27.56.761,lingCatScenes,2020.1.3,MacIntel,60,"[1440,900]",,,"[""trial_sharp_right_box""]",,,,,,,,,,,,boardwalk.jpg,space,1.802805,[0.6015104166666667],[-0.32124131944444445],[1],[0],[0],[1.5951650000060908],"[""trial_sharp_right_box""]",0,51,51,24,1,campsite.jpg,cliff3.jpg,cave6.jpg,cemetery5.jpg,,
Image_List_5,,,,,,,,,,,,,,,,44076,2020-11-20_14h27.56.761,lingCatScenes,2020.1.3,MacIntel,60,"[1440,900]",,,"[""trial_sharp_right_box""]",,,,,,,,,,,,icecream2.jpg,space,1.325835,[0.6040190972222222],[-0.32059895833333335],[1],[0],[0],[1.11059500000556],"[""trial_sharp_right_box""]",0,52,52,69,1,liquorstore8.jpg,parkinglot2.jpg,livingroom.jpg,metroInside1.jpg,,
Image_List_5,,,,,,,,,,,,,,,,44076,2020-11-20_14h27.56.761,lingCatScenes,2020.1.3,MacIntel,60,"[1440,900]",,,"[""trial_ahead_box""]",,,,,,,,,,,,apartmentBuilding3.jpg,space,1.508415,[0.007296006944444444],[-0.28380642361111114],[1],[0],[0],[1.2782150000275578],"[""trial_ahead_box""]",0,53,53,6,1,ATM1.jpg,banquetHall2.jpg,auto_showroom5.jpg,baggageClaim1.jpg,,
Image_List_5,,,,,,,,,,,,,,,,44076,2020-11-20_14h27.56.761,lingCatScenes,2020.1.3,MacIntel,60,"[1440,900]",,,"[""trial_slight_right_box""]",,,,,,,,,,,,jewelrystore.jpg,space,1.662255,[0.19880208333333332],[-0.30183159722222225],[1],[0],[0],[1.4139949999807868],"[""trial_slight_right_box""]",0,54,54,71,1,metroInside2.jpg,pavilion5.jpg,metroInside3.jpg,museum3.jpg,,
Image_List_5,,,,,,,,,,,,,,,,44076,2020-11-20_14h27.56.761,lingCatScenes,2020.1.3,MacIntel,60,"[1440,900]",,,"[""trial_slight_right_box""]",,,,,,,,,,,,hospitalroom3.jpg,space,3.111195,[0.18486111111111111],[-0.30194444444444446],[1],[0],[0],[2.9105299999937415],"[""trial_slight_right_box""]",0,55,55,68,1,liquorstore7.jpg,parkinglot.jpg,lightingstore4.jpg,lockerroom2.jpg,,
Image_List_5,,,,,,,,,,,,,,,,44076,2020-11-20_14h27.56.761,lingCatScenes,2020.1.3,MacIntel,60,"[1440,900]",,,"[""trial_slight_left_box"",""trial_left_box"",""trial_slight_right_box"",""trial_right_box""]",,,,,,,,,,,,baseball6.jpg,space,5.05076,"[-0.20018229166666668,-0.4182769097222222,0.19692708333333334,0.43438368055555554,0.41653211805555557]","[-0.3030685763888889,-0.3122439236111111,-0.29911024305555556,-0.29479600694444447,-0.29479600694444447]","[1,1,1,1,1]","[0,0,0,0,0]","[0,0,0,0,0]","[1.9123299999919254,3.1444699999992736,3.828364999993937,4.444315000000643,4.810929999977816]","[""trial_slight_left_box"",""trial_left_box"",""trial_slight_right_box"",""trial_right_box""]",0,56,56,17,1,bikerack1.jpg,campsite6.jpg,breakroom4.jpg,carmechanic.jpg,,
Image_List_5,,,,,,,,,,,,,,,,44076,2020-11-20_14h27.56.761,lingCatScenes,2020.1.3,MacIntel,60,"[1440,900]",,,"[""trial_slight_right_box""]",,,,,,,,,,,,brewery2.jpg,space,1.74262,[0.2068359375],[-0.3083984375],[1],[0],[0],[1.4765849999967031],"[""trial_slight_right_box""]",0,57,57,27,1,castle3.jpg,courtroom3.jpg,churchInside4.jpg,closet.jpg,,
Image_List_5,,,,,,,,,,,,,,,,44076,2020-11-20_14h27.56.761,lingCatScenes,2020.1.3,MacIntel,60,"[1440,900]",,,"[""trial_slight_right_box""]",,,,,,,,,,,,trainStation3.jpg,space,1.67487,[0.1923263888888889],[-0.3062282986111111],[1],[0],[0],[1.2265499999921303],"[""trial_slight_right_box""]",0,58,58,94,1,treehouse.jpg,waitingroom3.jpg,staircase6.jpg,weightroom.jpg,,
Image_List_5,,,,,,,,,,,,,,,,44076,2020-11-20_14h27.56.761,lingCatScenes,2020.1.3,MacIntel,60,"[1440,900]",,,"[""trial_slight_right_box""]",,,,,,,,,,,,airportTerminal2.jpg,space,5.8671,"[0.012165798611111112,-0.021545138888888888,0.18264756944444444]","[-0.2892795138888889,-0.30170572916666666,-0.3084765625]","[1,1,1]","[0,0,0]","[0,0,0]","[3.893530000001192,5.043625000020256,5.627630000002682]","[""trial_ahead_box"",""trial_ahead_box"",""trial_slight_right_box""]",0,59,59,1,1,airportTerminal4.jpg,apartmentBuilding1.jpg,applestore1.jpg,airportTerminal3.jpg,,
Image_List_5,,,,,,,,,,,,,,,,44076,2020-11-20_14h27.56.761,lingCatScenes,2020.1.3,MacIntel,60,"[1440,900]",,,"[""trial_ahead_box""]",,,,,,,,,,,,gazebo.jpg,space,5.54571,"[-0.18067708333333332,-0.007999131944444444,0.1827170138888889,0.18125868055555555,-0.20446614583333333]","[-0.3138020833333333,-0.3087282986111111,-0.30919270833333334,-0.2961154513888889,-0.30649739583333335]","[1,1,1,1,1]","[0,0,0,0,0]","[0,0,0,0,0]","[1.9264249999832828,2.876459999999497,3.4943249999778345,4.4613249999820255,5.045010000001639]","[""trial_slight_left_box"",""trial_ahead_box"",""trial_slight_right_box"",""trial_slight_right_box"",""trial_slight_left_box""]",0,60,60,57,1,hayfield5.jpg,jail1.jpg,hallway4.jpg,hut5.jpg,,
Image_List_5,,,,,,,,,,,,,,,,44076,2020-11-20_14h27.56.761,lingCatScenes,2020.1.3,MacIntel,60,"[1440,900]",,,"[""trial_ahead_box""]",,,,,,,,,,,,sandbox.jpg,space,3.946755,[-0.002109375],[-0.3156423611111111],[1],[0],[0],[2.2291649999970105],"[""trial_ahead_box""]",0,61,61,88,1,rooftop1.jpg,track.jpg,sculpturegarden4.jpg,soccerfield.jpg,,
Image_List_5,,,,,,,,,,,,,,,,44076,2020-11-20_14h27.56.761,lingCatScenes,2020.1.3,MacIntel,60,"[1440,900]",,,"[""trial_right_box""]",,,,,,,,,,,,botanicalGarden7.jpg,space,2.29907,[0.39326822916666665],[-0.3104470486111111],[1],[0],[0],[1.6122150000010151],"[""trial_right_box""]",0,62,62,26,1,campusquad2.jpg,cornfield4.jpg,church4.jpg,churchInside3.jpg,,
Image_List_5,,,,,,,,,,,,,,,,44076,2020-11-20_14h27.56.761,lingCatScenes,2020.1.3,MacIntel,60,"[1440,900]",,,"[""trial_ahead_box""]",,,,,,,,,,,,library_aisle9.jpg,space,1.227765,[-0.016089409722222222],[-0.3087717013888889],[1],[0],[0],[0.9759749999793712],"[""trial_ahead_box""]",0,63,63,73,1,musicStore3.jpg,photographer_studio2.jpg,nursery.jpg,nursery4.jpg,,
Image_List_5,,,,,,,,,,,,,,,,44076,2020-11-20_14h27.56.761,lingCatScenes,2020.1.3,MacIntel,60,"[1440,900]",,,"[""trial_slight_left_box""]",,,,,,,,,,,,frontLawn2.jpg,space,3.299015,"[-0.24208333333333334,-0.19457465277777777]","[-0.29540798611111113,-0.2963368055555556]","[1,1]","[0,0]","[0,0]","[1.8771349999879021,2.278474999999162]","[""trial_slight_left_box""]",0,64,64,55,1,greenmountains.jpg,hotelRoom3.jpg,gazebo5.jpg,hotelRoom7.jpg,,
Image_List_5,,,,,,,,,,,,,,,,44076,2020-11-20_14h27.56.761,lingCatScenes,2020.1.3,MacIntel,60,"[1440,900]",,,"[""trial_ahead_box""]",,,,,,,,,,,,hayfield7.jpg,space,1.883645,[0.0028993055555555556],[-0.28791232638888886],[1],[0],[0],[1.644655000010971],"[""trial_ahead_box""]",0,65,65,62,1,hotellobby2.jpg,minigolf.jpg,horsebarn8.jpg,lab3.jpg,,
Image_List_5,,,,,,,,,,,,,,,,44076,2020-11-20_14h27.56.761,lingCatScenes,2020.1.3,MacIntel,60,"[1440,900]",,,"[""trial_slight_left_box""]",,,,,,,,,,,,lockerroom.jpg,space,2.912255,[-0.21144097222222222],[-0.2983897569444444],[1],[0],[0],[2.2288600000028964],"[""trial_slight_left_box""]",0,66,66,75,1,pantry5.jpg,playground6.jpg,operatingroom4.jpg,park.jpg,,
Image_List_5,,,,,,,,,,,,,,,,44076,2020-11-20_14h27.56.761,lingCatScenes,2020.1.3,MacIntel,60,"[1440,900]",,,"[""trial_sharp_right_box""]",,,,,,,,,,,,shoestore4.jpg,space,3.562405,"[0.18879340277777779,0.5711458333333334,0.6056119791666666,0.2039453125]","[-0.3063107638888889,-0.3279947916666667,-0.3142491319444444,-0.3063888888888889]","[1,1,1,1]","[0,0,0,0]","[0,0,0,0]","[1.6088349999918137,2.342964999988908,2.7261799999978393,3.375739999988582]","[""trial_slight_right_box"",""trial_sharp_right_box"",""trial_slight_right_box""]",0,67,67,90,1,savanna5.jpg,trainStation1.jpg,sidewalk1.jpg,stripmall3.jpg,,
Image_List_5,,,,,,,,,,,,,,,,44076,2020-11-20_14h27.56.761,lingCatScenes,2020.1.3,MacIntel,60,"[1440,900]",,,"[""trial_ahead_box""]",,,,,,,,,,,,alley4.jpg,space,2.632045,"[-0.011236979166666666,-0.011236979166666666,-0.011236979166666666]","[-0.28826822916666667,-0.28826822916666667,-0.28826822916666667]","[1,1,1]","[0,0,0]","[0,0,0]","[1.1450999999942724,1.9608549999829847,2.410089999990305]","[""trial_ahead_box"",""trial_ahead_box"",""trial_ahead_box""]",0,68,68,4,1,artStudio1.jpg,baggageClaim2.jpg,auto_showroom1.jpg,appleorchard3.jpg,,
Image_List_5,,,,,,,,,,,,,,,,44076,2020-11-20_14h27.56.761,lingCatScenes,2020.1.3,MacIntel,60,"[1440,900]",,,"[""trial_sharp_right_box""]",,,,,,,,,,,,fireplace4.jpg,space,3.54412,[0.5807204861111112],[-0.2999609375],[1],[0],[0],[3.194839999981923],"[""trial_sharp_right_box""]",0,69,69,50,1,frontLawn4.jpg,grocerystore6.jpg,forestpath6.jpg,hallway2.jpg,,
Image_List_5,,,,,,,,,,,,,,,,44076,2020-11-20_14h27.56.761,lingCatScenes,2020.1.3,MacIntel,60,"[1440,900]",,,"[""trial_left_box""]",,,,,,,,,,,,barbershop2.jpg,space,2.0622,[-0.4137109375],[-0.2934375],[1],[0],[0],[1.8267499999783468],"[""trial_left_box""]",0,70,70,16,1,basement.jpg,cafeteria6.jpg,breakroom2.jpg,campusquad4.jpg,,
Image_List_5,,,,,,,,,,,,,,,,44076,2020-11-20_14h27.56.761,lingCatScenes,2020.1.3,MacIntel,60,"[1440,900]",,,"[""trial_slight_right_box""]",,,,,,,,,,,,soccerfield2.jpg,space,5.00175,"[0.005616319444444445,0.20394965277777777,-0.01967013888888889]","[-0.2893923611111111,-0.30801649305555556,-0.3070095486111111]","[1,1,1]","[0,0,0]","[0,0,0]","[2.9788300000072923,3.912400000001071,4.527975000004517]","[""trial_ahead_box"",""trial_slight_right_box"",""trial_ahead_box""]",0,71,71,92,1,staircase.jpg,volleyballcourt.jpg,skatepark7.jpg,tvstudio2.jpg,,
Image_List_5,,,,,,,,,,,,,,,,44076,2020-11-20_14h27.56.761,lingCatScenes,2020.1.3,MacIntel,60,"[1440,900]",,,"[""trial_slight_left_box""]",,,,,,,,,,,,grocerystore3.jpg,space,1.893415,[-0.2167361111111111],[-0.3051041666666667],[1],[0],[0],[1.5768849999876693],"[""trial_slight_left_box""]",0,72,72,59,1,homegarden7.jpg,library_aisle8.jpg,highway4.jpg,kindergarten_classroom5.jpg,,
Image_List_5,,,,,,,,,,,,,,,,44076,2020-11-20_14h27.56.761,lingCatScenes,2020.1.3,MacIntel,60,"[1440,900]",,,"[""trial_sharp_left_box""]",,,,,,,,,,,,tvstudio3.jpg,space,3.896115,"[-0.054670138888888886,-0.23200954861111112,-0.6036935763888889]","[-0.31752604166666665,-0.2960112847222222,-0.315234375]","[1,1,1]","[0,0,0]","[0,0,0]","[2.011050000000978,2.561505000019679,3.629190000006929]","[""trial_sharp_left_box""]",0,73,73,95,1,waitingroom2.jpg,warehouse2.jpg,stripmall6.jpg,weightroom4.jpg,,
Image_List_5,,,,,,,,,,,,,,,,44076,2020-11-20_14h27.56.761,lingCatScenes,2020.1.3,MacIntel,60,"[1440,900]",,,"[""trial_sharp_left_box""]",,,,,,,,,,,,applestore4.jpg,space,1.800425,[-0.5783029513888889],[-0.3024001736111111],[1],[0],[0],[1.5601150000002235],"[""trial_sharp_left_box""]",0,74,74,8,1,attic3.jpg,banquetHall6.jpg,balconyIN.jpg,bar.jpg,,
Image_List_5,,,,,,,,,,,,,,,,44076,2020-11-20_14h27.56.761,lingCatScenes,2020.1.3,MacIntel,60,"[1440,900]",,,"[""trial_ahead_box""]",,,,,,,,,,,,carmechanic2.jpg,space,1.8431,[0.0014409722222222222],[-0.3239019097222222],[1],[0],[0],[1.5597949999792036],"[""trial_ahead_box""]",0,75,75,35,1,deck5.jpg,dock3.jpg,cubicle7.jpg,dining_car6.jpg,,
Image_List_5,,,,,,,,,,,,,,,,44076,2020-11-20_14h27.56.761,lingCatScenes,2020.1.3,MacIntel,60,"[1440,900]",,,"[""trial_sharp_right_box""]",,,,,,,,,,,,classroom1.jpg,space,3.475255,"[0.21163194444444444,0.5704470486111111,0.5805859375,0.20446614583333333]","[-0.32217881944444443,-0.30919270833333334,-0.30919270833333334,-0.2947135416666667]","[1,1,1,1]","[0,0,0,0]","[0,0,0,0]","[1.3944000000192318,2.1596800000115763,2.5777349999989383,3.2439200000080746]","[""trial_slight_right_box"",""trial_sharp_right_box"",""trial_slight_right_box""]",0,76,76,38,1,dining_car2.jpg,elevatorOutside4.jpg,dock1.jpg,driveway8.jpg,,
Image_List_5,,,,,,,,,,,,,,,,44076,2020-11-20_14h27.56.761,lingCatScenes,2020.1.3,MacIntel,60,"[1440,900]",,,"[""trial_ahead_box""]",,,,,,,,,,,,firestation5.jpg,space,1.360825,[-0.0023654513888888887],[-0.29213975694444444],[1],[0],[0],[1.061119999998482],"[""trial_ahead_box""]",0,77,77,51,1,gasstation6.jpg,hallway5.jpg,frontDoor5.jpg,hayfield4.jpg,,
Image_List_5,,,,,,,,,,,,,,,,44076,2020-11-20_14h27.56.761,lingCatScenes,2020.1.3,MacIntel,60,"[1440,900]",,,"[""trial_ahead_box"",""trial_slight_left_box""]",,,,,,,,,,,,homeoffice8.jpg,space,3.42864,"[0.003689236111111111,-0.15849826388888888,-0.19864583333333333]","[-0.3028428819444444,-0.30410590277777777,-0.2828125]","[1,1,1]","[0,0,0]","[0,0,0]","[1.279275000008056,2.246225000009872,2.8289050000021234]","[""trial_ahead_box"",""trial_slight_left_box""]",0,78,78,65,1,igloo5.jpg,newsstand7.jpg,laundromat2.jpeg,labClass7.jpg,,
Image_List_5,,,,,,,,,,,,,,,,44076,2020-11-20_14h27.56.761,lingCatScenes,2020.1.3,MacIntel,60,"[1440,900]",,,"[""trial_ahead_box""]",,,,,,,,,,,,lookout4.jpg,space,1.425525,[0.0005729166666666667],[-0.30876736111111114],[1],[0],[0],[1.1442600000009406],"[""trial_ahead_box""]",0,79,79,76,1,parkinggarage.jpg,playroom4.jpg,parkinggarage3.jpg,park2.jpg,,
Image_List_5,,,,,,,,,,,,,,,,44076,2020-11-20_14h27.56.761,lingCatScenes,2020.1.3,MacIntel,60,"[1440,900]",,,"[""trial_ahead_box""]",,,,,,,,,,,,clothingstore3.jpg,space,1.677585,[0.0007248263888888889],[-0.30830729166666665],[1],[0],[0],[1.3939449999888893],"[""trial_ahead_box""]",0,80,80,40,1,drycleaners4.jpg,farm1.jpg,drymountains.jpg,dugout1.jpg,,
Image_List_5,,,,,,,,,,,,,,,,44076,2020-11-20_14h27.56.761,lingCatScenes,2020.1.3,MacIntel,60,"[1440,900]",,,"[""trial_ahead_box"",""trial_slight_left_box""]",,,,,,,,,,,,warehouseoutside3.jpg,space,1.87737,"[0.0007248263888888889,-0.19028645833333332]","[-0.30830729166666665,-0.31200954861111113]","[1,1]","[0,0]","[0,0]","[0.7276399999973364,1.6275949999981094]","[""trial_ahead_box"",""trial_slight_left_box""]",0,81,81,97,1,warehouseoutside4.jpg,wineVineyard2.jpg,waitingroom4.jpg,winebarrel3.jpg,,
Image_List_5,,,,,,,,,,,,,,,,44076,2020-11-20_14h27.56.761,lingCatScenes,2020.1.3,MacIntel,60,"[1440,900]",,,"[""trial_ahead_box""]",,,,,,,,,,,,frontFoyer.jpg,space,2.325785,"[0.026549479166666667,-0.008038194444444445]","[-0.3092578125,-0.30168402777777775]","[1,1]","[0,0]","[0,0]","[1.3270799999882001,2.0610499999893364]","[""trial_ahead_box""]",0,82,82,54,1,greenhouse2.jpg,horsebarn11.jpg,gazebo2.jpg,homegarage4.jpg,,
Image_List_5,,,,,,,,,,,,,,,,44076,2020-11-20_14h27.56.761,lingCatScenes,2020.1.3,MacIntel,60,"[1440,900]",,,"[""trial_ahead_box""]",,,,,,,,,,,,ballroom3.jpg,space,1.476735,[-0.008038194444444445],[-0.30168402777777775],[1],[0],[0],[1.2269599999999627],"[""trial_ahead_box""]",0,83,83,14,1,ballroom1.jpg,breakroom5.jpg,bistrooutdoor5.jpg,botanicalGarden5.jpg,,
Image_List_5,,,,,,,,,,,,,,,,44076,2020-11-20_14h27.56.761,lingCatScenes,2020.1.3,MacIntel,60,"[1440,900]",,,"[""trial_ahead_box""]",,,,,,,,,,,,horsebarn9.jpg,space,2.4434,[-0.008038194444444445],[-0.30168402777777775],[1],[0],[0],[1.6603900000045542],"[""trial_ahead_box""]",0,84,84,66,1,library_aisle10.jpg,office3.jpg,laundromat3.jpg,liquorstore.jpg,,
Image_List_5,,,,,,,,,,,,,,,,44076,2020-11-20_14h27.56.761,lingCatScenes,2020.1.3,MacIntel,60,"[1440,900]",,,"[""trial_ahead_box"",""trial_slight_left_box""]",,,,,,,,,,,,basketballcourt7.jpg,space,2.542625,"[-0.008038194444444445,-0.20358506944444443]","[-0.30191840277777776,-0.311953125]","[1,1]","[0,0]","[0,0]","[0.7950849999906495,1.5769950000103563]","[""trial_ahead_box"",""trial_slight_left_box""]",0,85,85,20,1,boardwalk6.jpg,cave.jpg,campsite3.jpg,cave4.jpg,,
Image_List_5,,,,,,,,,,,,,,,,44076,2020-11-20_14h27.56.761,lingCatScenes,2020.1.3,MacIntel,60,"[1440,900]",,,"[""trial_slight_right_box""]",,,,,,,,,,,,bistrooutdoor6.jpg,space,1.79684,[0.20805555555555555],[-0.3083420138888889],[1],[0],[0],[1.4113950000028126],"[""trial_slight_right_box""]",0,86,86,22,1,bowlingalley5.jpg,church6.jpg,cargo5.jpg,cemetery.jpg,,
Image_List_5,,,,,,,,,,,,,,,,44076,2020-11-20_14h27.56.761,lingCatScenes,2020.1.3,MacIntel,60,"[1440,900]",,,"[""trial_ahead_box"",""trial_slight_left_box""]",,,,,,,,,,,,hallway.jpg,space,3.10099,"[0.0028472222222222223,-0.18409288194444445]","[-0.29822482638888886,-0.28314236111111113]","[1,1]","[0,0]","[0,0]","[1.112874999991618,2.0455650000076275]","[""trial_ahead_box"",""trial_slight_left_box""]",0,87,87,60,1,hometheater2.jpg,lightingstore3.jpg,homegarage.jpg,kindergarten_classroom6.jpg,,
Image_List_5,,,,,,,,,,,,,,,,44076,2020-11-20_14h27.56.761,lingCatScenes,2020.1.3,MacIntel,60,"[1440,900]",,,"[""trial_slight_right_box""]",,,,,,,,,,,,rooftop4.jpg,space,4.694325,"[-0.007912326388888889,0.017591145833333332,0.17601996527777777]","[-0.3041015625,-0.2936241319444444,-0.29682291666666666]","[1,1,1]","[0,0,0]","[0,0,0]","[1.2600950000050943,3.8772900000039954,4.3768700000073295]","[""trial_ahead_box"",""trial_ahead_box"",""trial_slight_right_box""]",0,88,88,86,1,restaurant14.jpg,stripmall.jpg,ruralroad3.jpg,sandDunes_desert_outdoor8.jpg,,
Image_List_5,,,,,,,,,,,,,,,,44076,2020-11-20_14h27.56.761,lingCatScenes,2020.1.3,MacIntel,60,"[1440,900]",,,"[""trial_ahead_box""]",,,,,,,,,,,,dentist2.jpg,space,1.77745,[-0.002699652777777778],[-0.3101779513888889],[1],[0],[0],[1.544789999985369],"[""trial_ahead_box""]",0,89,89,41,1,dugout4.jpg,farm3.jpg,drymountains3.jpg,fabricstore1.jpg,,
Image_List_5,,,,,,,,,,,,,,,,44076,2020-11-20_14h27.56.761,lingCatScenes,2020.1.3,MacIntel,60,"[1440,900]",,,"[""trial_sharp_right_box""]",,,,,,,,,,,,bar8.jpg,space,2.143745,[0.6110633680555555],[-0.32414930555555554],[1],[0],[0],[1.4609599999967031],"[""trial_sharp_right_box""]",0,90,90,15,1,bambooforest4.jpg,cafeteria5.jpg,bleachers8.jpg,cabinIndoors.jpg,,
Image_List_5,,,,,,,,,,,,,,,,44076,2020-11-20_14h27.56.761,lingCatScenes,2020.1.3,MacIntel,60,"[1440,900]",,,"[""trial_sharp_left_box""]",,,,,,,,,,,,dock4.jpg,space,2.03381,[-0.5846657986111111],[-0.28546875],[1],[0],[0],[1.811859999987064],"[""trial_sharp_left_box""]",0,91,91,45,1,fittingroom2.jpg,frontFoyer7.jpg,factory1.jpg,forestpath4.jpg,,
Image_List_5,,,,,,,,,,,,,,,,44076,2020-11-20_14h27.56.761,lingCatScenes,2020.1.3,MacIntel,60,"[1440,900]",,,"[""trial_slight_right_box""]",,,,,,,,,,,,hospitalroom2.jpg,space,2.54896,[0.21326822916666666],[-0.3091276041666667],[1],[0],[0],[2.2788499999733176],"[""trial_slight_right_box""]",0,92,92,67,1,library_aisle3.jpg,park7.jpg,laundromat4.jpg,liquorstore2.jpg,,
Image_List_5,,,,,,,,,,,,,,,,44076,2020-11-20_14h27.56.761,lingCatScenes,2020.1.3,MacIntel,60,"[1440,900]",,,"[""trial_sharp_left_box""]",,,,,,,,,,,,igloo.jpg,space,2.11386,[-0.5923871527777778],[-0.2864453125],[1],[0],[0],[1.8216550000070129],"[""trial_sharp_left_box""]",0,93,93,70,1,lockerroom4.jpg,pavilion.jpg,lockerroom3.jpg,minigolf8.jpg,,
Image_List_5,,,,,,,,,,,,,,,,44076,2020-11-20_14h27.56.761,lingCatScenes,2020.1.3,MacIntel,60,"[1440,900]",,,"[""trial_sharp_right_box""]",,,,,,,,,,,,campusquad1.jpg,space,2.14784,[0.5898611111111111],[-0.3104079861111111],[1],[0],[0],[1.882420000009006],"[""trial_sharp_right_box""]",0,94,94,34,1,deck4.jpg,diningroom5.jpg,courthouse4.jpg,diner11.jpg,,
Image_List_5,,,,,,,,,,,,,,,,44076,2020-11-20_14h27.56.761,lingCatScenes,2020.1.3,MacIntel,60,"[1440,900]",,,"[""trial_sharp_right_box""]",,,,,,,,,,,,diningroom3.jpg,space,1.82599,[0.5901432291666666],[-0.3104079861111111],[1],[0],[0],[1.3293549999943934],"[""trial_sharp_right_box""]",0,95,95,43,1,exerciseequipment5.jpg,forestpath10.jpg,dugout2.jpg,foodcourt.jpg,,
Image_List_5,,,,,,,,,,,,,,,,44076,2020-11-20_14h27.56.761,lingCatScenes,2020.1.3,MacIntel,60,"[1440,900]",,,"[""trial_sharp_right_box""]",,,,,,,,,,,,alley3.jpg,space,1.62185,[0.5853342013888889],[-0.31702256944444446],[1],[0],[0],[1.3280200000153854],"[""trial_sharp_right_box""]",0,96,96,3,1,apartmentBuilding2.jpg,attic1.jpg,aquarium1.jpg,appleorchard2.jpg,,
Image_List_5,,,,,,,,,,,,,,,,44076,2020-11-20_14h27.56.761,lingCatScenes,2020.1.3,MacIntel,60,"[1440,900]",,,"[""trial_right_box""]",,,,,,,,,,,,tenniscourt.jpg,space,2.20601,[0.41262586805555557],[-0.3080512152777778],[1],[0],[0],[1.944469999987632],"[""trial_right_box""]",0,97,97,93,1,tollbooth8.jpg,volleyballcourt4.jpg,staircase4.jpg,warehouseoutside2.jpg,,
Image_List_5,,,,,,,,,,,,,,,,44076,2020-11-20_14h27.56.761,lingCatScenes,2020.1.3,MacIntel,60,"[1440,900]",,,"[""trial_slight_left_box""]",,,,,,,,,,,,dormroom6.jpg,space,1.76009,[-0.191484375],[-0.30963975694444446],[1],[0],[0],[1.4779899999848567],"[""trial_slight_left_box""]",0,98,98,46,1,flowershop.jpg,frontLawn5.jpg,farmersmarket4.jpg,fountain4.jpg,,
Image_List_5,,,,,,,,,,,,,,,,44076,2020-11-20_14h27.56.761,lingCatScenes,2020.1.3,MacIntel,60,"[1440,900]",,,"[""trial_ahead_box""]",,,,,,,,,,,,grocerystore2.jpg,space,2.62581,"[-0.025911458333333335,-0.0036588541666666666]","[-0.31927517361111113,-0.3140190972222222]","[1,1]","[0,0]","[0,0]","[1.776624999998603,2.3589149999897927]","[""trial_ahead_box""]",0,99,99,58,1,highway7.jpg,lab1.jpg,hedgemaze1.jpg,igloo4.jpg,,
Image_List_5,,,,,,,,,,,,,,,,44076,2020-11-20_14h27.56.761,lingCatScenes,2020.1.3,MacIntel,60,,,,,,,,,,,,,,,,,,,,,,,,,,,,,,,,,,,space,5.82022
