image_list,key_resp_intructions.keys,key_resp_intructions.rt,key_resp_intructions_3.keys,key_resp_intructions_3.rt,PracticeComplete_2.keys,PracticeComplete_2.rt,PracticeComplete_3.keys,PracticeComplete_3.rt,demo_trials.thisRepN,demo_trials.thisTrialN,demo_trials.thisN,demo_trials.thisIndex,demo_trials.ran,demo_images,path_images,participant,date,expName,psychopyVersion,OS,frameRate,windowSize,practice_complete.keys,practice_complete.rt,boxes_checked,PracticeComplete.keys,PracticeComplete.rt,practice_trials.thisRepN,practice_trials.thisTrialN,practice_trials.thisN,practice_trials.thisIndex,practice_trials.ran,practice_images,feedback_images,key_resp_intructions_2.keys,key_resp_intructions_2.rt,Image_List_3,trial_complete.keys,trial_complete.rt,trial_mouse.x,trial_mouse.y,trial_mouse.leftButton,trial_mouse.midButton,trial_mouse.rightButton,trial_mouse.time,trial_mouse.clicked_name,trials.thisRepN,trials.thisTrialN,trials.thisN,trials.thisIndex,trials.ran,Image_List_1,Image_List_2,Image_List_4,Image_List_5,key_resp.keys,key_resp.rt
Image_List_3,space,5.46,space,2.493,space,19.84,space,6.224,0,0,0,3,1,ahead_right_left.jpg,ahead_right_left_path.jpg,44149,2020-11-12_17h58.46.359,lingCatScenes,2020.1.3,MacIntel,60,,,,,,,,,,,,,,,,,,,,,,,,,,,,,,,,,,,,
Image_List_3,,,,,space,115.406,space,2.465,0,1,1,4,1,left.jpg,left_path.jpg,44149,2020-11-12_17h58.46.359,lingCatScenes,2020.1.3,MacIntel,60,,,,,,,,,,,,,,,,,,,,,,,,,,,,,,,,,,,,
Image_List_3,,,,,space,3.78,space,2.148,0,2,2,0,1,ahead.jpg,ahead_path.jpg,44149,2020-11-12_17h58.46.359,lingCatScenes,2020.1.3,MacIntel,60,,,,,,,,,,,,,,,,,,,,,,,,,,,,,,,,,,,,
Image_List_3,,,,,space,7.179,space,2.098,0,3,3,1,1,ahead_left.jpg,ahead_left_path.jpg,44149,2020-11-12_17h58.46.359,lingCatScenes,2020.1.3,MacIntel,60,,,,,,,,,,,,,,,,,,,,,,,,,,,,,,,,,,,,
Image_List_3,,,,,space,3.474,space,2.61,0,4,4,2,1,ahead_right.jpg,ahead_right_path.jpg,44149,2020-11-12_17h58.46.359,lingCatScenes,2020.1.3,MacIntel,60,,,,,,,,,,,,,,,,,,,,,,,,,,,,,,,,,,,,
Image_List_3,,,,,space,3.646,space,1.132,0,5,5,5,1,right.jpg,right_path.jpg,44149,2020-11-12_17h58.46.359,lingCatScenes,2020.1.3,MacIntel,60,,,,,,,,,,,,,,,,,,,,,,,,,,,,,,,,,,,,
Image_List_3,,,,,space,6.106,space,1.679,0,6,6,6,1,right_left.jpg,right_left_path.jpg,44149,2020-11-12_17h58.46.359,lingCatScenes,2020.1.3,MacIntel,60,,,,,,,,,,,,,,,,,,,,,,,,,,,,,,,,,,,,
Image_List_3,,,,,,,,,,,,,,,,44149,2020-11-12_17h58.46.359,lingCatScenes,2020.1.3,MacIntel,60,"[1280,800]",space,17.928,"[""right_box""]",space,1.965,0,0,0,4,1,left_2.jpg,left_2_path.jpg,,,,,,,,,,,,,,,,,,,,,,,
Image_List_3,,,,,,,,,,,,,,,,44149,2020-11-12_17h58.46.359,lingCatScenes,2020.1.3,MacIntel,60,"[1280,800]",space,21.501,"[""sharp_left_box"",""ahead_box""]",space,4.954,0,1,1,3,1,ahead_right_left_2.jpg,ahead_right_left_2_path.jpg,,,,,,,,,,,,,,,,,,,,,,,
Image_List_3,,,,,,,,,,,,,,,,44149,2020-11-12_17h58.46.359,lingCatScenes,2020.1.3,MacIntel,60,"[1280,800]",space,10.649,"[""ahead_box""]",space,1.215,0,2,2,1,1,ahead_left_2.jpg,ahead_left_2_path.jpg,,,,,,,,,,,,,,,,,,,,,,,
Image_List_3,,,,,,,,,,,,,,,,44149,2020-11-12_17h58.46.359,lingCatScenes,2020.1.3,MacIntel,60,"[1280,800]",space,10.073,"[""left_box"",""right_box""]",space,4.593,0,3,3,6,1,right_left_2.jpg,right_left_2_path.jpg,,,,,,,,,,,,,,,,,,,,,,,
Image_List_3,,,,,,,,,,,,,,,,44149,2020-11-12_17h58.46.359,lingCatScenes,2020.1.3,MacIntel,60,"[1280,800]",space,14.18,"[""slight_right_box""]",space,1.11,0,4,4,5,1,right_2.jpg,right_2_path.jpg,,,,,,,,,,,,,,,,,,,,,,,
Image_List_3,,,,,,,,,,,,,,,,44149,2020-11-12_17h58.46.359,lingCatScenes,2020.1.3,MacIntel,60,"[1280,800]",space,9.062,"[""sharp_right_box"",""ahead_box""]",space,1.313,0,5,5,2,1,ahead_right_2.jpg,ahead_right_2_path.jpg,,,,,,,,,,,,,,,,,,,,,,,
Image_List_3,,,,,,,,,,,,,,,,44149,2020-11-12_17h58.46.359,lingCatScenes,2020.1.3,MacIntel,60,"[1280,800]",space,3.479,"[""ahead_box""]",space,1.192,0,6,6,0,1,ahead_2.jpg,ahead_2_path.jpg,,,,,,,,,,,,,,,,,,,,,,,
Image_List_3,,,,,,,,,,,,,,,,44149,2020-11-12_17h58.46.359,lingCatScenes,2020.1.3,MacIntel,60,"[1280,800]",,,"[""trial_ahead_box"",""trial_slight_left_box""]",,,,,,,,,,space,2.813,parkinggarage3.jpg,space,12.794,"[0,-0.17125,-0.175,-0.19625]","[-0.295,-0.31375,-0.31375,-0.31]","[1,1,1,1]","[0,0,0,0]","[0,0,0,0]","[2.5810000000000173,7.949999999999932,8.683999999999969,9.217999999999961]","[""trial_ahead_box"",""trial_slight_left_box""]",0,0,0,76,1,parkinggarage.jpg,playroom4.jpg,park2.jpg,lookout4.jpg,,
Image_List_3,,,,,,,,,,,,,,,,44149,2020-11-12_17h58.46.359,lingCatScenes,2020.1.3,MacIntel,60,"[1280,800]",,,"[""trial_right_box""]",,,,,,,,,,,,campsite3.jpg,space,6.778,"[0.21,0.21,0.37,0.3975]","[-0.2925,-0.2925,-0.29375,-0.315]","[1,1,1,1]","[0,0,0,0]","[0,0,0,0]","[3.6310000000000855,4.43100000000004,5.600000000000023,6.333000000000084]","[""trial_slight_right_box"",""trial_slight_right_box"",""trial_right_box""]",0,1,1,20,1,boardwalk6.jpg,cave.jpg,cave4.jpg,basketballcourt7.jpg,,
Image_List_3,,,,,,,,,,,,,,,,44149,2020-11-12_17h58.46.359,lingCatScenes,2020.1.3,MacIntel,60,"[1280,800]",,,"[""trial_ahead_box"",""trial_right_box""]",,,,,,,,,,,,campusquad3.jpg,space,18.489,"[0.01125,0.39375]","[-0.29875,-0.28375]","[1,1]","[0,0]","[0,0]","[10.336000000000013,13.104000000000042]","[""trial_ahead_box"",""trial_right_box""]",0,2,2,21,1,botanicalGarden6.jpg,cemetery6.jpg,cave5.jpg,beach1.jpeg,,
Image_List_3,,,,,,,,,,,,,,,,44149,2020-11-12_17h58.46.359,lingCatScenes,2020.1.3,MacIntel,60,"[1280,800]",,,"[""trial_slight_right_box"",""trial_sharp_right_box"",""trial_left_box""]",,,,,,,,,,,,bistrooutdoor5.jpg,space,12.399,"[0.22375,0.60125,0.6025,-0.4225]","[-0.29375,-0.32875,-0.305,-0.325]","[1,1,1,1]","[0,0,0,0]","[0,0,0,0]","[5.75,8.134999999999991,9.201999999999998,11.98599999999999]","[""trial_slight_right_box"",""trial_sharp_right_box"",""trial_left_box""]",0,3,3,14,1,ballroom1.jpg,breakroom5.jpg,botanicalGarden5.jpg,ballroom3.jpg,,
Image_List_3,,,,,,,,,,,,,,,,44149,2020-11-12_17h58.46.359,lingCatScenes,2020.1.3,MacIntel,60,"[1280,800]",,,"[""trial_ahead_box""]",,,,,,,,,,,,drymountains.jpg,space,5.733,[0],[-0.305],[1],[0],[0],[4.566000000000031],"[""trial_ahead_box""]",0,4,4,40,1,drycleaners4.jpg,farm1.jpg,dugout1.jpg,clothingstore3.jpg,,
Image_List_3,,,,,,,,,,,,,,,,44149,2020-11-12_17h58.46.359,lingCatScenes,2020.1.3,MacIntel,60,"[1280,800]",,,"[""trial_ahead_box"",""trial_sharp_right_box"",""trial_sharp_left_box""]",,,,,,,,,,,,stripmall6.jpg,space,148.924,"[-0.01125,0.6146540027137042,-0.6024423337856174]","[-0.3125,-0.28154681139755766,-0.3073270013568521]","[1,1,1]","[0,0,0]","[0,0,0]","[6.166999999999916,147.18499999999995,148.50199999999995]","[""trial_ahead_box"",""trial_sharp_right_box"",""trial_sharp_left_box""]",0,5,5,95,1,waitingroom2.jpg,warehouse2.jpg,weightroom4.jpg,tvstudio3.jpg,,
Image_List_3,,,,,,,,,,,,,,,,44149,2020-11-12_17h58.46.359,lingCatScenes,2020.1.3,MacIntel,60,"[1280,737]",,,"[""trial_ahead_box""]",,,,,,,,,,,,porch.jpg,space,3.297,"[-0.0067842605156037995,-0.005427408412483039]","[-0.27204884667571233,-0.2883310719131615]","[1,1]","[0,0]","[0,0]","[2.312999999999988,2.8969999999999345]","[""trial_ahead_box""]",0,6,6,80,1,pavilion2.jpg,racecarcourse2.jpg,poolhall5.jpg,parkinggarage4.jpg,,
Image_List_3,,,,,,,,,,,,,,,,44149,2020-11-12_17h58.46.359,lingCatScenes,2020.1.3,MacIntel,60,"[1280,737]",,,"[""trial_ahead_box"",""trial_left_box""]",,,,,,,,,,,,windmill2.jpg,space,10.952,"[-0.005427408412483039,-0.37991858887381275]","[-0.2883310719131615,-0.3168249660786974]","[1,1]","[0,0]","[0,0]","[1.7789999999999964,5.01400000000001]","[""trial_ahead_box"",""trial_left_box""]",0,7,7,99,1,wineVineyard9.jpg,yogastudio4.jpg,wrestlingring7.jpg,yogastudio1.jpg,,
Image_List_3,,,,,,,,,,,,,,,,44149,2020-11-12_17h58.46.359,lingCatScenes,2020.1.3,MacIntel,60,"[1280,737]",,,"[""trial_ahead_box""]",,,,,,,,,,,,bambooforest3.jpg,space,3.296,"[0.025780189959294438,0.004070556309362279]","[-0.30597014925373134,-0.296472184531886]","[1,1]","[0,0]","[0,0]","[1.5639999999999645,2.0819999999999936]","[""trial_ahead_box""]",0,8,8,11,1,backyard2.jpg,basketballcourt4.jpg,baywindow5.jpg,backyard1.jpg,,
Image_List_3,,,,,,,,,,,,,,,,44149,2020-11-12_17h58.46.359,lingCatScenes,2020.1.3,MacIntel,60,"[1280,737]",,,"[""trial_ahead_box"",""trial_sharp_left_box"",""trial_right_box""]",,,,,,,,,,,,breakroom2.jpg,space,8.65,"[-0.021709633649932156,-0.3880597014925373,-0.37177747625508817,-0.5725915875169606,-0.5943012211668928,0.40298507462686567,0.39620081411126185]","[-0.3018995929443691,-0.27204884667571233,-0.291044776119403,-0.296472184531886,-0.3046132971506106,-0.32632293080054275,-0.30868385345997285]","[1,1,1,1,1,1,1]","[0,0,0,0,0,0,0]","[0,0,0,0,0,0,0]","[2.1989999999999554,3.133000000000038,3.83299999999997,5.701000000000022,6.383000000000038,7.7000000000000455,8.317999999999984]","[""trial_ahead_box"",""trial_sharp_left_box"",""trial_right_box""]",0,9,9,16,1,basement.jpg,cafeteria6.jpg,campusquad4.jpg,barbershop2.jpg,,
Image_List_3,,,,,,,,,,,,,,,,44149,2020-11-12_17h58.46.359,lingCatScenes,2020.1.3,MacIntel,60,"[1280,737]",,,"[""trial_ahead_box"",""trial_slight_right_box""]",,,,,,,,,,,,forestpath6.jpg,space,5.468,"[0.009497964721845319,0.22523744911804613,0.21031207598371776]","[-0.3005427408412483,-0.30597014925373134,-0.3018995929443691]","[1,1,1]","[0,0,0]","[0,0,0]","[2.115000000000009,3.032000000000039,3.5979999999999563]","[""trial_ahead_box"",""trial_slight_right_box""]",0,10,10,50,1,frontLawn4.jpg,grocerystore6.jpg,hallway2.jpg,fireplace4.jpg,,
Image_List_3,,,,,,,,,,,,,,,,44149,2020-11-12_17h58.46.359,lingCatScenes,2020.1.3,MacIntel,60,"[1280,737]",,,"[""trial_slight_left_box"",""trial_sharp_left_box"",""trial_right_box""]",,,,,,,,,,,,auto_showroom1.jpg,space,12.637,"[0.21166892808683854,-0.17774762550881953,-0.6051560379918589,-0.6024423337856174,-0.6065128900949797,0.5956580732700135,0.592944369063772,0.22116689280868385,0.4056987788331072,0.6146540027137042]","[-0.3073270013568521,-0.29782903663500676,-0.3575305291723202,-0.33175033921302577,-0.3208955223880597,-0.2734056987788331,-0.28697421981004073,-0.3018995929443691,-0.3005427408412483,-0.29782903663500676]","[1,1,1,1,1,1,1,1,1,1]","[0,0,0,0,0,0,0,0,0,0]","[0,0,0,0,0,0,0,0,0,0]","[2.7999999999999545,4.016999999999939,7.169999999999959,7.701999999999998,8.218999999999937,9.654999999999973,10.20399999999995,10.935999999999922,11.386999999999944,12.019999999999982]","[""trial_slight_right_box"",""trial_slight_left_box"",""trial_sharp_left_box"",""trial_sharp_right_box"",""trial_slight_right_box"",""trial_right_box"",""trial_sharp_right_box""]",0,11,11,4,1,artStudio1.jpg,baggageClaim2.jpg,appleorchard3.jpg,alley4.jpg,,
Image_List_3,,,,,,,,,,,,,,,,44149,2020-11-12_17h58.46.359,lingCatScenes,2020.1.3,MacIntel,60,"[1280,737]",,,"[""trial_slight_left_box""]",,,,,,,,,,,,nursery.jpg,space,4.46,[-0.2225237449118046],[-0.3100407055630936],[1],[0],[0],[2.177000000000021],"[""trial_slight_left_box""]",0,12,12,73,1,musicStore3.jpg,photographer_studio2.jpg,nursery4.jpg,library_aisle9.jpg,,
Image_List_3,,,,,,,,,,,,,,,,44149,2020-11-12_17h58.46.359,lingCatScenes,2020.1.3,MacIntel,60,"[1280,737]",,,"[""trial_slight_left_box"",""trial_right_box""]",,,,,,,,,,,,constructionSite2.jpg,space,5.16,"[-0.19538670284938942,0.41926729986431477]","[-0.2801899592944369,-0.28968792401628224]","[1,1]","[0,0]","[0,0]","[2.247000000000071,4.148000000000025]","[""trial_slight_left_box"",""trial_right_box""]",0,13,13,32,1,dancestudio6.jpg,diner12.jpg,dentist4.jpg,cabin4.jpg,,
Image_List_3,,,,,,,,,,,,,,,,44149,2020-11-12_17h58.46.359,lingCatScenes,2020.1.3,MacIntel,60,"[1280,737]",,,"[""trial_ahead_box""]",,,,,,,,,,,,staircase4.jpg,space,4.635,[-0.012211668928086838],[-0.3046132971506106],[1],[0],[0],[2.064999999999941],"[""trial_ahead_box""]",0,14,14,93,1,tollbooth8.jpg,volleyballcourt4.jpg,warehouseoutside2.jpg,tenniscourt.jpg,,
Image_List_3,,,,,,,,,,,,,,,,44149,2020-11-12_17h58.46.359,lingCatScenes,2020.1.3,MacIntel,60,"[1280,737]",,,"[""trial_slight_right_box"",""trial_left_box""]",,,,,,,,,,,,musicStore1.jpg,space,11.403,"[0.23337856173677068,0.20759837177747625,-0.2021709633649932,-0.41112618724559025,-0.18588873812754408]","[-0.3181818181818182,-0.3100407055630936,-0.29240162822252375,-0.29240162822252375,-0.3018995929443691]","[1,1,1,1,1]","[0,0,0,0,0]","[0,0,0,0,0]","[4.231999999999971,4.6469999999999345,5.281999999999925,8.16599999999994,10.949999999999932]","[""trial_slight_right_box"",""trial_slight_left_box"",""trial_left_box"",""trial_slight_left_box""]",0,15,15,72,1,museum5.jpg,pharmacy4.jpg,museum4.jpg,kindergarten_classroom.jpg,,
Image_List_3,,,,,,,,,,,,,,,,44149,2020-11-12_17h58.46.359,lingCatScenes,2020.1.3,MacIntel,60,"[1280,737]",,,"[""trial_slight_right_box"",""trial_sharp_left_box""]",,,,,,,,,,,,flowershop3.jpg,space,8.467,"[-0.024423337856173677,0.1519674355495251,0.16960651289009498,0.20352781546811397,-0.5915875169606513]","[-0.3331071913161465,-0.30325644504748983,-0.30325644504748983,-0.31275440976933516,-0.3073270013568521]","[1,1,1,1,1]","[0,0,0,0,0]","[0,0,0,0,0]","[2.4799999999999045,5.064999999999941,5.413999999999987,6.098999999999933,8.08299999999997]","[""trial_slight_right_box"",""trial_sharp_left_box""]",0,16,16,49,1,frontDoor3.jpg,greenhouse5.jpg,greenhouse.jpg,farm2.jpg,,
Image_List_3,,,,,,,,,,,,,,,,44149,2020-11-12_17h58.46.359,lingCatScenes,2020.1.3,MacIntel,60,"[1280,737]",,,"[""trial_slight_right_box"",""trial_slight_left_box""]",,,,,,,,,,,,bambooforest5.jpg,space,11.554,"[0.16960651289009498,0.18181818181818182,-0.1994572591587517]","[-0.28697421981004073,-0.3005427408412483,-0.3168249660786974]","[1,1,1]","[0,0,0]","[0,0,0]","[3.18100000000004,4.914999999999964,6.981999999999971]","[""trial_slight_right_box"",""trial_slight_left_box""]",0,17,17,12,1,baggageClaim4.jpg,bedroom6.jpg,bleachers7.jpg,backyard5.jpg,,
Image_List_3,,,,,,,,,,,,,,,,44149,2020-11-12_17h58.46.359,lingCatScenes,2020.1.3,MacIntel,60,"[1280,737]",,,"[""trial_slight_right_box"",""trial_left_box""]",,,,,,,,,,,,pasture9.jpg,space,7.019,"[0.1926729986431479,-0.4056987788331072]","[-0.3113975576662144,-0.27611940298507465]","[1,1]","[0,0]","[0,0]","[2.633000000000038,6.168000000000006]","[""trial_slight_right_box"",""trial_left_box""]",0,18,18,77,1,parkinggarage2.jpg,playroom6.jpg,park8.jpg,mallindoor6.jpg,,
Image_List_3,,,,,,,,,,,,,,,,44149,2020-11-12_17h58.46.359,lingCatScenes,2020.1.3,MacIntel,60,"[1280,737]",,,"[""trial_slight_right_box""]",,,,,,,,,,,,pier5.jpg,space,3.214,[0.19538670284938942],[-0.2937584803256445],[1],[0],[0],[2.8139999999999645],"[""trial_slight_right_box""]",0,19,19,78,1,parkinglot3.jpg,poolhall1.jpg,pavilion3.jpg,observatory1.jpg,,
Image_List_3,,,,,,,,,,,,,,,,44149,2020-11-12_17h58.46.359,lingCatScenes,2020.1.3,MacIntel,60,"[1280,737]",,,"[""trial_slight_right_box""]",,,,,,,,,,,,waitingroom4.jpg,space,6.915,[0.18317503392130258],[-0.2856173677069199],[1],[0],[0],[4.080000000000041],"[""trial_slight_right_box""]",0,20,20,97,1,warehouseoutside4.jpg,wineVineyard2.jpg,winebarrel3.jpg,warehouseoutside3.jpg,,
Image_List_3,,,,,,,,,,,,,,,,44149,2020-11-12_17h58.46.359,lingCatScenes,2020.1.3,MacIntel,60,"[1280,737]",,,"[""trial_left_box""]",,,,,,,,,,,,cubicle7.jpg,space,8.115,"[-0.19810040705563092,-0.18995929443690637,-0.3473541383989145,-0.37449118046132973,-0.43283582089552236,-0.42469470827679784,-0.208955223880597]","[-0.32360922659430125,-0.2734056987788331,-0.28968792401628224,-0.29918588873812757,-0.3113975576662144,-0.3141112618724559,-0.28426051560379917]","[1,1,1,1,1,1,1]","[0,0,0,0,0,0,0]","[0,0,0,0,0,0,0]","[2.413000000000011,4.364000000000033,4.965000000000032,5.331000000000017,5.932000000000016,6.3659999999999854,7.215000000000032]","[""trial_slight_left_box"",""trial_left_box"",""trial_slight_left_box""]",0,21,21,35,1,deck5.jpg,dock3.jpg,dining_car6.jpg,carmechanic2.jpg,,
Image_List_3,,,,,,,,,,,,,,,,44149,2020-11-12_17h58.46.359,lingCatScenes,2020.1.3,MacIntel,60,"[1280,737]",,,"[""trial_left_box""]",,,,,,,,,,,,tenniscourt3.jpg,space,2.965,"[-0.3582089552238806,-0.37991858887381275]","[-0.2829036635006784,-0.2883310719131615]","[1,1]","[0,0]","[0,0]","[1.9629999999999654,2.5810000000000173]","[""trial_left_box""]",0,22,22,96,1,warehouse4.jpg,warehouseoutside1.jpg,windmill1.jpg,warehouse1.jpg,,
Image_List_3,,,,,,,,,,,,,,,,44149,2020-11-12_17h58.46.359,lingCatScenes,2020.1.3,MacIntel,60,"[1280,737]",,,"[""trial_slight_right_box""]",,,,,,,,,,,,lightingstore4.jpg,space,255.291,"[0.276797829036635,0.22523744911804613,0.21031207598371776]","[-0.2693351424694708,-0.2774762550881954,-0.29782903663500676]","[1,1,1]","[0,0,0]","[0,0,0]","[254.02199999999993,254.4269999999999,254.92599999999993]","[""trial_slight_right_box""]",0,23,23,68,1,liquorstore7.jpg,parkinglot.jpg,lockerroom2.jpg,hospitalroom3.jpg,,
Image_List_3,,,,,,,,,,,,,,,,44149,2020-11-12_17h58.46.359,lingCatScenes,2020.1.3,MacIntel,60,"[1280,737]",,,"[""trial_slight_left_box"",""trial_slight_right_box""]",,,,,,,,,,,,homegarden6.jpg,space,6.3,"[-0.21031207598371776,0.2265943012211669,0.19131614654002713]","[-0.3046132971506106,-0.324966078697422,-0.3141112618724559]","[1,1,1]","[0,0,0]","[0,0,0]","[2.713999999999942,5.2309999999999945,5.864000000000033]","[""trial_slight_left_box"",""trial_slight_right_box""]",0,24,24,61,1,HorseRaceTrack.jpg,metroInside4.jpg,kindergarten_classroom7.jpg,hayfield6.jpg,,
Image_List_3,,,,,,,,,,,,,,,,44149,2020-11-12_17h58.46.359,lingCatScenes,2020.1.3,MacIntel,60,"[1280,737]",,,"[""trial_ahead_box""]",,,,,,,,,,,,carmechanic4.jpeg,space,4.53,[0.008141112618724558],[-0.3005427408412483],[1],[0],[0],[3.699000000000069],"[""trial_ahead_box""]",0,25,25,23,1,bus_shelter.jpg,church8.jpg,cemetery3.jpg,bleachers6.jpg,,
Image_List_3,,,,,,,,,,,,,,,,44149,2020-11-12_17h58.46.359,lingCatScenes,2020.1.3,MacIntel,60,"[1280,737]",,,"[""trial_ahead_box""]",,,,,,,,,,,,appleorchard4.jpg,space,1.815,[0.009497964721845319],[-0.29918588873812757],[1],[0],[0],[0.9289999999998599],"[""trial_ahead_box""]",0,26,26,0,1,airplanecabin1.jpg,alley2.jpg,airplanecabin5.jpg,airplanecabin3.jpg,,
Image_List_3,,,,,,,,,,,,,,,,44149,2020-11-12_17h58.46.359,lingCatScenes,2020.1.3,MacIntel,60,"[1280,737]",,,"[""trial_sharp_left_box"",""trial_sharp_right_box"",""trial_slight_right_box"",""trial_slight_left_box""]",,,,,,,,,,,,metroInside3.jpg,space,7.752,"[-0.5997286295793759,0.6105834464043419,0.2130257801899593,-0.21166892808683854]","[-0.3046132971506106,-0.3046132971506106,-0.30325644504748983,-0.3018995929443691]","[1,1,1,1]","[0,0,0,0]","[0,0,0,0]","[3.865000000000009,5.367000000000189,6.582000000000107,7.400000000000091]","[""trial_sharp_left_box"",""trial_sharp_right_box"",""trial_slight_right_box"",""trial_slight_left_box""]",0,27,27,71,1,metroInside2.jpg,pavilion5.jpg,museum3.jpg,jewelrystore.jpg,,
Image_List_3,,,,,,,,,,,,,,,,44149,2020-11-12_17h58.46.359,lingCatScenes,2020.1.3,MacIntel,60,"[1280,737]",,,"[""trial_ahead_box""]",,,,,,,,,,,,frontLawn3.jpg,space,4.132,"[-0.017639077340569877,-0.017639077340569877]","[-0.3412483039348711,-0.30597014925373134]","[1,1]","[0,0]","[0,0]","[2.1649999999999636,2.6820000000000164]","[""trial_ahead_box""]",0,28,28,53,1,gazebo3.jpg,homeoffice.jpg,homegarage3.jpg,fountain.jpg,,
Image_List_3,,,,,,,,,,,,,,,,44149,2020-11-12_17h58.46.359,lingCatScenes,2020.1.3,MacIntel,60,"[1280,737]",,,"[""trial_slight_right_box""]",,,,,,,,,,,,beach2.jpg,space,5.802,"[0.18317503392130258,0.18317503392130258]","[-0.2666214382632293,-0.27611940298507465]","[1,1]","[0,0]","[0,0]","[4.566000000000031,5.082000000000107]","[""trial_slight_right_box""]",0,29,29,13,1,balconyIN2.jpg,bowlingalley3.jpg,boardwalk4.jpg,backyard6.jpg,,
Image_List_3,,,,,,,,,,,,,,,,44149,2020-11-12_17h58.46.359,lingCatScenes,2020.1.3,MacIntel,60,"[1280,737]",,,"[""trial_right_box"",""trial_left_box""]",,,,,,,,,,,,laundromat3.jpg,space,7.684,"[0.4151967435549525,-0.41383989145183175]","[-0.28697421981004073,-0.29240162822252375]","[1,1]","[0,0]","[0,0]","[3.866999999999962,7.218000000000075]","[""trial_right_box"",""trial_left_box""]",0,30,30,66,1,library_aisle10.jpg,office3.jpg,liquorstore.jpg,horsebarn9.jpg,,
Image_List_3,,,,,,,,,,,,,,,,44149,2020-11-12_17h58.46.359,lingCatScenes,2020.1.3,MacIntel,60,"[1280,737]",,,"[""trial_sharp_right_box""]",,,,,,,,,,,,cafeteria1.jpg,space,2.979,[0.5956580732700135],[-0.30868385345997285],[1],[0],[0],[2.530999999999949],"[""trial_sharp_right_box""]",0,31,31,19,1,boardwalk2.jpg,casino3.jpg,castle4.jpg,basketballcourt.jpg,,
Image_List_3,,,,,,,,,,,,,,,,44149,2020-11-12_17h58.46.359,lingCatScenes,2020.1.3,MacIntel,60,"[1280,737]",,,"[""trial_slight_left_box""]",,,,,,,,,,,,bleachers8.jpg,space,6.8,[-0.1994572591587517],[-0.2883310719131615],[1],[0],[0],[5.899999999999864],"[""trial_slight_left_box""]",0,32,32,15,1,bambooforest4.jpg,cafeteria5.jpg,cabinIndoors.jpg,bar8.jpg,,
Image_List_3,,,,,,,,,,,,,,,,44149,2020-11-12_17h58.46.359,lingCatScenes,2020.1.3,MacIntel,60,"[1280,737]",,,"[""trial_ahead_box""]",,,,,,,,,,,,promenadeDeck2.jpg,space,2.112,"[-0.0067842605156037995,-0.0067842605156037995]","[-0.26797829036635007,-0.29240162822252375]","[1,1]","[0,0]","[0,0]","[1.365000000000009,1.7989999999999782]","[""trial_ahead_box""]",0,33,33,81,1,promenadeDeck.jpg,ruralroad5.jpg,rainforest5.jpg,pasture8.jpg,,
Image_List_3,,,,,,,,,,,,,,,,44149,2020-11-12_17h58.46.359,lingCatScenes,2020.1.3,MacIntel,60,"[1280,737]",,,"[""trial_slight_right_box"",""trial_slight_left_box""]",,,,,,,,,,,,sculpturegarden4.jpg,space,4.752,"[0.18181818181818182,-0.208955223880597]","[-0.28697421981004073,-0.2937584803256445]","[1,1]","[0,0]","[0,0]","[3.2630000000001473,4.163000000000011]","[""trial_slight_right_box"",""trial_slight_left_box""]",0,34,34,88,1,rooftop1.jpg,track.jpg,soccerfield.jpg,sandbox.jpg,,
Image_List_3,,,,,,,,,,,,,,,,44149,2020-11-12_17h58.46.359,lingCatScenes,2020.1.3,MacIntel,60,"[1280,737]",,,[],,,,,,,,,,,,skatepark7.jpg,space,101.05,[],[],[],[],[],[],[],0,35,35,92,1,staircase.jpg,volleyballcourt.jpg,tvstudio2.jpg,soccerfield2.jpg,,
Image_List_3,,,,,,,,,,,,,,,,44149,2020-11-12_17h58.46.359,lingCatScenes,2020.1.3,MacIntel,60,"[1280,737]",,,"[""trial_slight_right_box""]",,,,,,,,,,,,brewery4.jpg,space,37.087,"[0.18724559023066487,0.19131614654002713,0.18860244233378562,0.21438263229308005]","[-0.3656716417910448,-0.34260515603799185,-0.32632293080054275,-0.28968792401628224]","[1,1,1,1]","[0,0,0,0]","[0,0,0,0]","[34.746999999999844,35.131999999999834,35.631999999999834,36.298]","[""trial_slight_right_box""]",0,36,36,18,1,bleachers5.jpg,casino1.jpg,castle2.jpg,basement6.jpg,,
Image_List_3,,,,,,,,,,,,,,,,44149,2020-11-12_17h58.46.359,lingCatScenes,2020.1.3,MacIntel,60,"[1280,737]",,,"[""trial_right_box"",""trial_left_box""]",,,,,,,,,,,,playground9.jpg,space,7.664,"[0.37720488466757124,-0.17639077340569878,-0.3989145183175034]","[-0.3005427408412483,-0.2706919945725916,-0.3208955223880597]","[1,1,1]","[0,0,0]","[0,0,0]","[4.667000000000144,5.933999999999969,7.218000000000075]","[""trial_right_box"",""trial_left_box""]",0,37,37,79,1,pasture.jpg,poolhall2.jpeg,pier2.jpg,observatory2.jpg,,
Image_List_3,,,,,,,,,,,,,,,,44149,2020-11-12_17h58.46.359,lingCatScenes,2020.1.3,MacIntel,60,"[1280,737]",,,"[""trial_ahead_box""]",,,,,,,,,,,,sidewalk1.jpg,space,3.396,[0.024423337856173677],[-0.29240162822252375],[1],[0],[0],[3.048000000000002],"[""trial_ahead_box""]",0,38,38,90,1,savanna5.jpg,trainStation1.jpg,stripmall3.jpg,shoestore4.jpg,,
Image_List_3,,,,,,,,,,,,,,,,44149,2020-11-12_17h58.46.359,lingCatScenes,2020.1.3,MacIntel,60,"[1280,737]",,,"[""trial_right_box"",""trial_slight_left_box""]",,,,,,,,,,,,courthouse2.jpg,space,7.514,"[0.4043419267299864,-0.21438263229308005]","[-0.32360922659430125,-0.30597014925373134]","[1,1]","[0,0]","[0,0]","[6.2990000000002055,7.132000000000062]","[""trial_right_box"",""trial_slight_left_box""]",0,39,39,33,1,deck1.jpg,diningroom1.jpg,diner10.jpg,cabinIndoors5.jpg,,
Image_List_3,,,,,,,,,,,,,,,,44149,2020-11-12_17h58.46.359,lingCatScenes,2020.1.3,MacIntel,60,"[1280,737]",,,"[""trial_sharp_left_box""]",,,,,,,,,,,,conference4.jpg,space,3.528,[-0.621438263229308],[-0.291044776119403],[1],[0],[0],[2.064000000000078],"[""trial_sharp_left_box""]",0,40,40,31,1,cubicle4.jpg,desertvegetation6.jpg,courtroom2.jpg,cabin3.jpg,,
Image_List_3,,,,,,,,,,,,,,,,44149,2020-11-12_17h58.46.359,lingCatScenes,2020.1.3,MacIntel,60,"[1280,737]",,,"[""trial_right_box"",""trial_left_box""]",,,,,,,,,,,,courthouse4.jpg,space,10.328,"[0.2198100407055631,0.22930800542740842,0.18181818181818182,0.40027137042062416,-0.18453188602442333,-0.18453188602442333,-0.3989145183175034]","[-0.324966078697422,-0.29511533242876525,-0.3018995929443691,-0.2937584803256445,-0.31546811397557667,-0.31546811397557667,-0.29918588873812757]","[1,1,1,1,1,1,1]","[0,0,0,0,0,0,0]","[0,0,0,0,0,0,0]","[4.08199999999988,5.898999999999887,6.899999999999864,8.233999999999924,9.051999999999907,9.40099999999984,10.117999999999938]","[""trial_slight_right_box"",""trial_slight_right_box"",""trial_right_box"",""trial_slight_left_box"",""trial_slight_left_box"",""trial_left_box""]",0,41,41,34,1,deck4.jpg,diningroom5.jpg,diner11.jpg,campusquad1.jpg,,
Image_List_3,,,,,,,,,,,,,,,,44149,2020-11-12_17h58.46.359,lingCatScenes,2020.1.3,MacIntel,60,"[1280,737]",,,"[""trial_left_box""]",,,,,,,,,,,,ballroom4.jpg,space,8.984,"[-0.04613297150610583,-0.3812754409769335]","[-0.34531886024423336,-0.29782903663500676]","[1,1]","[0,0]","[0,0]","[4.198000000000093,7.701000000000022]","[""trial_left_box""]",0,42,42,10,1,backstage2.jpg,barbershop3.jpg,basketballcourt3.jpg,ATM4.jpg,,
Image_List_3,,,,,,,,,,,,,,,,44149,2020-11-12_17h58.46.359,lingCatScenes,2020.1.3,MacIntel,60,"[1280,737]",,,"[""trial_ahead_box"",""trial_slight_right_box""]",,,,,,,,,,,,staircase6.jpg,space,5.147,"[0.012211668928086838,0.24423337856173677,0.19810040705563092]","[-0.28154681139755766,-0.2937584803256445,-0.30597014925373134]","[1,1,1]","[0,0,0]","[0,0,0]","[1.6479999999996835,4.065999999999576,4.830999999999676]","[""trial_ahead_box"",""trial_slight_right_box""]",0,43,43,94,1,treehouse.jpg,waitingroom3.jpg,weightroom.jpg,trainStation3.jpg,,
Image_List_3,,,,,,,,,,,,,,,,44149,2020-11-12_17h58.46.359,lingCatScenes,2020.1.3,MacIntel,60,"[1280,737]",,,"[""trial_ahead_box"",""trial_left_box"",""trial_right_box""]",,,,,,,,,,,,gazebo5.jpg,space,7.803,"[-0.023066485753052916,-0.33514246947082765,-0.37720488466757124,0.4056987788331072,0.40298507462686567]","[-0.2856173677069199,-0.29782903663500676,-0.3046132971506106,-0.3276797829036635,-0.30325644504748983]","[1,1,1,1,1]","[0,0,0,0,0]","[0,0,0,0,0]","[2.647999999999911,4.399000000000115,4.716000000000122,6.732999999999947,7.468000000000075]","[""trial_ahead_box"",""trial_left_box"",""trial_right_box""]",0,44,44,55,1,greenmountains.jpg,hotelRoom3.jpg,hotelRoom7.jpg,frontLawn2.jpg,,
Image_List_3,,,,,,,,,,,,,,,,44149,2020-11-12_17h58.46.359,lingCatScenes,2020.1.3,MacIntel,60,"[1280,737]",,,"[""trial_slight_right_box""]",,,,,,,,,,,,homegarage.jpg,space,3.643,[0.18588873812754408],[-0.29918588873812757],[1],[0],[0],[2.882000000000062],"[""trial_slight_right_box""]",0,45,45,60,1,hometheater2.jpg,lightingstore3.jpg,kindergarten_classroom6.jpg,hallway.jpg,,
Image_List_3,,,,,,,,,,,,,,,,44149,2020-11-12_17h58.46.359,lingCatScenes,2020.1.3,MacIntel,60,"[1280,737]",,,"[""trial_left_box""]",,,,,,,,,,,,observatory4.jpeg,space,2.337,[-0.412483039348711],[-0.28697421981004073],[1],[0],[0],[1.6800000000000637],"[""trial_left_box""]",0,46,46,74,1,newsstand2.jpg,playground10.jpg,operatingroom1.jpg,lightingstore2.jpg,,
Image_List_3,,,,,,,,,,,,,,,,44149,2020-11-12_17h58.46.359,lingCatScenes,2020.1.3,MacIntel,60,"[1280,737]",,,"[""trial_slight_left_box""]",,,,,,,,,,,,cliff2.jpg,space,332.816,"[0.018995929443690638,-0.18724559023066487,-0.012211668928086838,0.0067842605156037995,-0.009497964721845319]","[-0.29782903663500676,-0.30597014925373134,-0.3385345997286296,-0.330393487109905,-0.29240162822252375]","[1,1,1,1,1]","[0,0,0,0,0]","[0,0,0,0,0]","[329.432,330.9150000000002,331.41600000000017,331.933,332.38300000000004]","[""trial_ahead_box"",""trial_slight_left_box"",""trial_ahead_box""]",0,47,47,29,1,cornfield2.jpg,deck2.jpg,constructionSite4.jpg,bridalboutique3.jpg,,
Image_List_3,,,,,,,,,,,,,,,,44149,2020-11-12_17h58.46.359,lingCatScenes,2020.1.3,MacIntel,60,"[1280,737]",,,"[""trial_slight_left_box""]",,,,,,,,,,,,jewelrystore8.jpg,space,3.304,[-0.1926729986431479],[-0.27883310719131615],[1],[0],[0],[2.831000000000131],"[""trial_slight_left_box""]",0,48,48,64,1,igloo2.jpg,newsstand5.jpg,lab5.jpg,homegarage2.jpg,,
Image_List_3,,,,,,,,,,,,,,,,44149,2020-11-12_17h58.46.359,lingCatScenes,2020.1.3,MacIntel,60,"[1280,737]",,,"[""trial_right_box"",""trial_ahead_box""]",,,,,,,,,,,,frontFoyer6.jpg,space,3.87,"[0.383989145183175,0.0013568521031207597]","[-0.31953867028493893,-0.30868385345997285]","[1,1]","[0,0]","[0,0]","[2.1159999999999854,3.1669999999999163]","[""trial_right_box"",""trial_ahead_box""]",0,49,49,52,1,gasstation7.jpg,hardwarestore1.jpg,highway.jpg,forestpath2.jpg,,
Image_List_3,,,,,,,,,,,,,,,,44149,2020-11-12_17h58.46.359,lingCatScenes,2020.1.3,MacIntel,60,"[1280,737]",,,"[""trial_slight_right_box""]",,,,,,,,,,,,cave6.jpg,space,4.768,[0.21709633649932158],[-0.29918588873812757],[1],[0],[0],[2.9170000000001437],"[""trial_slight_right_box""]",0,50,50,24,1,campsite.jpg,cliff3.jpg,cemetery5.jpg,boardwalk.jpg,,
Image_List_3,,,,,,,,,,,,,,,,44149,2020-11-12_17h58.46.359,lingCatScenes,2020.1.3,MacIntel,60,"[1280,737]",,,"[""trial_ahead_box""]",,,,,,,,,,,,hallway4.jpg,space,1.452,[-0.0203527815468114],[-0.291044776119403],[1],[0],[0],[0.9649999999999181],"[""trial_ahead_box""]",0,51,51,57,1,hayfield5.jpg,jail1.jpg,hut5.jpg,gazebo.jpg,,
Image_List_3,,,,,,,,,,,,,,,,44149,2020-11-12_17h58.46.359,lingCatScenes,2020.1.3,MacIntel,60,"[1280,737]",,,"[""trial_slight_left_box""]",,,,,,,,,,,,laundromat4.jpg,space,1.794,[-0.2062415196743555],[-0.3073270013568521],[1],[0],[0],[1.3489999999999327],"[""trial_slight_left_box""]",0,52,52,67,1,library_aisle3.jpg,park7.jpg,liquorstore2.jpg,hospitalroom2.jpg,,
Image_List_3,,,,,,,,,,,,,,,,44149,2020-11-12_17h58.46.359,lingCatScenes,2020.1.3,MacIntel,60,"[1280,737]",,,"[""trial_slight_right_box""]",,,,,,,,,,,,promenadeDeck6.jpg,space,3.203,[0.2198100407055631],[-0.31275440976933516],[1],[0],[0],[2.231999999999971],"[""trial_slight_right_box""]",0,53,53,83,1,readingroom1.jpg,sculpturegarden1.jpg,restaurant8.jpg,readingroom2.jpg,,
Image_List_3,,,,,,,,,,,,,,,,44149,2020-11-12_17h58.46.359,lingCatScenes,2020.1.3,MacIntel,60,"[1280,737]",,,"[""trial_ahead_box""]",,,,,,,,,,,,frontDoor5.jpg,space,1.532,[0],[-0.30868385345997285],[1],[0],[0],[1.2660000000000764],"[""trial_ahead_box""]",0,54,54,51,1,gasstation6.jpg,hallway5.jpg,hayfield4.jpg,firestation5.jpg,,
Image_List_3,,,,,,,,,,,,,,,,44149,2020-11-12_17h58.46.359,lingCatScenes,2020.1.3,MacIntel,60,"[1280,737]",,,"[""trial_slight_right_box""]",,,,,,,,,,,,fittingroom5.jpg,space,2.235,[0.1994572591587517],[-0.32225237449118044],[1],[0],[0],[1.8979999999999109],"[""trial_slight_right_box""]",0,55,55,48,1,frontDoor2.jpg,golfcourse6.jpg,golfcourse7.jpg,fabricstore2.jpg,,
Image_List_3,,,,,,,,,,,,,,,,44149,2020-11-12_17h58.46.359,lingCatScenes,2020.1.3,MacIntel,60,"[1280,737]",,,"[""trial_sharp_right_box""]",,,,,,,,,,,,dugout2.jpg,space,5.038,"[0.41112618724559025,0.6132971506105834,0.40027137042062416,0.40027137042062416]","[-0.3100407055630936,-0.28426051560379917,-0.2693351424694708,-0.29918588873812757]","[1,1,1,1]","[0,0,0,0]","[0,0,0,0]","[2.1979999999998654,3.41599999999994,4,4.765999999999849]","[""trial_right_box"",""trial_sharp_right_box"",""trial_right_box""]",0,56,56,43,1,exerciseequipment5.jpg,forestpath10.jpg,foodcourt.jpg,diningroom3.jpg,,
Image_List_3,,,,,,,,,,,,,,,,44149,2020-11-12_17h58.46.359,lingCatScenes,2020.1.3,MacIntel,60,"[1280,737]",,,"[""trial_ahead_box""]",,,,,,,,,,,,elevatorOutside1.jpg,space,4.85,"[-0.029850746268656716,-0.0027137042062415195,-0.0027137042062415195]","[-0.3141112618724559,-0.32632293080054275,-0.324966078697422]","[1,1,1]","[0,0,0]","[0,0,0]","[3.3799999999998818,3.9279999999998836,4.494999999999891]","[""trial_ahead_box""]",0,57,57,44,1,firestation2.jpg,frontFoyer4.jpg,foodcourt6.jpg,dock2.jpg,,
Image_List_3,,,,,,,,,,,,,,,,44149,2020-11-12_17h58.46.359,lingCatScenes,2020.1.3,MacIntel,60,"[1280,737]",,,"[""trial_ahead_box""]",,,,,,,,,,,,churchInside4.jpg,space,1.263,[-0.005427408412483039],[-0.3100407055630936],[1],[0],[0],[0.8479999999999563],"[""trial_ahead_box""]",0,58,58,27,1,castle3.jpg,courtroom3.jpg,closet.jpg,brewery2.jpg,,
Image_List_3,,,,,,,,,,,,,,,,44149,2020-11-12_17h58.46.359,lingCatScenes,2020.1.3,MacIntel,60,"[1280,737]",,,"[""trial_ahead_box""]",,,,,,,,,,,,breakroom4.jpg,space,5.066,[-0.016282225237449117],[-0.2801899592944369],[1],[0],[0],[4.650000000000091],"[""trial_ahead_box""]",0,59,59,17,1,bikerack1.jpg,campsite6.jpg,carmechanic.jpg,baseball6.jpg,,
Image_List_3,,,,,,,,,,,,,,,,44149,2020-11-12_17h58.46.359,lingCatScenes,2020.1.3,MacIntel,60,"[1280,737]",,,"[""trial_ahead_box""]",,,,,,,,,,,,dining_car3.jpg,space,1.931,[0.023066485753052916],[-0.28697421981004073],[1],[0],[0],[1.09699999999998],"[""trial_ahead_box""]",0,60,60,36,1,diner14.jpg,dormroom9.jpg,doctor1.jpg,checkoutcounter9.jpg,,
Image_List_3,,,,,,,,,,,,,,,,44149,2020-11-12_17h58.46.359,lingCatScenes,2020.1.3,MacIntel,60,"[1280,737]",,,"[""trial_ahead_box"",""trial_left_box"",""trial_right_box""]",,,,,,,,,,,,highway4.jpg,space,10.168,"[0.021709633649932156,-0.18860244233378562,-0.18860244233378562,-0.19810040705563092,-0.19810040705563092,-0.3989145183175034,-0.373134328358209,0.383989145183175]","[-0.28697421981004073,-0.3113975576662144,-0.3113975576662144,-0.3113975576662144,-0.3113975576662144,-0.3018995929443691,-0.2937584803256445,-0.29918588873812757]","[1,1,1,1,1,1,1,1]","[0,0,0,0,0,0,0,0]","[0,0,0,0,0,0,0,0]","[3.6649999999999636,4.5,4.982999999999947,5.399999999999864,5.766000000000076,6.282999999999902,8.285000000000082,9.60200000000009]","[""trial_ahead_box"",""trial_slight_left_box"",""trial_slight_left_box"",""trial_slight_left_box"",""trial_slight_left_box"",""trial_left_box"",""trial_right_box""]",0,61,61,59,1,homegarden7.jpg,library_aisle8.jpg,kindergarten_classroom5.jpg,grocerystore3.jpg,,
Image_List_3,,,,,,,,,,,,,,,,44149,2020-11-12_17h58.46.359,lingCatScenes,2020.1.3,MacIntel,60,"[1280,737]",,,"[""trial_slight_right_box"",""trial_slight_left_box""]",,,,,,,,,,,,laundromat2.jpeg,space,3.369,"[0.14654002713704206,0.21438263229308005,-0.18995929443690637]","[-0.28426051560379917,-0.30325644504748983,-0.29511533242876525]","[1,1,1]","[0,0,0]","[0,0,0]","[1.9649999999999181,2.380999999999858,3.0989999999999327]","[""trial_slight_right_box"",""trial_slight_left_box""]",0,62,62,65,1,igloo5.jpg,newsstand7.jpg,labClass7.jpg,homeoffice8.jpg,,
Image_List_3,,,,,,,,,,,,,,,,44149,2020-11-12_17h58.46.359,lingCatScenes,2020.1.3,MacIntel,60,"[1280,737]",,,"[""trial_slight_right_box"",""trial_slight_left_box""]",,,,,,,,,,,,horsebarn8.jpg,space,4.851,"[0.013568521031207599,0.04748982360922659,0.0203527815468114,0.208955223880597,-0.23066485753052918,-0.19674355495251017]","[-0.2937584803256445,-0.28697421981004073,-0.28697421981004073,-0.28697421981004073,-0.2883310719131615,-0.28968792401628224]","[1,1,1,1,1,1]","[0,0,0,0,0,0]","[0,0,0,0,0,0]","[1.397000000000162,3.0980000000001837,3.3990000000001146,3.7480000000000473,4.249000000000251,4.582000000000107]","[""trial_ahead_box"",""trial_ahead_box"",""trial_slight_right_box"",""trial_slight_left_box""]",0,63,63,62,1,hotellobby2.jpg,minigolf.jpg,lab3.jpg,hayfield7.jpg,,
Image_List_3,,,,,,,,,,,,,,,,44149,2020-11-12_17h58.46.359,lingCatScenes,2020.1.3,MacIntel,60,"[1280,737]",,,"[""trial_slight_right_box""]",,,,,,,,,,,,operatingroom4.jpg,space,4.437,"[0.17096336499321574,0.1791044776119403]","[-0.33175033921302577,-0.324966078697422]","[1,1]","[0,0]","[0,0]","[3.1649999999999636,3.481999999999971]","[""trial_slight_right_box""]",0,64,64,75,1,pantry5.jpg,playground6.jpg,park.jpg,lockerroom.jpg,,
Image_List_3,,,,,,,,,,,,,,,,44149,2020-11-12_17h58.46.359,lingCatScenes,2020.1.3,MacIntel,60,"[1280,737]",,,"[""trial_ahead_box"",""trial_right_box""]",,,,,,,,,,,,ruralroad2.jpg,space,5.736,"[-0.010854816824966078,0.4287652645861601,0.41655359565807326,0.4151967435549525]","[-0.31275440976933516,-0.33717774762550884,-0.330393487109905,-0.324966078697422]","[1,1,1,1]","[0,0,0,0]","[0,0,0,0]","[1.0650000000000546,4.150000000000091,4.932999999999993,5.41599999999994]","[""trial_ahead_box"",""trial_right_box""]",0,65,65,85,1,recordingstudio4.jpg,sidewalk5.jpg,sandDunes_desert_outdoor3.jpg,rooftop3.jpg,,
Image_List_3,,,,,,,,,,,,,,,,44149,2020-11-12_17h58.46.359,lingCatScenes,2020.1.3,MacIntel,60,"[1280,737]",,,"[""trial_ahead_box""]",,,,,,,,,,,,golfcourse10.jpg,space,5.036,"[-0.048846675712347354,0]","[-0.3181818181818182,-0.31546811397557667]","[1,1]","[0,0]","[0,0]","[2.831000000000131,3.3150000000000546]","[""trial_ahead_box""]",0,66,66,56,1,grocerystore5.jpg,hut3.jpg,hut1.jpg,gasstation2.jpg,,
Image_List_3,,,,,,,,,,,,,,,,44149,2020-11-12_17h58.46.359,lingCatScenes,2020.1.3,MacIntel,60,"[1280,737]",,,"[""trial_ahead_box""]",,,,,,,,,,,,hotelRoom2.jpg,space,1.461,[0.013568521031207599],[-0.2883310719131615],[1],[0],[0],[1.1309999999998581],"[""trial_ahead_box""]",0,67,67,63,1,hut2.jpg,museum6.jpg,lab4.jpg,highway2.jpg,,
Image_List_3,,,,,,,,,,,,,,,,44149,2020-11-12_17h58.46.359,lingCatScenes,2020.1.3,MacIntel,60,"[1280,737]",,,"[""trial_ahead_box""]",,,,,,,,,,,,ballroom2.jpg,space,1.213,[0.0067842605156037995],[-0.29918588873812757],[1],[0],[0],[0.7480000000000473],"[""trial_ahead_box""]",0,68,68,9,1,auto_showroom3.jpg,bar2.jpg,basement5.jpg,arcade2.jpg,,
Image_List_3,,,,,,,,,,,,,,,,44149,2020-11-12_17h58.46.359,lingCatScenes,2020.1.3,MacIntel,60,"[1280,737]",,,"[""trial_ahead_box"",""trial_sharp_left_box"",""trial_sharp_right_box""]",,,,,,,,,,,,drymountains3.jpg,space,8.187,"[0.024423337856173677,-0.6037991858887382,0.5943012211668928]","[-0.3100407055630936,-0.28697421981004073,-0.29782903663500676]","[1,1,1]","[0,0,0]","[0,0,0]","[2.9139999999999873,5.948999999999842,7.648999999999887]","[""trial_ahead_box"",""trial_sharp_left_box"",""trial_sharp_right_box""]",0,69,69,41,1,dugout4.jpg,farm3.jpg,fabricstore1.jpg,dentist2.jpg,,
Image_List_3,,,,,,,,,,,,,,,,44149,2020-11-12_17h58.46.359,lingCatScenes,2020.1.3,MacIntel,60,"[1280,737]",,,"[""trial_ahead_box"",""trial_slight_right_box"",""trial_right_box"",""trial_slight_left_box""]",,,,,,,,,,,,hedgemaze1.jpg,space,27.911,"[-0.012211668928086838,0.18181818181818182,0.3948439620081411,-0.1994572591587517,-0.20352781546811397]","[-0.29782903663500676,-0.29782903663500676,-0.296472184531886,-0.2747625508819539,-0.30868385345997285]","[1,1,1,1,1]","[0,0,0,0,0]","[0,0,0,0,0]","[16.404999999999745,18.6899999999996,19.48999999999978,21.55699999999979,22.45799999999963]","[""trial_ahead_box"",""trial_slight_right_box"",""trial_right_box"",""trial_slight_left_box""]",0,70,70,58,1,highway7.jpg,lab1.jpg,igloo4.jpg,grocerystore2.jpg,,
Image_List_3,,,,,,,,,,,,,,,,44149,2020-11-12_17h58.46.359,lingCatScenes,2020.1.3,MacIntel,60,"[1280,737]",,,"[""trial_ahead_box""]",,,,,,,,,,,,dock1.jpg,space,2.285,"[0.018995929443690638,0.0027137042062415195]","[-0.3439620081411126,-0.296472184531886]","[1,1]","[0,0]","[0,0]","[1.665000000000191,2.0310000000001764]","[""trial_ahead_box""]",0,71,71,38,1,dining_car2.jpg,elevatorOutside4.jpg,driveway8.jpg,classroom1.jpg,,
Image_List_3,,,,,,,,,,,,,,,,44149,2020-11-12_17h58.46.359,lingCatScenes,2020.1.3,MacIntel,60,"[1280,737]",,,"[""trial_sharp_right_box"",""trial_slight_left_box""]",,,,,,,,,,,,factory1.jpg,space,29.042,"[0.587516960651289,-0.18588873812754408]","[-0.29918588873812757,-0.291044776119403]","[1,1]","[0,0]","[0,0]","[2.8489999999999327,6.817999999999984]","[""trial_sharp_right_box"",""trial_slight_left_box""]",0,72,72,45,1,fittingroom2.jpg,frontFoyer7.jpg,forestpath4.jpg,dock4.jpg,,
Image_List_3,,,,,,,,,,,,,,,,44149,2020-11-12_17h58.46.359,lingCatScenes,2020.1.3,MacIntel,60,"[1280,737]",,,"[""trial_left_box""]",,,,,,,,,,,,drymountains6.jpg,space,3.016,[-0.40027137042062416],[-0.2829036635006784],[1],[0],[0],[2.564000000000078],"[""trial_left_box""]",0,73,73,42,1,exerciseequipment3.jpg,firestation3.jpg,farm4.jpg,desertvegetation2.jpg,,
Image_List_3,,,,,,,,,,,,,,,,44149,2020-11-12_17h58.46.359,lingCatScenes,2020.1.3,MacIntel,60,"[1280,737]",,,"[""trial_sharp_right_box""]",,,,,,,,,,,,drycleaners6.jpg,space,3.621,[0.5956580732700135],[-0.3100407055630936],[1],[0],[0],[3.316000000000031],"[""trial_sharp_right_box""]",0,74,74,39,1,driveway6.jpg,eyeglassstore9.jpg,drymountains5.jpg,cliff5.jpg,,
Image_List_3,,,,,,,,,,,,,,,,44149,2020-11-12_17h58.46.359,lingCatScenes,2020.1.3,MacIntel,60,"[1280,737]",,,"[""trial_right_box""]",,,,,,,,,,,,clothingstore2.jpg,space,2.266,[0.3948439620081411],[-0.30868385345997285],[1],[0],[0],[1.981999999999971],"[""trial_right_box""]",0,75,75,30,1,courthouse1.jpg,desertvegetation3.jpg,copyroom2.jpg,bus_shelter3.jpg,,
Image_List_3,,,,,,,,,,,,,,,,44149,2020-11-12_17h58.46.359,lingCatScenes,2020.1.3,MacIntel,60,"[1280,737]",,,"[""trial_slight_right_box"",""trial_slight_left_box"",""trial_ahead_box""]",,,,,,,,,,,,gazebo2.jpg,space,4.101,"[0.19674355495251017,-0.16960651289009498,-0.18995929443690637,-0.009497964721845319,-0.009497964721845319]","[-0.28697421981004073,-0.3181818181818182,-0.28697421981004073,-0.33175033921302577,-0.3141112618724559]","[1,1,1,1,1]","[0,0,0,0,0]","[0,0,0,0,0]","[1.5490000000002055,2.2490000000000236,2.8330000000000837,3.25,3.8500000000001364]","[""trial_slight_right_box"",""trial_slight_left_box"",""trial_ahead_box""]",0,76,76,54,1,greenhouse2.jpg,horsebarn11.jpg,homegarage4.jpg,frontFoyer.jpg,,
Image_List_3,,,,,,,,,,,,,,,,44149,2020-11-12_17h58.46.359,lingCatScenes,2020.1.3,MacIntel,60,"[1280,737]",,,"[""trial_slight_right_box""]",,,,,,,,,,,,promenadeDeck3.jpg,space,2.17,"[0.20081411126187246,0.19131614654002713]","[-0.33717774762550884,-0.2856173677069199]","[1,1]","[0,0]","[0,0]","[1.4990000000000236,1.8820000000000618]","[""trial_slight_right_box""]",0,77,77,82,1,publicrestroom2.jpg,sandDunes_desert_outdoor9.jpg,readingroom4.jpg,postoffice4.jpg,,
Image_List_3,,,,,,,,,,,,,,,,44149,2020-11-12_17h58.46.359,lingCatScenes,2020.1.3,MacIntel,60,"[1280,737]",,,"[""trial_slight_left_box""]",,,,,,,,,,,,livingroom.jpg,space,2.837,[-0.17503392130257803],[-0.3005427408412483],[1],[0],[0],[2.1140000000000327],"[""trial_slight_left_box""]",0,78,78,69,1,liquorstore8.jpg,parkinglot2.jpg,metroInside1.jpg,icecream2.jpg,,
Image_List_3,,,,,,,,,,,,,,,,44149,2020-11-12_17h58.46.359,lingCatScenes,2020.1.3,MacIntel,60,"[1280,737]",,,"[""trial_sharp_left_box""]",,,,,,,,,,,,savanna.jpg,space,17.274,"[0.0027137042062415195,0.0027137042062415195,-0.6092265943012212,-0.6037991858887382]","[-0.30325644504748983,-0.30325644504748983,-0.3276797829036635,-0.3100407055630936]","[1,1,1,1]","[0,0,0,0]","[0,0,0,0]","[1.0330000000001291,1.6990000000000691,16.489000000000033,16.907000000000153]","[""trial_ahead_box"",""trial_ahead_box"",""trial_sharp_left_box""]",0,79,79,87,1,restaurantkitchen2.jpg,theater2.jpg,sculpturegarden2.jpg,RVinside2.jpg,,
Image_List_3,,,,,,,,,,,,,,,,44149,2020-11-12_17h58.46.359,lingCatScenes,2020.1.3,MacIntel,60,"[1280,737]",,,"[""trial_slight_left_box"",""trial_right_box""]",,,,,,,,,,,,dinosaur4.jpg,space,14.741,"[0.1546811397557666,0.2021709633649932,-0.23066485753052918,-0.1994572591587517,0.20081411126187246,0.40027137042062416]","[-0.3208955223880597,-0.31275440976933516,-0.29918588873812757,-0.29918588873812757,-0.3100407055630936,-0.3168249660786974]","[1,1,1,1,1,1]","[0,0,0,0,0,0]","[0,0,0,0,0,0]","[1.8460000000000036,2.1959999999999127,4.097999999999956,4.564000000000078,5.298999999999978,6.214999999999918]","[""trial_slight_right_box"",""trial_slight_left_box"",""trial_slight_right_box"",""trial_right_box""]",0,80,80,37,1,dining_car.jpg,driveway4.jpg,driveway7.jpg,citystreet9.jpg,,
Image_List_3,,,,,,,,,,,,,,,,44149,2020-11-12_17h58.46.359,lingCatScenes,2020.1.3,MacIntel,60,"[1280,737]",,,[],,,,,,,,,,,,applestore1.jpg,space,0.047,[],[],[],[],[],[],[],0,81,81,1,1,airportTerminal4.jpg,apartmentBuilding1.jpg,airportTerminal3.jpg,airportTerminal2.jpg,,
Image_List_3,,,,,,,,,,,,,,,,44149,2020-11-12_17h58.46.359,lingCatScenes,2020.1.3,MacIntel,60,"[1280,737]",,,"[""trial_sharp_right_box"",""trial_sharp_left_box""]",,,,,,,,,,,,church4.jpg,space,16.486,"[0.40705563093622793,-0.4206241519674355,0.6051560379918589,0.5834464043419267,0.5848032564450475,-0.6295793758480326,-0.5848032564450475,-0.3853459972862958,0.3921302578018996]","[-0.3005427408412483,-0.29240162822252375,-0.2747625508819539,-0.34260515603799185,-0.3141112618724559,-0.296472184531886,-0.29782903663500676,-0.2829036635006784,-0.29782903663500676]","[1,1,1,1,1,1,1,1,1]","[0,0,0,0,0,0,0,0,0]","[0,0,0,0,0,0,0,0,0]","[3.3489999999999327,4.83199999999988,6.783999999999878,7.349999999999909,7.716999999999871,8.832999999999856,9.417999999999893,11.118999999999915,12.019000000000005]","[""trial_right_box"",""trial_left_box"",""trial_sharp_right_box"",""trial_sharp_left_box"",""trial_left_box"",""trial_right_box""]",0,82,82,26,1,campusquad2.jpg,cornfield4.jpg,churchInside3.jpg,botanicalGarden7.jpg,,
Image_List_3,,,,,,,,,,,,,,,,44149,2020-11-12_17h58.46.359,lingCatScenes,2020.1.3,MacIntel,60,"[1280,737]",,,"[""trial_sharp_right_box"",""trial_left_box""]",,,,,,,,,,,,skatepark5.jpg,space,18.157,"[0.6160108548168249,-0.39755766621438265]","[-0.3141112618724559,-0.29918588873812757]","[1,1]","[0,0]","[0,0]","[14.006000000000085,17.47400000000016]","[""trial_sharp_right_box"",""trial_left_box""]",0,83,83,91,1,shoestore2.jpg,trainStation5.jpg,ticket_counter6.jpg,sidewalk3.jpg,,
Image_List_3,,,,,,,,,,,,,,,,44149,2020-11-12_17h58.46.359,lingCatScenes,2020.1.3,MacIntel,60,"[1280,737]",,,"[""trial_slight_right_box"",""trial_sharp_right_box""]",,,,,,,,,,,,citystreet10.jpg,space,53.558,"[0.2198100407055631,0.6146540027137042,-0.576662143826323,-0.576662143826323]","[-0.2883310719131615,-0.28426051560379917,-0.29782903663500676,-0.29782903663500676]","[1,1,1,1]","[0,0,0,0]","[0,0,0,0]","[46.68500000000017,47.902000000000044,52.305000000000064,53.205000000000155]","[""trial_slight_right_box"",""trial_sharp_right_box"",""trial_sharp_left_box"",""trial_sharp_left_box""]",0,84,84,28,1,churchInside1.jpg,dancestudio5.jpg,clothingstore5.jpg,bridalboutique2.jpg,,
Image_List_3,,,,,,,,,,,,,,,,44149,2020-11-12_17h58.46.359,lingCatScenes,2020.1.3,MacIntel,60,"[1280,737]",,,"[""trial_right_box""]",,,,,,,,,,,,lockerroom3.jpg,space,2.714,[0.42198100407055633],[-0.296472184531886],[1],[0],[0],[1.7970000000000255],"[""trial_right_box""]",0,85,85,70,1,lockerroom4.jpg,pavilion.jpg,minigolf8.jpg,igloo.jpg,,
Image_List_3,,,,,,,,,,,,,,,,44149,2020-11-12_17h58.46.359,lingCatScenes,2020.1.3,MacIntel,60,"[1280,737]",,,"[""trial_slight_right_box""]",,,,,,,,,,,,cargo5.jpg,space,4.548,"[-0.017639077340569877,0.19538670284938942,-0.04206241519674356,0.008141112618724558]","[-0.29918588873812757,-0.3208955223880597,-0.28697421981004073,-0.30325644504748983]","[1,1,1,1]","[0,0,0,0]","[0,0,0,0]","[1.515999999999849,2.4169999999999163,2.765999999999849,3.2669999999998254]","[""trial_ahead_box"",""trial_slight_right_box"",""trial_ahead_box""]",0,86,86,22,1,bowlingalley5.jpg,church6.jpg,cemetery.jpg,bistrooutdoor6.jpg,,
Image_List_3,,,,,,,,,,,,,,,,44149,2020-11-12_17h58.46.359,lingCatScenes,2020.1.3,MacIntel,60,"[1280,737]",,,"[""trial_right_box"",""trial_left_box""]",,,,,,,,,,,,ShowJumping7.jpg,space,6.585,"[0.39620081411126185,-0.41655359565807326]","[-0.29240162822252375,-0.3113975576662144]","[1,1]","[0,0]","[0,0]","[4.414999999999964,6.267000000000053]","[""trial_right_box"",""trial_left_box""]",0,87,87,89,1,ruralroad7.jpg,track5.jpg,staircase7.jpg,sculpturegarden3.jpg,,
Image_List_3,,,,,,,,,,,,,,,,44149,2020-11-12_17h58.46.359,lingCatScenes,2020.1.3,MacIntel,60,"[1280,737]",,,"[""trial_slight_right_box""]",,,,,,,,,,,,farmersmarket4.jpg,space,31.05,[0.20352781546811397],[-0.30868385345997285],[1],[0],[0],[1.6309999999998581],"[""trial_slight_right_box""]",0,88,88,46,1,flowershop.jpg,frontLawn5.jpg,fountain4.jpg,dormroom6.jpg,,
Image_List_3,,,,,,,,,,,,,,,,44149,2020-11-12_17h58.46.359,lingCatScenes,2020.1.3,MacIntel,60,"[1280,737]",,,"[""trial_right_box""]",,,,,,,,,,,,backstage1.jpg,space,9.25,[0.39620081411126185],[-0.3046132971506106],[1],[0],[0],[5.917999999999665],"[""trial_right_box""]",0,89,89,7,1,attic2.jpg,banquetHall4.jpg,baggageClaim3.jpg,applestore2.jpg,,
Image_List_3,,,,,,,,,,,,,,,,44149,2020-11-12_17h58.46.359,lingCatScenes,2020.1.3,MacIntel,60,"[1280,737]",,,"[""trial_slight_right_box""]",,,,,,,,,,,,aquarium1.jpg,space,7.217,"[0.208955223880597,0.208955223880597]","[-0.3358208955223881,-0.3208955223880597]","[1,1]","[0,0]","[0,0]","[2.2840000000001055,2.9670000000000982]","[""trial_slight_right_box""]",0,90,90,3,1,apartmentBuilding2.jpg,attic1.jpg,appleorchard2.jpg,alley3.jpg,,
Image_List_3,,,,,,,,,,,,,,,,44149,2020-11-12_17h58.46.359,lingCatScenes,2020.1.3,MacIntel,60,"[1280,737]",,,"[""trial_right_box"",""trial_left_box"",""trial_slight_right_box""]",,,,,,,,,,,,church3.jpg,space,56.442,"[0.4016282225237449,0.3677069199457259,0.38670284938941657,0.417910447761194,-0.3853459972862958,0.19810040705563092]","[-0.3046132971506106,-0.3073270013568521,-0.29918588873812757,-0.291044776119403,-0.2856173677069199,-0.30325644504748983]","[1,1,1,1,1,1]","[0,0,0,0,0,0]","[0,0,0,0,0,0]","[51.221000000000004,52.221000000000004,52.77299999999968,53.972999999999956,55.073999999999614,55.822999999999865]","[""trial_right_box"",""trial_right_box"",""trial_right_box"",""trial_left_box"",""trial_slight_right_box""]",0,91,91,25,1,campsite7.jpg,conference3.jpg,checkoutcounter2.jpg,botanicalGarden4.jpg,,
Image_List_3,,,,,,,,,,,,,,,,44149,2020-11-12_17h58.46.359,lingCatScenes,2020.1.3,MacIntel,60,"[1280,737]",,,"[""trial_slight_right_box""]",,,,,,,,,,,,warehouse3.jpg,space,2.813,[0.21031207598371776],[-0.31546811397557667],[1],[0],[0],[2.231999999999971],"[""trial_slight_right_box""]",0,92,92,98,1,weightroom5.jpg,wineVineyard8.jpg,winebarrel4.jpg,winebarrel2.jpg,,
Image_List_3,,,,,,,,,,,,,,,,44149,2020-11-12_17h58.46.359,lingCatScenes,2020.1.3,MacIntel,60,"[1280,737]",,,"[""trial_left_box"",""trial_sharp_right_box""]",,,,,,,,,,,,firestation4.jpg,space,4.753,"[-0.4151967435549525,0.5753052917232022]","[-0.28154681139755766,-0.28968792401628224]","[1,1]","[0,0]","[0,0]","[2.399000000000342,4.416000000000167]","[""trial_left_box"",""trial_sharp_right_box""]",0,93,93,47,1,frontDoor.jpg,gasstation8.jpg,fountain7.jpg,elevatorOutside2.jpg,,
Image_List_3,,,,,,,,,,,,,,,,44149,2020-11-12_17h58.46.359,lingCatScenes,2020.1.3,MacIntel,60,"[1280,737]",,,"[""trial_ahead_box"",""trial_left_box""]",,,,,,,,,,,,ruralroad3.jpg,space,6.521,"[0.004070556309362279,-0.41655359565807326]","[-0.2856173677069199,-0.31275440976933516]","[1,1]","[0,0]","[0,0]","[3.66800000000012,6.217999999999847]","[""trial_ahead_box"",""trial_left_box""]",0,94,94,86,1,restaurant14.jpg,stripmall.jpg,sandDunes_desert_outdoor8.jpg,rooftop4.jpg,,
Image_List_3,,,,,,,,,,,,,,,,44149,2020-11-12_17h58.46.359,lingCatScenes,2020.1.3,MacIntel,60,"[1280,737]",,,"[""trial_left_box""]",,,,,,,,,,,,balconyIN.jpg,space,2.968,[-0.4151967435549525],[-0.30597014925373134],[1],[0],[0],[2.1970000000001164],"[""trial_left_box""]",0,95,95,8,1,attic3.jpg,banquetHall6.jpg,bar.jpg,applestore4.jpg,,
Image_List_3,,,,,,,,,,,,,,,,44149,2020-11-12_17h58.46.359,lingCatScenes,2020.1.3,MacIntel,60,"[1280,737]",,,"[""trial_ahead_box""]",,,,,,,,,,,,restaurant13.jpg,space,4.972,[-0.0013568521031207597],[-0.31546811397557667],[1],[0],[0],[4.583999999999833],"[""trial_ahead_box""]",0,96,96,84,1,readingroom5.jpg,sidewalk2.jpg,sandDunes_desert_outdoor.jpg,rooftop2.jpg,,
Image_List_3,,,,,,,,,,,,,,,,44149,2020-11-12_17h58.46.359,lingCatScenes,2020.1.3,MacIntel,60,"[1280,737]",,,"[""trial_slight_right_box""]",,,,,,,,,,,,auto_showroom4.jpg,space,4.05,"[0.3405698778833107,0.15739484396200815,0.18860244233378562]","[-0.3181818181818182,-0.3141112618724559,-0.32225237449118044]","[1,1,1]","[0,0,0]","[0,0,0]","[2.7330000000001746,3.2830000000003565,3.76700000000028]","[""trial_slight_right_box""]",0,97,97,5,1,artStudio3.jpg,bambooforest.jpg,attic4.jpg,amusement3.jpg,,
Image_List_3,,,,,,,,,,,,,,,,44149,2020-11-12_17h58.46.359,lingCatScenes,2020.1.3,MacIntel,60,"[1280,737]",,,"[""trial_slight_right_box""]",,,,,,,,,,,,auto_showroom5.jpg,space,1.711,[0.19810040705563092],[-0.31546811397557667],[1],[0],[0],[1.3809999999998581],"[""trial_slight_right_box""]",0,98,98,6,1,ATM1.jpg,banquetHall2.jpg,baggageClaim1.jpg,apartmentBuilding3.jpg,,
Image_List_3,,,,,,,,,,,,,,,,44149,2020-11-12_17h58.46.359,lingCatScenes,2020.1.3,MacIntel,60,"[1280,737]",,,"[""trial_slight_left_box""]",,,,,,,,,,,,applestore6.jpg,space,2.119,"[-0.23337856173677068,-0.2198100407055631]","[-0.28426051560379917,-0.28697421981004073]","[1,1]","[0,0]","[0,0]","[1.4639999999999418,1.8650000000006912]","[""trial_slight_left_box""]",0,99,99,2,1,alley1.jpg,arcade1.jpg,apartmentBuilding4.jpg,airportTerminal6.jpg,,
Image_List_3,,,,,,,,,,,,,,,,44149,2020-11-12_17h58.46.359,lingCatScenes,2020.1.3,MacIntel,60,,,,,,,,,,,,,,,,,,,,,,,,,,,,,,,,,,,space,22.604
