image_list,key_resp_intructions.keys,key_resp_intructions.rt,key_resp_intructions_3.keys,key_resp_intructions_3.rt,PracticeComplete_2.keys,PracticeComplete_2.rt,PracticeComplete_3.keys,PracticeComplete_3.rt,demo_trials.thisRepN,demo_trials.thisTrialN,demo_trials.thisN,demo_trials.thisIndex,demo_trials.ran,demo_images,path_images,participant,date,expName,psychopyVersion,OS,frameRate,windowSize,drawing,numDrawings,drawingSizes,practice_complete.keys,practice_complete.rt,PracticeComplete.keys,PracticeComplete.rt,practice_trials.thisRepN,practice_trials.thisTrialN,practice_trials.thisN,practice_trials.thisIndex,practice_trials.ran,practice_images,feedback_images,key_resp_intructions_2.keys,key_resp_intructions_2.rt,Image_List_2,trial_complete.keys,trial_complete.rt,trials.thisRepN,trials.thisTrialN,trials.thisN,trials.thisIndex,trials.ran,Image_List_1,Image_List_3,Image_List_4,Image_List_5,key_resp.keys,key_resp.rt
Image_List_2,space,4.968035,space,36.46001,space,14.562285,space,5.645815,0,0,0,1,1,ahead_left.jpg,ahead_left_path.jpg,44146,2020-11-17_19h00.26.858,analogCatScenes,2020.1.3,MacIntel,60,,,,,,,,,,,,,,,,,,,,,,,,,,,,,,,
Image_List_2,,,,,space,4.1667,space,0.402435,0,1,1,2,1,ahead_right.jpg,ahead_right_path.jpg,44146,2020-11-17_19h00.26.858,analogCatScenes,2020.1.3,MacIntel,60,,,,,,,,,,,,,,,,,,,,,,,,,,,,,,,
Image_List_2,,,,,space,1.26934,space,0.655615,0,2,2,3,1,ahead_right_left.jpg,ahead_right_left_path.jpg,44146,2020-11-17_19h00.26.858,analogCatScenes,2020.1.3,MacIntel,60,,,,,,,,,,,,,,,,,,,,,,,,,,,,,,,
Image_List_2,,,,,space,0.81256,space,0.491205,0,3,3,0,1,ahead.jpg,ahead_path.jpg,44146,2020-11-17_19h00.26.858,analogCatScenes,2020.1.3,MacIntel,60,,,,,,,,,,,,,,,,,,,,,,,,,,,,,,,
Image_List_2,,,,,space,0.578,space,0.39216,0,4,4,4,1,left.jpg,left_path.jpg,44146,2020-11-17_19h00.26.858,analogCatScenes,2020.1.3,MacIntel,60,,,,,,,,,,,,,,,,,,,,,,,,,,,,,,,
Image_List_2,,,,,space,0.46616,space,0.38268,0,5,5,6,1,right_left.jpg,right_left_path.jpg,44146,2020-11-17_19h00.26.858,analogCatScenes,2020.1.3,MacIntel,60,,,,,,,,,,,,,,,,,,,,,,,,,,,,,,,
Image_List_2,,,,,space,0.34466,space,0.364485,0,6,6,5,1,right.jpg,right_path.jpg,44146,2020-11-17_19h00.26.858,analogCatScenes,2020.1.3,MacIntel,60,,,,,,,,,,,,,,,,,,,,,,,,,,,,,,,
Image_List_2,,,,,,,,,,,,,,,,44146,2020-11-17_19h00.26.858,analogCatScenes,2020.1.3,MacIntel,60,"[1440,900]","[[[0.0032899305555555555,-0.19575086805555555],[0.0032899305555555555,-0.19575086805555555],[0.0032899305555555555,-0.19575086805555555],[0.0032899305555555555,-0.19575086805555555],[0.0032899305555555555,-0.19575086805555555],[0.0032899305555555555,-0.19575086805555555],[0.0032899305555555555,-0.19575086805555555],[0.0032899305555555555,-0.19575086805555555],[0.0032899305555555555,-0.19575086805555555],[0.0032899305555555555,-0.19575086805555555],[0.0032899305555555555,-0.19393229166666667],[0.0032899305555555555,-0.19085503472222223],[0.0032899305555555555,-0.1849001736111111],[0.0032899305555555555,-0.1783376736111111],[0.0032899305555555555,-0.1669748263888889],[0.002751736111111111,-0.15747829861111112],[0.002183159722222222,-0.14701822916666665],[0.0011197916666666667,-0.13751736111111112],[0.00009114583333333334,-0.12877170138888888],[-0.0004470486111111111,-0.12190972222222222],[-0.0009201388888888889,-0.11537326388888888],[-0.0013932291666666667,-0.10947916666666667],[-0.0018663194444444445,-0.10356770833333333],[-0.002309027777777778,-0.0961111111111111],[-0.002309027777777778,-0.09016493055555555],[-0.0027821180555555555,-0.07952256944444444],[-0.0037586805555555555,-0.0721875],[-0.004231770833333333,-0.06485243055555556],[-0.004735243055555556,-0.05754340277777778],[-0.005620659722222222,-0.05218315972222222],[-0.006536458333333333,-0.046228298611111114],[-0.007578125,-0.03739149305555556],[-0.008550347222222223,-0.03009982638888889],[-0.009657118055555556,-0.014887152777777777],[-0.010221354166666667,-0.00359375],[-0.0106640625,0.0038628472222222224],[-0.011293402777777777,0.013441840277777778],[-0.01271267361111111,0.02005642361111111],[-0.013598090277777778,0.0253515625],[-0.014422743055555555,0.02945746527777778],[-0.015559895833333334,0.03248263888888889],[-0.015911458333333333,0.03457465277777778],[-0.016870659722222223,0.036484375],[-0.017191840277777776,0.037760416666666664],[-0.017803819444444445,0.03868923611111111],[-0.017803819444444445,0.03961805555555555],[-0.018090277777777778,0.040542534722222225],[-0.018090277777777778,0.04112413194444445],[-0.01838107638888889,0.041705729166666664],[-0.01838107638888889,0.04228298611111111],[-0.01838107638888889,0.04286024305555555],[-0.01838107638888889,0.0434375],[-0.01838107638888889,0.04401475694444444],[-0.01838107638888889,0.04488715277777778],[-0.01838107638888889,0.04546875],[-0.01838107638888889,0.04575520833333333],[-0.01838107638888889,0.04602864583333333],[-0.01838107638888889,0.046302083333333334],[-0.01838107638888889,0.046302083333333334],[-0.01838107638888889,0.046302083333333334],[-0.01838107638888889,0.046302083333333334],[-0.01838107638888889,0.046302083333333334],[-0.01838107638888889,0.046302083333333334],[-0.01838107638888889,0.046302083333333334],[-0.01838107638888889,0.046302083333333334],[-0.01838107638888889,0.046302083333333334],[-0.01838107638888889,0.046302083333333334],[-0.01838107638888889,0.046302083333333334],[-0.01838107638888889,0.046302083333333334],[-0.01838107638888889,0.046302083333333334],[-0.01838107638888889,0.046302083333333334],[-0.01838107638888889,0.046302083333333334],[-0.01838107638888889,0.046302083333333334],[-0.01838107638888889,0.046302083333333334],[-0.01838107638888889,0.046302083333333334],[-0.018641493055555555,0.046302083333333334],[-0.018641493055555555,0.046302083333333334],[-0.018641493055555555,0.046302083333333334],[-0.018641493055555555,0.046302083333333334],[-0.018641493055555555,0.046302083333333334],[-0.01890190972222222,0.046302083333333334],[-0.01890190972222222,0.046302083333333334],[-0.01890190972222222,0.04684027777777778],[-0.01890190972222222,0.04684027777777778],[-0.01890190972222222,0.04684027777777778],[-0.01890190972222222,0.04684027777777778],[-0.01890190972222222,0.04684027777777778],[-0.01890190972222222,0.04684027777777778],[-0.01890190972222222,0.04684027777777778],[-0.01890190972222222,0.04684027777777778],[-0.01890190972222222,0.04684027777777778],[-0.01890190972222222,0.04684027777777778],[-0.01890190972222222,0.04684027777777778],[-0.01890190972222222,0.04684027777777778],[-0.01890190972222222,0.04684027777777778],[-0.01890190972222222,0.04684027777777778],[-0.01890190972222222,0.04684027777777778],[-0.01890190972222222,0.04684027777777778],[-0.01890190972222222,0.04684027777777778],[-0.01890190972222222,0.04684027777777778],[-0.01890190972222222,0.04684027777777778],[-0.01890190972222222,0.04684027777777778],[-0.01890190972222222,0.04684027777777778],[-0.01890190972222222,0.04684027777777778],[-0.01890190972222222,0.04684027777777778],[-0.01890190972222222,0.04684027777777778],[-0.01890190972222222,0.04684027777777778],[-0.01890190972222222,0.04684027777777778],[-0.01890190972222222,0.04684027777777778],[-0.01890190972222222,0.04684027777777778],[-0.01890190972222222,0.04684027777777778],[-0.01890190972222222,0.04684027777777778],[-0.01890190972222222,0.04684027777777778],[-0.01890190972222222,0.04684027777777778],[-0.01890190972222222,0.04684027777777778],[-0.01890190972222222,0.04684027777777778],[-0.01890190972222222,0.04684027777777778],[-0.01890190972222222,0.04684027777777778],[-0.01890190972222222,0.04684027777777778],[-0.01890190972222222,0.04684027777777778],[-0.01890190972222222,0.04684027777777778],[-0.01890190972222222,0.04684027777777778],[-0.01890190972222222,0.04684027777777778],[-0.01890190972222222,0.04684027777777778],[-0.01890190972222222,0.04684027777777778],[-0.01890190972222222,0.04684027777777778],[-0.01890190972222222,0.04684027777777778],[-0.01890190972222222,0.04684027777777778],[-0.01890190972222222,0.04684027777777778],[-0.01890190972222222,0.04684027777777778],[-0.01890190972222222,0.04684027777777778],[-0.01890190972222222,0.04684027777777778],[-0.01890190972222222,0.04684027777777778],[-0.01890190972222222,0.04684027777777778],[-0.01890190972222222,0.04684027777777778],[-0.01890190972222222,0.04684027777777778],[-0.01890190972222222,0.04684027777777778],[-0.01890190972222222,0.04684027777777778],[-0.01890190972222222,0.04684027777777778],[-0.01890190972222222,0.04684027777777778],[-0.01890190972222222,0.04684027777777778],[-0.01890190972222222,0.04684027777777778],[-0.01890190972222222,0.04684027777777778],[-0.01890190972222222,0.04684027777777778],[-0.01890190972222222,0.04684027777777778],[-0.01890190972222222,0.04684027777777778],[-0.01890190972222222,0.04684027777777778],[-0.01890190972222222,0.04684027777777778],[-0.01890190972222222,0.04684027777777778],[-0.01890190972222222,0.04684027777777778],[-0.01890190972222222,0.04684027777777778],[-0.01890190972222222,0.04684027777777778],[-0.01890190972222222,0.04684027777777778],[-0.01890190972222222,0.04684027777777778],[-0.019418402777777777,0.04684027777777778],[-0.019418402777777777,0.04684027777777778],[-0.019418402777777777,0.04684027777777778],[-0.019418402777777777,0.04684027777777778],[-0.019418402777777777,0.04684027777777778],[-0.019418402777777777,0.04684027777777778],[-0.019418402777777777,0.04684027777777778],[-0.019418402777777777,0.04684027777777778],[-0.019418402777777777,0.04684027777777778],[-0.019418402777777777,0.04684027777777778],[-0.019418402777777777,0.04684027777777778],[-0.019418402777777777,0.04684027777777778],[-0.019418402777777777,0.04684027777777778],[-0.019418402777777777,0.04684027777777778],[-0.019418402777777777,0.04684027777777778],[-0.019418402777777777,0.04684027777777778],[-0.019418402777777777,0.04684027777777778],[-0.019418402777777777,0.04684027777777778],[-0.019418402777777777,0.04684027777777778],[-0.019418402777777777,0.04684027777777778],[-0.019418402777777777,0.04684027777777778],[-0.019418402777777777,0.04684027777777778],[-0.019418402777777777,0.04684027777777778],[-0.019418402777777777,0.047100694444444445],[-0.01997829861111111,0.04739149305555555],[-0.020251736111111113,0.047664930555555554],[-0.021180555555555557,0.04827690972222222],[-0.02181857638888889,0.048598090277777777]],[[0.0030598958333333333,-0.19350694444444444],[0.0030598958333333333,-0.19350694444444444],[0.0030598958333333333,-0.19350694444444444],[0.0030598958333333333,-0.19350694444444444],[0.0030598958333333333,-0.19350694444444444],[0.0030598958333333333,-0.19350694444444444],[0.0030598958333333333,-0.19350694444444444],[0.0030598958333333333,-0.19350694444444444],[0.0030598958333333333,-0.1929861111111111],[0.0030598958333333333,-0.18944444444444444],[0.0030598958333333333,-0.18048177083333333],[0.0030598958333333333,-0.1693142361111111],[0.0030598958333333333,-0.15252170138888888],[0.0030598958333333333,-0.12149305555555556],[0.0030598958333333333,-0.10618923611111111],[0.0030598958333333333,-0.08682291666666667],[0.0030598958333333333,-0.06964409722222223],[0.0024305555555555556,-0.05376736111111111],[0.000546875,-0.03871527777777778],[-0.0012152777777777778,-0.025538194444444443],[-0.0035416666666666665,-0.013328993055555556],[-0.005177951388888889,-0.0028819444444444444],[-0.006814236111111111,0.006796875],[-0.008389756944444444,0.015633680555555557],[-0.0098046875,0.02570746527777778],[-0.010750868055555555,0.03232204861111111],[-0.011671006944444444,0.03865017361111111],[-0.01259982638888889,0.0453515625],[-0.013606770833333334,0.053415798611111114],[-0.014544270833333333,0.06016493055555556],[-0.015013020833333333,0.0654861111111111],[-0.015551215277777778,0.07181423611111111],[-0.016085069444444444,0.07924479166666666],[-0.016085069444444444,0.08671875],[-0.016527777777777777,0.0920138888888889],[-0.017413194444444443,0.09730902777777778],[-0.0178515625,0.10198350694444444],[-0.01826388888888889,0.10555555555555556],[-0.01867621527777778,0.10912760416666667],[-0.01902777777777778,0.11169270833333333],[-0.01937934027777778,0.11378038194444444],[-0.019696180555555557,0.11545572916666667],[-0.019696180555555557,0.11673177083333333],[-0.019696180555555557,0.11795138888888888],[-0.019696180555555557,0.11852864583333333],[-0.019696180555555557,0.11880208333333334],[-0.019696180555555557,0.11880208333333334],[-0.019696180555555557,0.11880208333333334],[-0.019696180555555557,0.11880208333333334],[-0.019696180555555557,0.11880208333333334],[-0.019696180555555557,0.11880208333333334],[-0.019696180555555557,0.11880208333333334],[-0.019696180555555557,0.11880208333333334],[-0.019696180555555557,0.11880208333333334],[-0.019696180555555557,0.11880208333333334],[-0.019696180555555557,0.11880208333333334],[-0.019696180555555557,0.11880208333333334],[-0.019696180555555557,0.11880208333333334],[-0.019696180555555557,0.11880208333333334],[-0.019696180555555557,0.11880208333333334],[-0.019696180555555557,0.11880208333333334],[-0.019696180555555557,0.11880208333333334],[-0.019696180555555557,0.11880208333333334],[-0.019696180555555557,0.11880208333333334],[-0.019696180555555557,0.11880208333333334],[-0.019696180555555557,0.11880208333333334],[-0.019696180555555557,0.11880208333333334],[-0.019696180555555557,0.11880208333333334],[-0.019696180555555557,0.11880208333333334],[-0.019696180555555557,0.11880208333333334],[-0.019696180555555557,0.11880208333333334],[-0.019696180555555557,0.11880208333333334],[-0.019696180555555557,0.11880208333333334],[-0.019696180555555557,0.11880208333333334],[-0.019696180555555557,0.11880208333333334],[-0.019696180555555557,0.11880208333333334],[-0.019696180555555557,0.11880208333333334]],[[0.004665798611111111,-0.19840711805555555],[0.004665798611111111,-0.19840711805555555],[0.004665798611111111,-0.19840711805555555],[0.004665798611111111,-0.19840711805555555],[0.004665798611111111,-0.19840711805555555],[0.004665798611111111,-0.19840711805555555],[0.004665798611111111,-0.19840711805555555],[0.004665798611111111,-0.19840711805555555],[0.004665798611111111,-0.19840711805555555],[0.004665798611111111,-0.19840711805555555],[0.004665798611111111,-0.19840711805555555],[0.004665798611111111,-0.19840711805555555],[0.005299479166666667,-0.19698784722222223],[0.008732638888888889,-0.1935763888888889],[0.015269097222222222,-0.18854166666666666],[0.030703125,-0.17601996527777777],[0.042330729166666664,-0.16745225694444443],[0.05486545138888889,-0.1580425347222222],[0.06649305555555556,-0.14884982638888888],[0.0764453125,-0.1422048611111111],[0.08604600694444445,-0.13598524305555557],[0.09443576388888889,-0.13073350694444444],[0.10349392361111111,-0.1259157986111111],[0.11137586805555555,-0.12197048611111111],[0.11936631944444444,-0.11796875],[0.1313498263888889,-0.11247395833333333],[0.13867621527777776,-0.10954427083333333],[0.14621961805555556,-0.10601996527777778],[0.15282552083333334,-0.10365451388888888],[0.15943142361111112,-0.1012890625],[0.16608940972222222,-0.09892361111111111],[0.17239583333333333,-0.09694444444444444],[0.17834635416666667,-0.09506510416666666],[0.18516493055555555,-0.09358940972222222],[0.19434461805555556,-0.09130208333333334],[0.19969618055555555,-0.09035590277777777],[0.20564236111111112,-0.08899739583333334],[0.21092881944444444,-0.08811197916666667],[0.21618489583333333,-0.08723090277777777],[0.22027777777777777,-0.08681857638888889],[0.2249435763888889,-0.08596788194444445],[0.22850694444444444,-0.08555555555555555],[0.23200520833333332,-0.08515625],[0.23652777777777778,-0.08477864583333333],[0.23859809027777779,-0.08443142361111111],[0.2406814236111111,-0.08443142361111111],[0.24194878472222223,-0.08411024305555556],[0.2432769097222222,-0.08381944444444445],[0.24453993055555556,-0.08381944444444445],[0.24579861111111112,-0.08381944444444445],[0.2471267361111111,-0.08346788194444445],[0.24880208333333334,-0.08311631944444445],[0.25047743055555555,-0.08276475694444445],[0.2535980902777778,-0.08241753472222223],[0.25567708333333333,-0.0820703125],[0.25775173611111113,-0.08172309027777777],[0.25983506944444446,-0.08137152777777777],[0.26239149305555554,-0.08063802083333334],[0.26447482638888886,-0.08028645833333334],[0.26703125,-0.07990451388888889],[0.2700607638888889,-0.079140625],[0.27352430555555557,-0.07836805555555555],[0.2770876736111111,-0.07716579861111111],[0.283828125,-0.0758984375],[0.2885199652777778,-0.07463107638888888],[0.2926171875,-0.07380642361111112],[0.29671440972222224,-0.07339409722222222],[0.30027777777777775,-0.07259982638888889],[0.30330729166666665,-0.0718359375],[0.30633680555555554,-0.07145399305555555],[0.3093663194444444,-0.0710720486111111],[0.31341145833333334,-0.07034722222222223],[0.31643663194444444,-0.06958333333333333],[0.3194661458333333,-0.0692013888888889],[0.32202256944444446,-0.06846788194444445],[0.32457899305555554,-0.0680859375],[0.32666232638888887,-0.0673828125],[0.3283376736111111,-0.06703125],[0.32925347222222223,-0.06642361111111111],[0.3301692708333333,-0.06581597222222223],[0.3307378472222222,-0.06523871527777778],[0.33102430555555556,-0.06401909722222222],[0.3313107638888889,-0.0634375],[0.3319140625,-0.06250868055555556]]]",3,"[182,77,84]",space,23.80044,space,1.62643,0,0,0,2,1,ahead_right_2.jpg,ahead_right_2_path.jpg,,,,,,,,,,,,,,,,
Image_List_2,,,,,,,,,,,,,,,,44146,2020-11-17_19h00.26.858,analogCatScenes,2020.1.3,MacIntel,60,"[1440,900]","[[[-0.0026215277777777777,-0.19496961805555554],[-0.0026215277777777777,-0.19496961805555554],[-0.0026215277777777777,-0.19496961805555554],[-0.0026215277777777777,-0.19496961805555554],[-0.0026215277777777777,-0.19496961805555554],[-0.0026215277777777777,-0.19496961805555554],[-0.0026215277777777777,-0.19496961805555554],[-0.0026215277777777777,-0.19496961805555554],[-0.0026215277777777777,-0.19496961805555554],[-0.0026215277777777777,-0.19496961805555554],[-0.0026215277777777777,-0.19496961805555554],[-0.0026215277777777777,-0.19496961805555554],[-0.0026215277777777777,-0.19496961805555554],[-0.0026215277777777777,-0.19496961805555554],[-0.0037760416666666667,-0.19496961805555554],[-0.005455729166666667,-0.19496961805555554],[-0.0085546875,-0.19496961805555554],[-0.011119791666666667,-0.19385850694444445],[-0.014674479166666667,-0.19265625],[-0.018198784722222222,-0.19109375],[-0.021236979166666666,-0.18995225694444445],[-0.026328125,-0.18760850694444445],[-0.03043402777777778,-0.18595920138888888],[-0.034539930555555556,-0.18390190972222223],[-0.03864583333333333,-0.18225260416666667],[-0.042217881944444445,-0.18066840277777776],[-0.04632378472222222,-0.17901909722222223],[-0.049891493055555555,-0.1770269097222222],[-0.053997395833333336,-0.17537760416666667],[-0.058020833333333334,-0.17335503472222222],[-0.06477430555555555,-0.1704123263888889],[-0.0694704861111111,-0.1678559027777778],[-0.07357204861111111,-0.1662109375],[-0.07767795138888889,-0.16415364583333333],[-0.08176649305555556,-0.16251302083333333],[-0.08533854166666667,-0.16092881944444445],[-0.08889322916666667,-0.1593532986111111],[-0.09241319444444444,-0.15779079861111112],[-0.09595486111111111,-0.15659722222222222],[-0.09948784722222222,-0.15503038194444443],[-0.10457899305555556,-0.15309895833333334],[-0.10815104166666667,-0.15189236111111112],[-0.11172309027777778,-0.15030815972222222],[-0.11529513888888888,-0.14872395833333332],[-0.11939670138888889,-0.14707899305555555],[-0.12475694444444445,-0.14483506944444444],[-0.12845052083333333,-0.14325086805555556],[-0.13310329861111111,-0.14115017361111112],[-0.13838107638888889,-0.13894965277777777],[-0.14446180555555554,-0.13620659722222223],[-0.15263020833333332,-0.13212239583333332],[-0.15858506944444445,-0.12985243055555556],[-0.16541666666666666,-0.12641927083333335],[-0.17174479166666667,-0.12351996527777778],[-0.17657118055555557,-0.12134114583333333],[-0.18211805555555555,-0.11856770833333333],[-0.18957465277777777,-0.11510416666666666],[-0.19486111111111112,-0.1124609375],[-0.20411458333333332,-0.10877604166666667],[-0.20828125,-0.10713107638888889],[-0.214609375,-0.104609375],[-0.21930989583333332,-0.10249131944444445],[-0.22460503472222224,-0.1007204861111111],[-0.23128038194444445,-0.09927083333333334],[-0.23721788194444443,-0.09792100694444444],[-0.2426736111111111,-0.09655381944444444],[-0.24872829861111112,-0.09554253472222222],[-0.2528949652777778,-0.09516059027777778],[-0.26221788194444445,-0.09377170138888889],[-0.2669184027777778,-0.09291666666666666],[-0.2724652777777778,-0.09203125],[-0.2777604166666667,-0.09114583333333333],[-0.28305555555555556,-0.08981770833333333],[-0.2877560763888889,-0.08896267361111111],[-0.2918619791666667,-0.08813802083333333],[-0.2965277777777778,-0.0876953125],[-0.30059461805555554,-0.08687934027777777],[-0.3047005208333333,-0.08646701388888889],[-0.3097829861111111,-0.0860546875],[-0.3128211805555556,-0.08567274305555556],[-0.3158550347222222,-0.08567274305555556],[-0.3179340277777778,-0.08532552083333333],[-0.32002604166666665,-0.08532552083333333],[-0.32171006944444447,-0.08532552083333333],[-0.32339409722222223,-0.08497395833333334],[-0.3243142361111111,-0.08497395833333334],[-0.32524305555555555,-0.08497395833333334],[-0.326171875,-0.08465277777777777],[-0.3264453125,-0.08465277777777777],[-0.32671875,-0.08465277777777777],[-0.32671875,-0.08438368055555556],[-0.32671875,-0.08438368055555556],[-0.32671875,-0.08438368055555556],[-0.32671875,-0.08438368055555556],[-0.32697916666666665,-0.08438368055555556],[-0.32697916666666665,-0.08438368055555556],[-0.32697916666666665,-0.08438368055555556],[-0.32697916666666665,-0.08438368055555556],[-0.3272395833333333,-0.08438368055555556],[-0.3272395833333333,-0.08438368055555556],[-0.3272395833333333,-0.08438368055555556],[-0.3272395833333333,-0.08438368055555556],[-0.3272395833333333,-0.08438368055555556],[-0.3272395833333333,-0.08438368055555556],[-0.3272395833333333,-0.08438368055555556],[-0.3272395833333333,-0.08438368055555556],[-0.3272395833333333,-0.08438368055555556]],[[0.0005946180555555556,-0.20545572916666666],[0.0005946180555555556,-0.20545572916666666],[0.0005946180555555556,-0.20545572916666666],[0.0005946180555555556,-0.20545572916666666],[0.0005946180555555556,-0.20545572916666666],[0.0005946180555555556,-0.20545572916666666],[0.0005946180555555556,-0.20545572916666666],[0.0005946180555555556,-0.20545572916666666],[0.0005946180555555556,-0.20545572916666666],[0.0005946180555555556,-0.20545572916666666],[0.0005946180555555556,-0.20545572916666666],[0.0005946180555555556,-0.20545572916666666],[0.0005946180555555556,-0.20545572916666666],[0.0005946180555555556,-0.20545572916666666],[0.0005946180555555556,-0.20545572916666666],[0.0005946180555555556,-0.20545572916666666],[0.0005946180555555556,-0.20545572916666666],[0.0005946180555555556,-0.20545572916666666],[0.0005946180555555556,-0.2051953125],[0.0005946180555555556,-0.20432725694444445],[0.0005946180555555556,-0.20305121527777778],[0.0005946180555555556,-0.20212239583333333],[0.0005946180555555556,-0.20119357638888888],[0.0005946180555555556,-0.199921875],[0.0005946180555555556,-0.19864583333333333],[0.0005946180555555556,-0.19736979166666666],[0.0005946180555555556,-0.19546006944444444],[0.0005946180555555556,-0.19377604166666668],[0.0005946180555555556,-0.1925],[0.0005946180555555556,-0.19122395833333333],[0.0005946180555555556,-0.18994791666666666],[0.0009418402777777778,-0.1882638888888889],[0.0015755208333333333,-0.18698784722222223],[0.0022352430555555554,-0.1853125],[0.0032769097222222223,-0.18217447916666665],[0.004409722222222222,-0.179140625],[0.005920138888888889,-0.17610243055555555],[0.007495659722222222,-0.17253038194444445],[0.009479166666666667,-0.16936631944444444],[0.011527777777777777,-0.16566840277777778],[0.01357638888888889,-0.16197048611111112],[0.016032986111111112,-0.15868055555555555],[0.018489583333333334,-0.15498263888888889],[0.020946180555555555,-0.15169270833333334],[0.026293402777777777,-0.14460069444444446],[0.02875,-0.1413454861111111],[0.031206597222222222,-0.13723958333333333],[0.03407552083333333,-0.13354166666666667],[0.036532118055555556,-0.1302517361111111],[0.039401041666666664,-0.12696180555555556],[0.04185763888888889,-0.1232638888888889],[0.0447265625,-0.11997395833333334],[0.04843315972222222,-0.1159157986111111],[0.055789930555555554,-0.10801215277777777],[0.0591796875,-0.10457899305555556],[0.06301649305555555,-0.10117621527777777],[0.06641059027777778,-0.09733072916666667],[0.07022569444444444,-0.09435329861111111],[0.07422309027777778,-0.09034722222222222],[0.07756510416666666,-0.08743923611111111],[0.08138020833333333,-0.08405815972222222],[0.08578993055555556,-0.08052517361111111],[0.09004340277777778,-0.07752604166666667],[0.0959375,-0.07288194444444444],[0.10032986111111111,-0.06936197916666667],[0.10469618055555556,-0.06630642361111111],[0.11042100694444444,-0.06252604166666667],[0.11589409722222223,-0.059309895833333334],[0.11967447916666667,-0.05684461805555555],[0.1249435763888889,-0.05420572916666667],[0.12963541666666667,-0.05164930555555555],[0.13432725694444445,-0.049092881944444444],[0.14105034722222223,-0.04572482638888889],[0.14514756944444446,-0.04366753472222222],[0.14924479166666665,-0.042430555555555555],[0.15227430555555554,-0.04091145833333333],[0.15483072916666665,-0.03983072916666667],[0.1569140625,-0.03878038194444444],[0.15818142361111112,-0.038138020833333335],[0.15944444444444444,-0.03781684027777778],[0.16036458333333334,-0.03720486111111111],[0.16093315972222222,-0.03720486111111111],[0.1615060763888889,-0.0369140625],[0.1615060763888889,-0.0369140625],[0.1615060763888889,-0.0369140625],[0.1615060763888889,-0.0369140625],[0.1615060763888889,-0.0369140625],[0.1615060763888889,-0.0369140625],[0.1615060763888889,-0.0369140625],[0.1615060763888889,-0.0369140625],[0.1615060763888889,-0.0369140625]]]",2,"[107,91]",space,7.7092,space,0.8611,0,1,1,3,1,ahead_right_left_2.jpg,ahead_right_left_2_path.jpg,,,,,,,,,,,,,,,,
Image_List_2,,,,,,,,,,,,,,,,44146,2020-11-17_19h00.26.858,analogCatScenes,2020.1.3,MacIntel,60,"[1440,900]","[[[-0.006158854166666667,-0.20114149305555556],[-0.006158854166666667,-0.20114149305555556],[-0.006158854166666667,-0.20114149305555556],[-0.006158854166666667,-0.20114149305555556],[-0.006158854166666667,-0.20114149305555556],[-0.006158854166666667,-0.20114149305555556],[-0.006158854166666667,-0.20114149305555556],[-0.006158854166666667,-0.20114149305555556],[-0.006158854166666667,-0.19936197916666668],[-0.0077734375,-0.19578993055555555],[-0.014331597222222223,-0.18541666666666667],[-0.020399305555555556,-0.1759765625],[-0.02818576388888889,-0.16518229166666668],[-0.03459201388888889,-0.1553862847222222],[-0.04851128472222222,-0.13274739583333334],[-0.05866753472222222,-0.11619791666666666],[-0.06788628472222222,-0.1010546875],[-0.07559895833333333,-0.08625434027777777],[-0.08413194444444444,-0.07051215277777778],[-0.09137586805555556,-0.054713541666666664],[-0.09861979166666666,-0.03825520833333333],[-0.1045486111111111,-0.021796875],[-0.10953993055555555,-0.006822916666666666],[-0.11358940972222223,0.005386284722222222],[-0.11794270833333333,0.020598958333333334],[-0.12055555555555555,0.02943576388888889],[-0.123671875,0.038272569444444446],[-0.12625434027777777,0.047109375],[-0.12865451388888888,0.05409288194444444],[-0.1308984375,0.059453125],[-0.13382378472222223,0.06689670138888888],[-0.13609375,0.0728515625],[-0.13890625,0.08123263888888889],[-0.14182725694444445,0.088671875],[-0.1440972222222222,0.09421875],[-0.14630642361111112,0.09951388888888889],[-0.14904947916666667,0.10546875],[-0.15138888888888888,0.11202256944444444],[-0.15431857638888888,0.1193576388888889],[-0.15658854166666666,0.12490451388888889],[-0.15948784722222223,0.1312326388888889],[-0.16200520833333334,0.13587239583333333],[-0.1651388888888889,0.1401779513888889],[-0.16697916666666668,0.1423654513888889],[-0.16866319444444444,0.14370225694444444],[-0.17034722222222223,0.14472222222222222],[-0.17202256944444444,0.145703125],[-0.1732986111111111,0.14666232638888888],[-0.17457465277777778,0.1476215277777778],[-0.17585069444444446,0.14889756944444443],[-0.17677951388888888,0.14982638888888888],[-0.17739149305555554,0.15075520833333333],[-0.17797309027777777,0.1519748263888889],[-0.17797309027777777,0.15290364583333332],[-0.17797309027777777,0.15348524305555555],[-0.17797309027777777,0.15375868055555555],[-0.17797309027777777,0.15375868055555555],[-0.17797309027777777,0.15375868055555555],[-0.17797309027777777,0.15375868055555555],[-0.17797309027777777,0.15375868055555555],[-0.17797309027777777,0.15375868055555555],[-0.17797309027777777,0.15375868055555555],[-0.17797309027777777,0.15375868055555555],[-0.17797309027777777,0.15375868055555555],[-0.17797309027777777,0.15375868055555555]],[[0.0033550347222222224,-0.1975217013888889],[0.0033550347222222224,-0.1975217013888889],[0.0033550347222222224,-0.1975217013888889],[0.0033550347222222224,-0.1975217013888889],[0.0033550347222222224,-0.1975217013888889],[0.0033550347222222224,-0.1975217013888889],[0.0033550347222222224,-0.1975217013888889],[0.0033550347222222224,-0.1975217013888889],[0.0033550347222222224,-0.1957421875],[0.0049175347222222224,-0.18456163194444444],[0.009027777777777777,-0.17394965277777777],[0.011631944444444445,-0.16583333333333333],[0.016974826388888888,-0.15338541666666666],[0.022365451388888888,-0.14083333333333334],[0.02744357638888889,-0.1300954861111111],[0.0324609375,-0.11953559027777778],[0.03734809027777778,-0.109765625],[0.040863715277777775,-0.10171006944444444],[0.046484375,-0.08934895833333334],[0.050629340277777775,-0.08051215277777778],[0.0555859375,-0.07061631944444445],[0.061293402777777777,-0.05984375],[0.06693576388888889,-0.04967013888888889],[0.07174045138888889,-0.0405859375],[0.0761328125,-0.030125868055555557],[0.08362413194444444,-0.012860243055555555],[0.08874131944444444,-0.0014800347222222222],[0.09378038194444445,0.009162326388888888],[0.09729600694444444,0.017217881944444444],[0.10131510416666667,0.024769965277777778],[0.10483072916666666,0.03232204861111111],[0.10834635416666667,0.040377604166666664],[0.11302517361111111,0.048177083333333336],[0.11614149305555556,0.05265625],[0.11917534722222223,0.057452256944444446],[0.12114149305555555,0.06057725694444444],[0.12297309027777778,0.06276475694444444],[0.12455295138888889,0.06467447916666667],[0.12550347222222222,0.06595052083333333],[0.12610677083333333,0.06687934027777778],[0.12702256944444446,0.06780381944444444],[0.1275954861111111,0.06838541666666667],[0.12816840277777777,0.06896701388888889],[0.12877170138888888,0.06989583333333334],[0.12971788194444445,0.07084635416666667],[0.13127170138888888,0.07209635416666667],[0.13294704861111112,0.0730859375],[0.13421440972222223,0.07404513888888889],[0.13588975694444444,0.07538194444444445],[0.13756510416666667,0.07671875],[0.13848524305555557,0.07733072916666667],[0.13940538194444443,0.07796875],[0.13997395833333334,0.07854600694444444],[0.14054253472222222,0.07854600694444444],[0.14082899305555555,0.07883680555555556],[0.14082899305555555,0.07883680555555556],[0.14082899305555555,0.07883680555555556],[0.14082899305555555,0.07909722222222222],[0.14082899305555555,0.07937065972222222],[0.14082899305555555,0.07937065972222222]]]",2,"[65,60]",space,4.8974,space,1.884905,0,2,2,6,1,right_left_2.jpg,right_left_2_path.jpg,,,,,,,,,,,,,,,,
Image_List_2,,,,,,,,,,,,,,,,44146,2020-11-17_19h00.26.858,analogCatScenes,2020.1.3,MacIntel,60,"[1440,900]","[[[0.005260416666666667,-0.2017013888888889],[0.005260416666666667,-0.2017013888888889],[0.005260416666666667,-0.2017013888888889],[0.005260416666666667,-0.2017013888888889],[0.005260416666666667,-0.2017013888888889],[0.005260416666666667,-0.2017013888888889],[0.005260416666666667,-0.2017013888888889],[0.005260416666666667,-0.2017013888888889],[0.005260416666666667,-0.2017013888888889],[0.005260416666666667,-0.20118489583333332],[0.005260416666666667,-0.19861979166666666],[0.005260416666666667,-0.19452690972222222],[0.005260416666666667,-0.1885763888888889],[0.005260416666666667,-0.17565104166666667],[0.005260416666666667,-0.16749131944444445],[0.005260416666666667,-0.14255642361111112],[0.005260416666666667,-0.12197048611111111],[0.005260416666666667,-0.1002907986111111],[0.005260416666666667,-0.07495225694444445],[0.007543402777777777,-0.049613715277777776],[0.011202256944444445,-0.02606770833333333],[0.014934895833333333,-0.0021180555555555558],[0.018628472222222223,0.021493055555555557],[0.021072048611111113,0.03595486111111111],[0.02568576388888889,0.06158420138888889],[0.027599826388888887,0.07734375],[0.029444444444444443,0.09142795138888889],[0.031223958333333333,0.10452256944444445],[0.03216579861111111,0.1113845486111111],[0.03216579861111111,0.1173220486111111],[0.03216579861111111,0.12148871527777778],[0.03216579861111111,0.12357638888888889],[0.03216579861111111,0.12450520833333334],[0.03216579861111111,0.12508680555555557],[0.031896701388888886,0.12508680555555557],[0.031896701388888886,0.12508680555555557],[0.03162760416666666,0.12508680555555557],[0.03162760416666666,0.12508680555555557],[0.03162760416666666,0.12508680555555557],[0.03136284722222222,0.12508680555555557],[0.03109375,0.12508680555555557],[0.03080295138888889,0.12508680555555557],[0.03023871527777778,0.12537760416666666],[0.029917534722222222,0.12694010416666668],[0.02959635416666667,0.12862413194444444],[0.02959635416666667,0.13071614583333332],[0.02959635416666667,0.13327256944444443],[0.02959635416666667,0.13536458333333334],[0.02959635416666667,0.13744357638888888],[0.02959635416666667,0.1395355902777778],[0.02927517361111111,0.14121961805555555],[0.02927517361111111,0.14331163194444443],[0.028923611111111112,0.14604166666666665],[0.028923611111111112,0.14813368055555556],[0.028572048611111112,0.15022569444444445],[0.028572048611111112,0.1519097222222222],[0.028250868055555555,0.15359375],[0.028250868055555555,0.15452256944444445],[0.027960069444444444,0.15510416666666665],[0.027669270833333332,0.15568576388888888],[0.027669270833333332,0.15568576388888888],[0.027669270833333332,0.15568576388888888],[0.027404513888888888,0.15568576388888888],[0.027404513888888888,0.15568576388888888],[0.027404513888888888,0.15568576388888888],[0.027139756944444444,0.15568576388888888],[0.026866319444444446,0.15568576388888888],[0.02622829861111111,0.1553689236111111]]]",1,[68],space,2.619405,space,0.707665,0,3,3,0,1,ahead_2.jpg,ahead_2_path.jpg,,,,,,,,,,,,,,,,
Image_List_2,,,,,,,,,,,,,,,,44146,2020-11-17_19h00.26.858,analogCatScenes,2020.1.3,MacIntel,60,"[1440,900]","[[[0.004427083333333333,-0.201484375],[0.004427083333333333,-0.201484375],[0.004427083333333333,-0.201484375],[0.004427083333333333,-0.201484375],[0.004427083333333333,-0.201484375],[0.004427083333333333,-0.201484375],[0.004427083333333333,-0.201484375],[0.004427083333333333,-0.201484375],[0.004427083333333333,-0.201484375],[0.004427083333333333,-0.201484375],[0.004427083333333333,-0.201484375],[0.004427083333333333,-0.20096788194444445],[0.005182291666666667,-0.1984027777777778],[0.008359375,-0.193515625],[0.012760416666666666,-0.18715711805555554],[0.019166666666666665,-0.179140625],[0.030711805555555555,-0.16476128472222223],[0.03783854166666667,-0.15649739583333333],[0.04477864583333333,-0.14901475694444444],[0.051532118055555555,-0.14278645833333334],[0.05737413194444444,-0.13740885416666668],[0.06299479166666666,-0.1327170138888889],[0.06686631944444445,-0.12974826388888888],[0.07260416666666666,-0.12495225694444445],[0.07911892361111111,-0.11937065972222222],[0.08499565972222223,-0.1144921875],[0.09001736111111111,-0.11037326388888889],[0.09520399305555556,-0.10611979166666667],[0.09967447916666666,-0.10252604166666666],[0.10505208333333334,-0.0980859375],[0.11161892361111111,-0.09298611111111112],[0.11658854166666667,-0.08891493055555555],[0.12224826388888889,-0.08513020833333333],[0.12790798611111112,-0.08134548611111111],[0.1347048611111111,-0.07641927083333333],[0.14177083333333335,-0.071875],[0.14717881944444444,-0.06805989583333333],[0.15221354166666667,-0.06393229166666667],[0.1578732638888889,-0.05967881944444445],[0.16417100694444445,-0.05534722222222222],[0.17052083333333334,-0.050972222222222224],[0.1767578125,-0.046688368055555554],[0.1833246527777778,-0.042469618055555554],[0.19229166666666667,-0.03725694444444445],[0.19864149305555556,-0.03335069444444445],[0.20499131944444443,-0.029444444444444443],[0.21203125,-0.025416666666666667],[0.2195095486111111,-0.02193142361111111],[0.22654947916666668,-0.017903645833333332],[0.23409288194444444,-0.013875868055555556],[0.24151475694444444,-0.009908854166666667],[0.24905815972222223,-0.005881076388888889],[0.26012152777777775,-0.00034288194444444443],[0.2669227430555556,0.0030772569444444445],[0.2737282986111111,0.006501736111111111],[0.28033420138888887,0.009340277777777777],[0.2844921875,0.011423611111111112],[0.28977864583333335,0.0136328125],[0.29506510416666665,0.015842013888888888],[0.2997222222222222,0.0175390625],[0.3038064236111111,0.018771701388888888],[0.3068359375,0.019913194444444445],[0.31090711805555554,0.02140625],[0.31299045138888887,0.022109375],[0.3142578125,0.022430555555555554],[0.31483072916666666,0.022721354166666666],[0.31540364583333336,0.023012152777777777],[0.31540364583333336,0.023012152777777777],[0.31540364583333336,0.023012152777777777],[0.31540364583333336,0.023012152777777777],[0.31540364583333336,0.023272569444444443],[0.3151128472222222,0.023546006944444444],[0.31359375,0.023546006944444444]]]",1,[73],space,2.721125,space,0.50275,0,4,4,5,1,right_2.jpg,right_2_path.jpg,,,,,,,,,,,,,,,,
Image_List_2,,,,,,,,,,,,,,,,44146,2020-11-17_19h00.26.858,analogCatScenes,2020.1.3,MacIntel,60,"[1440,900]","[[[0.010208333333333333,-0.19807725694444445],[0.010208333333333333,-0.19807725694444445],[0.010208333333333333,-0.19807725694444445],[0.010208333333333333,-0.19807725694444445],[0.010208333333333333,-0.19807725694444445],[0.010208333333333333,-0.19807725694444445],[0.010208333333333333,-0.19807725694444445],[0.010208333333333333,-0.19807725694444445],[0.010208333333333333,-0.19807725694444445],[0.010208333333333333,-0.19807725694444445],[0.010208333333333333,-0.19807725694444445],[0.010208333333333333,-0.19807725694444445],[0.010208333333333333,-0.19807725694444445],[0.010208333333333333,-0.19807725694444445],[0.010208333333333333,-0.19807725694444445],[0.010208333333333333,-0.19807725694444445],[0.010208333333333333,-0.19807725694444445],[0.010208333333333333,-0.19807725694444445],[0.010208333333333333,-0.19807725694444445],[0.010208333333333333,-0.19807725694444445],[0.010208333333333333,-0.19807725694444445],[0.010208333333333333,-0.19807725694444445],[0.010208333333333333,-0.19807725694444445],[0.010208333333333333,-0.19807725694444445],[0.010208333333333333,-0.19807725694444445],[0.010208333333333333,-0.19807725694444445],[0.010208333333333333,-0.19807725694444445],[0.010208333333333333,-0.19807725694444445],[0.010208333333333333,-0.19807725694444445],[0.010208333333333333,-0.19807725694444445],[0.010208333333333333,-0.19807725694444445],[0.010208333333333333,-0.19807725694444445],[0.010208333333333333,-0.19807725694444445],[0.010208333333333333,-0.19807725694444445],[0.010208333333333333,-0.19807725694444445],[0.010208333333333333,-0.19807725694444445],[0.010208333333333333,-0.19807725694444445],[0.010208333333333333,-0.19807725694444445],[0.010208333333333333,-0.19807725694444445],[0.010208333333333333,-0.19807725694444445],[0.010208333333333333,-0.19807725694444445],[0.010208333333333333,-0.19807725694444445],[0.010208333333333333,-0.19807725694444445],[0.010208333333333333,-0.19807725694444445],[0.010208333333333333,-0.19807725694444445],[0.010208333333333333,-0.19807725694444445],[0.010208333333333333,-0.19807725694444445],[0.010208333333333333,-0.19807725694444445],[0.010208333333333333,-0.19807725694444445],[0.010208333333333333,-0.19807725694444445],[0.010208333333333333,-0.19807725694444445],[0.010208333333333333,-0.19807725694444445],[0.010208333333333333,-0.19807725694444445],[0.010208333333333333,-0.19807725694444445],[0.010208333333333333,-0.19807725694444445],[0.010208333333333333,-0.19807725694444445],[0.010208333333333333,-0.19807725694444445],[0.010208333333333333,-0.19807725694444445],[0.010208333333333333,-0.19807725694444445],[0.010208333333333333,-0.19807725694444445],[0.010208333333333333,-0.19807725694444445],[0.010208333333333333,-0.19807725694444445],[0.010208333333333333,-0.19807725694444445],[0.010208333333333333,-0.19807725694444445],[0.010208333333333333,-0.19807725694444445],[0.010208333333333333,-0.19807725694444445],[0.010208333333333333,-0.19807725694444445],[0.010208333333333333,-0.19807725694444445],[0.010208333333333333,-0.19807725694444445],[0.010208333333333333,-0.19807725694444445],[0.010208333333333333,-0.19807725694444445],[0.010208333333333333,-0.19807725694444445],[0.010208333333333333,-0.19807725694444445],[0.010208333333333333,-0.19807725694444445],[0.010208333333333333,-0.19807725694444445],[0.010208333333333333,-0.19807725694444445],[0.010208333333333333,-0.19807725694444445],[0.010208333333333333,-0.19807725694444445],[0.010208333333333333,-0.19807725694444445],[0.010208333333333333,-0.19807725694444445],[0.010208333333333333,-0.19807725694444445],[0.010208333333333333,-0.19807725694444445],[0.010208333333333333,-0.19807725694444445],[0.010208333333333333,-0.19807725694444445],[0.010208333333333333,-0.19807725694444445],[0.010208333333333333,-0.19807725694444445],[0.010208333333333333,-0.19807725694444445],[0.010208333333333333,-0.19807725694444445],[0.010208333333333333,-0.19807725694444445],[0.010208333333333333,-0.19807725694444445],[0.010208333333333333,-0.19807725694444445],[0.010208333333333333,-0.19807725694444445],[0.010464409722222222,-0.19807725694444445],[0.010464409722222222,-0.19807725694444445],[0.010464409722222222,-0.19807725694444445],[0.010464409722222222,-0.19807725694444445],[0.010464409722222222,-0.19807725694444445],[0.010464409722222222,-0.19781684027777777],[0.010464409722222222,-0.19754774305555556],[0.010464409722222222,-0.19727430555555556],[0.010464409722222222,-0.19698350694444444],[0.010464409722222222,-0.19641927083333333],[0.010464409722222222,-0.19583767361111112],[0.010464409722222222,-0.19556423611111112],[0.010464409722222222,-0.1949826388888889],[0.010464409722222222,-0.19405381944444444],[0.010464409722222222,-0.19277777777777777],[0.009470486111111112,-0.19045572916666667],[0.008424479166666667,-0.18836805555555555],[0.0076953125,-0.1858159722222222],[0.006644965277777777,-0.18372395833333333],[0.005247395833333333,-0.18163194444444444],[0.004171006944444444,-0.17907118055555554],[0.0027256944444444446,-0.17653211805555555],[0.001328125,-0.17444010416666667],[-0.00012586805555555555,-0.17187934027777776],[-0.0015234375,-0.16978732638888888],[-0.004118923611111111,-0.16608506944444446],[-0.005564236111111111,-0.16355034722222223],[-0.0074609375,-0.1608984375],[-0.009926215277777779,-0.15760850694444445],[-0.011918402777777778,-0.15444444444444444],[-0.014375,-0.15035590277777777],[-0.016966145833333335,-0.14647569444444444],[-0.020625,-0.14102864583333333],[-0.025225694444444443,-0.13333767361111112],[-0.027751736111111112,-0.129609375],[-0.03219184027777778,-0.123125],[-0.03540798611111111,-0.11764322916666667],[-0.039188368055555554,-0.11197916666666667],[-0.04305121527777778,-0.10568142361111112],[-0.04694878472222222,-0.09933159722222222],[-0.05092881944444445,-0.09186631944444444],[-0.055546875,-0.08370225694444444],[-0.060672743055555554,-0.07600260416666667],[-0.06601996527777777,-0.06745225694444444],[-0.07418402777777777,-0.053828125],[-0.08025173611111111,-0.04503038194444445],[-0.08572916666666666,-0.03571180555555555],[-0.0912282986111111,-0.02634982638888889],[-0.09744791666666666,-0.016176215277777777],[-0.10366753472222222,-0.0060026041666666665],[-0.11001302083333334,0.005004340277777778],[-0.116171875,0.015065104166666666],[-0.12223958333333333,0.024427083333333332],[-0.12880208333333334,0.035004340277777775],[-0.1335199652777778,0.042109375],[-0.1392751736111111,0.050030381944444445],[-0.14218315972222223,0.053381076388888886],[-0.14648871527777776,0.05821614583333334],[-0.15065104166666668,0.062378472222222224],[-0.15447482638888888,0.06575954861111111],[-0.157734375,0.06901909722222223],[-0.16098090277777777,0.072265625],[-0.16403645833333333,0.07566840277777778],[-0.16814670138888888,0.08101128472222222],[-0.17112847222222222,0.08483940972222222],[-0.17359375,0.08812934027777777],[-0.17647135416666668,0.09141927083333333],[-0.17883680555555556,0.09419270833333333],[-0.1811111111111111,0.09646701388888888],[-0.18328993055555556,0.09829861111111111],[-0.18496527777777777,0.09962673611111111],[-0.18753038194444444,0.10108506944444444],[-0.19026041666666665,0.10242621527777777],[-0.19234375,0.10346788194444445],[-0.1944357638888889,0.10417100694444445],[-0.19652777777777777,0.10487413194444445],[-0.19821180555555556,0.105546875],[-0.19989583333333333,0.10621961805555556],[-0.2019878472222222,0.10726996527777778],[-0.20325954861111112,0.10790798611111112],[-0.20494357638888888,0.10858072916666667],[-0.20621961805555555,0.10922309027777778],[-0.20778645833333334,0.11047309027777778],[-0.20836805555555554,0.1110546875],[-0.20900607638888888,0.11198350694444445],[-0.2095876736111111,0.11256510416666667],[-0.21016927083333334,0.1131467013888889],[-0.21078125,0.11407552083333333],[-0.21110243055555555,0.1153515625]],[[0.005451388888888889,-0.19461371527777777],[0.005451388888888889,-0.19461371527777777],[0.005451388888888889,-0.19461371527777777],[0.005451388888888889,-0.19461371527777777],[0.005451388888888889,-0.19461371527777777],[0.005451388888888889,-0.19461371527777777],[0.005451388888888889,-0.19461371527777777],[0.005451388888888889,-0.19461371527777777],[0.005451388888888889,-0.19461371527777777],[0.005451388888888889,-0.19461371527777777],[0.005451388888888889,-0.19461371527777777],[0.005451388888888889,-0.19461371527777777],[0.007222222222222222,-0.19461371527777777],[0.010776909722222222,-0.19461371527777777],[0.016705729166666666,-0.19461371527777777],[0.0247265625,-0.19461371527777777],[0.03133246527777778,-0.194140625],[0.03860677083333333,-0.19366753472222223],[0.04593315972222222,-0.19272135416666666],[0.058784722222222224,-0.1916796875],[0.06839409722222223,-0.19114149305555556],[0.07717881944444445,-0.19010416666666666],[0.08600694444444444,-0.1890625],[0.09645833333333333,-0.18795572916666667],[0.10766059027777777,-0.18627170138888888],[0.12062934027777777,-0.18450520833333334],[0.1354123263888889,-0.18203993055555556],[0.15148871527777777,-0.17946614583333334],[0.18434461805555555,-0.17498263888888888],[0.19879774305555556,-0.1730642361111111],[0.21672743055555554,-0.17104600694444444],[0.23280381944444445,-0.16975694444444445],[0.24687934027777778,-0.16912760416666667],[0.25733072916666666,-0.16912760416666667],[0.26696180555555554,-0.16912760416666667],[0.2763802083333333,-0.16912760416666667],[0.28173177083333334,-0.16912760416666667],[0.2883376736111111,-0.16912760416666667],[0.2963324652777778,-0.1700347222222222],[0.30102430555555554,-0.17044270833333333],[0.3051171875,-0.17085069444444445],[0.30868055555555557,-0.17125868055555554],[0.3107638888888889,-0.1716059027777778],[0.31203125,-0.17192274305555555],[0.3126041666666667,-0.17249565972222222],[0.312890625,-0.17249565972222222],[0.312890625,-0.17276475694444443],[0.312890625,-0.17302951388888888],[0.312890625,-0.17302951388888888],[0.312890625,-0.17302951388888888],[0.312890625,-0.17302951388888888],[0.312890625,-0.17302951388888888],[0.312890625,-0.17302951388888888],[0.312890625,-0.17302951388888888],[0.312890625,-0.17302951388888888]]]",2,"[181,55]",space,8.46182,space,0.835835,0,5,5,4,1,left_2.jpg,left_2_path.jpg,,,,,,,,,,,,,,,,
Image_List_2,,,,,,,,,,,,,,,,44146,2020-11-17_19h00.26.858,analogCatScenes,2020.1.3,MacIntel,60,"[1440,900]","[[[-0.0003515625,-0.2036111111111111],[-0.0003515625,-0.2036111111111111],[-0.0003515625,-0.2036111111111111],[-0.0003515625,-0.2036111111111111],[-0.0003515625,-0.2036111111111111],[-0.0003515625,-0.2036111111111111],[-0.0003515625,-0.2036111111111111],[-0.0003515625,-0.2036111111111111],[-0.0003515625,-0.20283420138888889],[-0.0003515625,-0.19399739583333334],[-0.0003515625,-0.1780034722222222],[-0.0003515625,-0.14140190972222222],[-0.0003515625,-0.07602430555555556],[-0.0003515625,-0.026137152777777777],[-0.0003515625,0.027387152777777778],[-0.0003515625,0.06224392361111111],[-0.0003515625,0.10695746527777777],[-0.0003515625,0.14355902777777776],[-0.0003515625,0.17575086805555556],[0.00024305555555555555,0.19696614583333333],[0.002309027777777778,0.2172265625],[0.004201388888888889,0.23215711805555556],[0.005828993055555555,0.2484201388888889],[0.006796875,0.2557552083333333],[0.007764756944444445,0.26309027777777777],[0.008172743055555556,0.26917100694444446],[0.009110243055555555,0.27578559027777777],[0.009548611111111112,0.28106336805555554],[0.009986979166666667,0.2857638888888889],[0.010394965277777777,0.28986979166666665],[0.0107421875,0.2924348958333333],[0.0107421875,0.29475694444444445],[0.0107421875,0.2953385416666667],[0.0107421875,0.2953385416666667],[0.0107421875,0.2953385416666667],[0.011002604166666667,0.2953385416666667],[0.011002604166666667,0.2953385416666667],[0.011002604166666667,0.2953385416666667],[0.011263020833333333,0.2953385416666667],[0.011263020833333333,0.2953385416666667],[0.011263020833333333,0.29507378472222223],[0.011263020833333333,0.2948090277777778],[0.011527777777777777,0.2948090277777778],[0.011527777777777777,0.29453993055555555],[0.011527777777777777,0.29453993055555555],[0.011527777777777777,0.2942795138888889],[0.011527777777777777,0.2942795138888889],[0.0112109375,0.2933854166666667]]]",1,[48],space,2.559135,space,0.76397,0,6,6,1,1,ahead_left_2.jpg,ahead_left_2_path.jpg,,,,,,,,,,,,,,,,
Image_List_2,,,,,,,,,,,,,,,,44146,2020-11-17_19h00.26.858,analogCatScenes,2020.1.3,MacIntel,60,"[1440,900]","[[[0.0009461805555555556,-0.19878038194444445],[0.0009461805555555556,-0.19878038194444445],[0.0009461805555555556,-0.19878038194444445],[0.0009461805555555556,-0.19878038194444445],[0.0009461805555555556,-0.19878038194444445],[0.0009461805555555556,-0.19878038194444445],[0.0009461805555555556,-0.19878038194444445],[0.0009461805555555556,-0.19878038194444445],[0.0009461805555555556,-0.19878038194444445],[0.0009461805555555556,-0.19878038194444445],[0.0030902777777777777,-0.19491319444444444],[0.010538194444444444,-0.18582899305555556],[0.025616319444444445,-0.16936197916666668],[0.05717013888888889,-0.1386111111111111],[0.10442274305555556,-0.0941796875],[0.14149305555555555,-0.06211371527777778],[0.16898003472222223,-0.03926215277777778],[0.2004513888888889,-0.012426215277777777],[0.21983506944444445,0.002269965277777778],[0.23243489583333332,0.0121484375],[0.2425737847222222,0.02054253472222222],[0.24703125,0.024127604166666667],[0.24880208333333334,0.025907118055555556],[0.249375,0.02648871527777778],[0.249375,0.026762152777777777],[0.249375,0.027035590277777778],[0.2472873263888889,0.027734375]]]",1,[27],,,,,,,,,,,,space,4.38367,desertvegetation3.jpg,space,2.650985,0,0,0,30,1,courthouse1.jpg,clothingstore2.jpg,copyroom2.jpg,bus_shelter3.jpg,,
Image_List_2,,,,,,,,,,,,,,,,44146,2020-11-17_19h00.26.858,analogCatScenes,2020.1.3,MacIntel,60,"[1440,900]","[[[-0.001015625,-0.19602864583333332],[-0.001015625,-0.19602864583333332],[-0.001015625,-0.19602864583333332],[-0.001015625,-0.19602864583333332],[-0.001015625,-0.19602864583333332],[-0.001015625,-0.19602864583333332],[-0.001015625,-0.19602864583333332],[-0.001015625,-0.19602864583333332],[-0.001015625,-0.19602864583333332],[-0.001015625,-0.19602864583333332],[-0.001015625,-0.19602864583333332],[-0.001015625,-0.19602864583333332],[-0.001015625,-0.19602864583333332],[-0.001015625,-0.19602864583333332],[-0.001015625,-0.19602864583333332],[-0.001015625,-0.19602864583333332],[-0.001015625,-0.19602864583333332],[-0.001015625,-0.19602864583333332],[-0.001015625,-0.19602864583333332],[-0.001015625,-0.19602864583333332],[-0.001015625,-0.19602864583333332],[-0.001015625,-0.19602864583333332],[-0.001015625,-0.19602864583333332],[-0.001015625,-0.19602864583333332],[-0.001015625,-0.19602864583333332],[-0.001015625,-0.19602864583333332],[-0.001015625,-0.19602864583333332],[-0.001015625,-0.19602864583333332],[-0.001015625,-0.19602864583333332],[-0.001015625,-0.19602864583333332],[-0.001015625,-0.19602864583333332],[-0.001015625,-0.19576822916666667],[-0.001015625,-0.19549479166666667],[-0.0007291666666666667,-0.19520399305555555],[-0.00015625,-0.19462239583333332],[0.0011111111111111111,-0.19398003472222222],[0.0036588541666666666,-0.19325086805555555],[0.011822916666666667,-0.19070746527777777],[0.024787326388888888,-0.18774305555555557],[0.04889756944444444,-0.18172743055555557],[0.12090711805555555,-0.16408854166666667],[0.15697482638888888,-0.15606770833333333],[0.2076953125,-0.1433810763888889],[0.24741753472222222,-0.13323350694444444],[0.26727864583333333,-0.12753038194444444],[0.27882378472222225,-0.12401475694444444],[0.28769965277777776,-0.12195746527777777],[0.2918576388888889,-0.12107204861111111],[0.2935329861111111,-0.12072048611111111],[0.2941015625,-0.12072048611111111],[0.2941015625,-0.12072048611111111],[0.2941015625,-0.12072048611111111]]]",1,[52],,,,,,,,,,,,,,parkinglot.jpg,space,2.149945,0,1,1,68,1,liquorstore7.jpg,lightingstore4.jpg,lockerroom2.jpg,hospitalroom3.jpg,,
Image_List_2,,,,,,,,,,,,,,,,44146,2020-11-17_19h00.26.858,analogCatScenes,2020.1.3,MacIntel,60,"[1440,900]","[[[0.008446180555555556,-0.19481336805555555],[0.008446180555555556,-0.19481336805555555],[0.008446180555555556,-0.19481336805555555],[0.008446180555555556,-0.19481336805555555],[0.008446180555555556,-0.19481336805555555],[0.008446180555555556,-0.19481336805555555],[0.008446180555555556,-0.19403645833333333],[0.008446180555555556,-0.18986979166666668],[0.008446180555555556,-0.1810329861111111],[0.008446180555555556,-0.16788194444444443],[0.008446180555555556,-0.14657118055555557],[0.003958333333333334,-0.11101128472222223],[-0.0026475694444444446,-0.08744791666666667],[-0.011297743055555556,-0.06720920138888889],[-0.018641493055555555,-0.05472222222222222],[-0.030460069444444446,-0.03766927083333333],[-0.04236979166666666,-0.023745659722222222],[-0.04847222222222222,-0.017643229166666666],[-0.05595486111111111,-0.010160590277777777],[-0.06162326388888889,-0.005907118055555555],[-0.06545138888888889,-0.0029253472222222224],[-0.06860677083333333,-0.0009375],[-0.07174479166666667,0.0008116319444444445],[-0.07302083333333333,0.0011328125],[-0.074296875,0.0011328125],[-0.07557291666666667,0.0011328125],[-0.07650173611111111,0.0011328125],[-0.07742621527777778,0.0011328125],[-0.0780078125,0.0011328125],[-0.07828125,0.0011328125],[-0.07828125,0.0011328125],[-0.07855034722222222,0.0011328125]]]",1,[32],,,,,,,,,,,,,,library_aisle8.jpg,space,1.8654,0,2,2,59,1,homegarden7.jpg,highway4.jpg,kindergarten_classroom5.jpg,grocerystore3.jpg,,
Image_List_2,,,,,,,,,,,,,,,,44146,2020-11-17_19h00.26.858,analogCatScenes,2020.1.3,MacIntel,60,"[1440,900]","[[[0.006280381944444444,-0.20016059027777777],[0.006280381944444444,-0.20016059027777777],[0.006280381944444444,-0.20016059027777777],[0.006280381944444444,-0.20016059027777777],[0.006280381944444444,-0.20016059027777777],[0.006280381944444444,-0.20016059027777777],[0.006280381944444444,-0.20016059027777777],[0.006280381944444444,-0.20016059027777777],[0.006280381944444444,-0.20016059027777777],[0.006280381944444444,-0.20016059027777777],[0.006280381944444444,-0.20016059027777777],[0.006280381944444444,-0.20016059027777777],[0.006280381944444444,-0.20016059027777777],[0.006280381944444444,-0.20016059027777777],[0.008585069444444444,-0.19892795138888889],[0.01646701388888889,-0.19363715277777777],[0.03112847222222222,-0.1803515625],[0.06456163194444445,-0.15263888888888888],[0.10561631944444444,-0.11796875],[0.15803819444444445,-0.07809461805555555],[0.21635416666666665,-0.035243055555555555],[0.2589236111111111,-0.0069921875],[0.3041493055555556,0.020759548611111112],[0.33001302083333334,0.03564236111111111],[0.3438671875,0.04257378472222222]]]",1,[25],,,,,,,,,,,,,,playground10.jpg,space,1.96478,0,3,3,74,1,newsstand2.jpg,observatory4.jpeg,operatingroom1.jpg,lightingstore2.jpg,,
Image_List_2,,,,,,,,,,,,,,,,44146,2020-11-17_19h00.26.858,analogCatScenes,2020.1.3,MacIntel,60,"[1440,900]","[[[-0.002400173611111111,-0.2064279513888889],[-0.002400173611111111,-0.2064279513888889],[-0.002400173611111111,-0.2064279513888889],[-0.002400173611111111,-0.2064279513888889],[-0.002400173611111111,-0.2064279513888889],[-0.002400173611111111,-0.2064279513888889],[-0.002400173611111111,-0.2064279513888889],[-0.002400173611111111,-0.2064279513888889],[-0.0013411458333333333,-0.20562934027777777],[0.02181423611111111,-0.18947916666666667],[0.04980034722222222,-0.17175347222222223],[0.07096788194444445,-0.15709201388888888],[0.09888888888888889,-0.13930555555555554],[0.113203125,-0.13067274305555557],[0.12249131944444444,-0.12457899305555556],[0.13109375,-0.11917100694444445],[0.13495225694444443,-0.1160546875],[0.1370920138888889,-0.1146657986111111],[0.13803819444444446,-0.1137109375],[0.1386111111111111,-0.11342013888888888],[0.1386111111111111,-0.11312934027777778],[0.1386111111111111,-0.11286458333333334],[0.1386111111111111,-0.11286458333333334],[0.1386111111111111,-0.11286458333333334],[0.1386111111111111,-0.1125998263888889],[0.1386111111111111,-0.1125998263888889],[0.1386111111111111,-0.1125998263888889],[0.1386111111111111,-0.11233506944444445],[0.1386111111111111,-0.11206597222222223],[0.1386111111111111,-0.111796875],[0.1386111111111111,-0.111796875],[0.13895833333333332,-0.11048177083333334],[0.14455295138888888,-0.10581597222222222],[0.1535894097222222,-0.09846354166666667],[0.16346788194444445,-0.09032986111111112],[0.16916666666666666,-0.08606336805555556],[0.17413194444444444,-0.0819921875],[0.1762152777777778,-0.08059461805555555],[0.17713541666666666,-0.07998263888888889],[0.177421875,-0.07969184027777777],[0.177421875,-0.07969184027777777],[0.177421875,-0.07969184027777777],[0.177421875,-0.07969184027777777],[0.1766015625,-0.07969184027777777],[0.1753342013888889,-0.07937065972222222],[0.1736545138888889,-0.07905381944444445],[0.1700824652777778,-0.07706163194444444],[0.16560763888888888,-0.07347222222222222],[0.15510416666666665,-0.06296875],[0.14591145833333333,-0.05195746527777778],[0.13496961805555555,-0.0391015625],[0.1233984375,-0.02687065972222222],[0.11210503472222222,-0.0168359375],[0.10109375,-0.007643229166666667],[0.09366319444444444,-0.0002126736111111111],[0.0871484375,0.0069097222222222225],[0.08225694444444444,0.013598090277777778],[0.07970052083333333,0.017890625],[0.0782421875,0.020455729166666665],[0.07792100694444444,0.021731770833333334],[0.07763020833333334,0.022313368055555557],[0.07763020833333334,0.022313368055555557],[0.07763020833333334,0.022313368055555557],[0.07763020833333334,0.022313368055555557],[0.07763020833333334,0.022313368055555557],[0.07763020833333334,0.022313368055555557],[0.07763020833333334,0.022313368055555557],[0.07788628472222223,0.022313368055555557],[0.07788628472222223,0.022044270833333334],[0.07788628472222223,0.02177517361111111],[0.07788628472222223,0.020260416666666666]]]",1,[71],,,,,,,,,,,,,,cafeteria5.jpg,space,3.69654,0,4,4,15,1,bambooforest4.jpg,bleachers8.jpg,cabinIndoors.jpg,bar8.jpg,,
Image_List_2,,,,,,,,,,,,,,,,44146,2020-11-17_19h00.26.858,analogCatScenes,2020.1.3,MacIntel,60,"[1440,900]","[[[0.0017013888888888888,-0.19950086805555556],[0.0017013888888888888,-0.19950086805555556],[0.0017013888888888888,-0.19950086805555556],[0.0017013888888888888,-0.19950086805555556],[0.0017013888888888888,-0.19950086805555556],[0.0017013888888888888,-0.19950086805555556],[0.0017013888888888888,-0.19950086805555556],[0.0017013888888888888,-0.19950086805555556],[0.0017013888888888888,-0.19950086805555556],[0.0017013888888888888,-0.19846354166666666],[0.004448784722222222,-0.1888628472222222],[0.012964409722222223,-0.1706857638888889],[0.024735243055555557,-0.1455685763888889],[0.04625434027777778,-0.0986328125],[0.0634375,-0.05755208333333333],[0.10123697916666667,0.0512890625],[0.12452256944444444,0.13670572916666668],[0.1342578125,0.17092881944444444],[0.14399739583333335,0.21018229166666666],[0.15117621527777778,0.2466970486111111],[0.1542404513888889,0.2708159722222222],[0.15489583333333334,0.28686197916666667],[0.15489583333333334,0.3018706597222222],[0.15489583333333334,0.31680989583333335],[0.15489583333333334,0.3290190972222222],[0.15489583333333334,0.3403732638888889],[0.15489583333333334,0.346328125],[0.15489583333333334,0.3504947916666667],[0.15489583333333334,0.353515625],[0.15489583333333334,0.35444444444444445],[0.15489583333333334,0.35473524305555554],[0.1546267361111111,0.35473524305555554],[0.15427517361111112,0.3536935763888889]]]",1,[33],,,,,,,,,,,,,,track.jpg,space,1.79558,0,5,5,88,1,rooftop1.jpg,sculpturegarden4.jpg,soccerfield.jpg,sandbox.jpg,,
Image_List_2,,,,,,,,,,,,,,,,44146,2020-11-17_19h00.26.858,analogCatScenes,2020.1.3,MacIntel,60,"[1440,900]","[[[0.0020833333333333333,-0.19501736111111112],[0.0020833333333333333,-0.19501736111111112],[0.0020833333333333333,-0.19501736111111112],[0.0020833333333333333,-0.19501736111111112],[0.0020833333333333333,-0.19501736111111112],[0.0020833333333333333,-0.19501736111111112],[0.0020833333333333333,-0.19501736111111112],[0.0020833333333333333,-0.19501736111111112],[0.0020833333333333333,-0.19501736111111112],[0.0020833333333333333,-0.19501736111111112],[0.0020833333333333333,-0.19501736111111112],[0.0018229166666666667,-0.19501736111111112],[0.0012413194444444444,-0.19501736111111112],[0.00031684027777777776,-0.19501736111111112],[-0.0013585069444444445,-0.1940017361111111],[-0.004314236111111111,-0.19147569444444446],[-0.008103298611111111,-0.18812934027777778],[-0.012699652777777778,-0.18403211805555555],[-0.023467881944444446,-0.17624565972222223],[-0.03596354166666667,-0.16625],[-0.053975694444444444,-0.15328125],[-0.07392795138888889,-0.1371484375],[-0.0887890625,-0.12623697916666668],[-0.10502170138888889,-0.11282552083333333],[-0.11847222222222223,-0.10259114583333333],[-0.12860677083333333,-0.09364583333333333],[-0.13947048611111112,-0.08168836805555556],[-0.1431684027777778,-0.07658854166666666],[-0.14627604166666666,-0.07173177083333333],[-0.14874131944444444,-0.06844184027777778],[-0.150078125,-0.0667578125],[-0.15065538194444444,-0.06618055555555556],[-0.15123697916666667,-0.06618055555555556],[-0.15123697916666667,-0.06618055555555556]]]",1,[34],,,,,,,,,,,,,,farm1.jpg,space,1.5639,0,6,6,40,1,drycleaners4.jpg,drymountains.jpg,dugout1.jpg,clothingstore3.jpg,,
Image_List_2,,,,,,,,,,,,,,,,44146,2020-11-17_19h00.26.858,analogCatScenes,2020.1.3,MacIntel,60,"[1440,900]","[[[0.0030208333333333333,-0.20510416666666667],[0.0030208333333333333,-0.20510416666666667],[0.0030208333333333333,-0.20510416666666667],[0.0030208333333333333,-0.20510416666666667],[0.0030208333333333333,-0.20510416666666667],[0.0030208333333333333,-0.20510416666666667],[0.0030208333333333333,-0.20510416666666667],[0.0030208333333333333,-0.20510416666666667],[0.0030208333333333333,-0.20510416666666667],[0.0030208333333333333,-0.20510416666666667],[0.0030208333333333333,-0.20353732638888888],[0.0069401041666666665,-0.19671875],[0.022469618055555557,-0.17641927083333334],[0.0466015625,-0.14682725694444446],[0.09983072916666667,-0.08513020833333333],[0.12631510416666666,-0.055855034722222224],[0.15658854166666666,-0.021692708333333335],[0.1734939236111111,-0.0032725694444444443],[0.18296440972222222,0.0076302083333333335],[0.19118055555555555,0.017018229166666666],[0.194765625,0.021024305555555556],[0.19608940972222222,0.022703993055555555],[0.19669270833333333,0.0236328125],[0.19669270833333333,0.02390625],[0.19669270833333333,0.0241796875],[0.1964019097222222,0.024453125],[0.19512586805555557,0.02509548611111111]]]",1,[27],,,,,,,,,,,,,,photographer_studio2.jpg,space,2.0657,0,7,7,73,1,musicStore3.jpg,nursery.jpg,nursery4.jpg,library_aisle9.jpg,,
Image_List_2,,,,,,,,,,,,,,,,44146,2020-11-17_19h00.26.858,analogCatScenes,2020.1.3,MacIntel,60,"[1440,900]","[[[0.0004991319444444444,-0.20281684027777777],[0.0004991319444444444,-0.20281684027777777],[0.0004991319444444444,-0.20281684027777777],[0.0004991319444444444,-0.20281684027777777],[0.0004991319444444444,-0.20281684027777777],[0.0004991319444444444,-0.20281684027777777],[0.0004991319444444444,-0.20229600694444444],[0.0004991319444444444,-0.1942751736111111],[0.0004991319444444444,-0.1810980902777778],[0.0004991319444444444,-0.1547829861111111],[0.0004991319444444444,-0.11369791666666666],[0.0004991319444444444,-0.09769097222222223],[0.0004991319444444444,-0.08052951388888889],[0.0004991319444444444,-0.06832899305555555],[0.0004991319444444444,-0.06225260416666667],[0.0004991319444444444,-0.05565972222222222],[0.0004991319444444444,-0.05036458333333333],[0.0004991319444444444,-0.047348090277777775],[0.0004991319444444444,-0.04478298611111111],[0.0004991319444444444,-0.043506944444444445],[0.0004991319444444444,-0.042634548611111114],[0.0004991319444444444,-0.042634548611111114],[0.0004991319444444444,-0.042634548611111114],[0.0004991319444444444,-0.042634548611111114],[0.0004991319444444444,-0.042634548611111114],[0.0004991319444444444,-0.042634548611111114],[0.0004991319444444444,-0.042634548611111114],[0.0004991319444444444,-0.042634548611111114],[0.0004991319444444444,-0.042634548611111114],[0.0004991319444444444,-0.042634548611111114],[0.0004991319444444444,-0.042634548611111114],[0.0004991319444444444,-0.042634548611111114],[0.0004991319444444444,-0.042634548611111114],[0.0004991319444444444,-0.041827256944444446],[0.0004991319444444444,-0.04014322916666667],[0.0004991319444444444,-0.03805121527777778],[0.0008420138888888889,-0.035494791666666664],[0.0014973958333333334,-0.03382378472222222],[0.0024782986111111112,-0.032486979166666666],[0.0033333333333333335,-0.03190538194444444],[0.0036024305555555558,-0.03190538194444444],[0.003871527777777778,-0.03190538194444444],[0.003871527777777778,-0.03190538194444444],[0.004136284722222223,-0.03190538194444444],[0.0046875,-0.03190538194444444],[0.005256076388888889,-0.03190538194444444],[0.007057291666666667,-0.03190538194444444],[0.014457465277777777,-0.03143229166666667],[0.024032118055555555,-0.028763020833333333],[0.034440104166666666,-0.026006944444444444],[0.04404947916666667,-0.02279513888888889],[0.05012152777777778,-0.020872395833333335],[0.059071180555555554,-0.01775607638888889],[0.06639756944444444,-0.015299479166666666],[0.07522569444444445,-0.012717013888888889],[0.08401475694444445,-0.010112847222222223],[0.08936631944444444,-0.008754340277777778],[0.09859375,-0.007365451388888889],[0.1021484375,-0.007365451388888889],[0.10470052083333334,-0.007365451388888889],[0.10596788194444444,-0.007365451388888889],[0.10653645833333333,-0.007365451388888889],[0.10682291666666667,-0.007365451388888889],[0.10682291666666667,-0.007365451388888889],[0.10682291666666667,-0.007365451388888889],[0.10655815972222223,-0.007365451388888889]],[[-0.0002777777777777778,-0.20376302083333334],[-0.0002777777777777778,-0.20376302083333334],[-0.0002777777777777778,-0.20376302083333334],[-0.0002777777777777778,-0.20376302083333334],[-0.0002777777777777778,-0.20296006944444445],[-0.0002777777777777778,-0.195625],[-0.0002777777777777778,-0.1842578125],[-0.0002777777777777778,-0.1595529513888889],[-0.0002777777777777778,-0.14243489583333332],[-0.0002777777777777778,-0.12422309027777778],[-0.0002777777777777778,-0.10485243055555556],[-0.0002777777777777778,-0.0936935763888889],[-0.0002777777777777778,-0.081484375],[-0.0002777777777777778,-0.0716015625],[-0.0002777777777777778,-0.06790798611111111],[-0.0002777777777777778,-0.06327256944444444],[-0.0002777777777777778,-0.058120659722222225],[-0.0002777777777777778,-0.05508246527777778],[-0.0002777777777777778,-0.052044270833333336],[-0.0006597222222222222,-0.049014756944444446],[-0.0006597222222222222,-0.046922743055555556],[-0.0006597222222222222,-0.04436197916666667],[-0.0006597222222222222,-0.04226996527777778],[-0.0006597222222222222,-0.04017795138888889],[-0.0006597222222222222,-0.03849826388888889],[-0.0006597222222222222,-0.03682725694444444],[-0.0006597222222222222,-0.03409722222222222],[-0.0010112847222222222,-0.032413194444444446],[-0.0013932291666666667,-0.029848090277777777],[-0.001775173611111111,-0.026809895833333333],[-0.0021571180555555554,-0.02377170138888889],[-0.002951388888888889,-0.020203993055555557],[-0.004092881944444444,-0.017165798611111113],[-0.005234375,-0.014127604166666667],[-0.007135416666666667,-0.0095703125],[-0.00859375,-0.007005208333333333],[-0.009991319444444445,-0.005260416666666667],[-0.011267361111111112,-0.004301215277777778],[-0.012951388888888889,-0.0039800347222222225],[-0.015043402777777777,-0.0039800347222222225],[-0.017608506944444446,-0.0039800347222222225],[-0.02064236111111111,-0.004357638888888889],[-0.023654513888888888,-0.005855034722222222],[-0.029210069444444445,-0.00822048611111111],[-0.03276041666666667,-0.009001736111111111],[-0.035798611111111114,-0.009756944444444445],[-0.03937065972222222,-0.010164930555555556],[-0.04240885416666667,-0.010164930555555556],[-0.045946180555555556,-0.010164930555555556],[-0.049518229166666664,-0.010950520833333333],[-0.053624131944444445,-0.012178819444444445],[-0.05719618055555555,-0.013376736111111112],[-0.06076822916666667,-0.014952256944444445],[-0.06333333333333334,-0.015677083333333335],[-0.06565538194444444,-0.016341145833333334],[-0.06623697916666667,-0.016341145833333334],[-0.06652777777777778,-0.016341145833333334],[-0.06652777777777778,-0.016341145833333334],[-0.06652777777777778,-0.016341145833333334],[-0.06652777777777778,-0.016341145833333334],[-0.06652777777777778,-0.016341145833333334]]]",2,"[66,61]",,,,,,,,,,,,,,pharmacy4.jpg,space,3.60035,0,8,8,72,1,museum5.jpg,musicStore1.jpg,museum4.jpg,kindergarten_classroom.jpg,,
Image_List_2,,,,,,,,,,,,,,,,44146,2020-11-17_19h00.26.858,analogCatScenes,2020.1.3,MacIntel,60,"[1440,900]","[[[0.007625868055555556,-0.20822916666666666],[0.007625868055555556,-0.2084982638888889],[0.007625868055555556,-0.2084982638888889],[0.007625868055555556,-0.2084982638888889],[0.007625868055555556,-0.2084982638888889],[0.007625868055555556,-0.2084982638888889],[0.007625868055555556,-0.20671875],[0.006618923611111111,-0.19866319444444444],[0.000008680555555555556,-0.16950520833333332],[-0.006384548611111111,-0.14152777777777778],[-0.012526041666666666,-0.10336805555555556],[-0.01581597222222222,-0.07727430555555556],[-0.021553819444444445,-0.047899305555555556],[-0.028229166666666666,-0.024934895833333335],[-0.035130208333333336,-0.005629340277777777],[-0.04415798611111111,0.01204861111111111],[-0.05017795138888889,0.02258246527777778],[-0.05799913194444444,0.03662326388888889],[-0.06256510416666666,0.04373263888888889],[-0.06553385416666667,0.04802517361111111],[-0.0669921875,0.050590277777777776],[-0.068359375,0.05192708333333333],[-0.06963541666666667,0.052569444444444446],[-0.07021701388888889,0.05315104166666667],[-0.07079427083333334,0.0534375],[-0.07106770833333333,0.0534375],[-0.07106770833333333,0.0534375],[-0.07106770833333333,0.0534375],[-0.07106770833333333,0.0534375],[-0.07106770833333333,0.0534375],[-0.07106770833333333,0.0534375],[-0.07106770833333333,0.0534375],[-0.07106770833333333,0.0534375],[-0.07106770833333333,0.0534375],[-0.07106770833333333,0.0534375],[-0.07158854166666667,0.0534375],[-0.0722265625,0.054075520833333335],[-0.07286458333333333,0.054713541666666664]],[[-0.00009548611111111112,-0.20405815972222222],[-0.00009548611111111112,-0.20405815972222222],[-0.00009548611111111112,-0.20405815972222222],[-0.00009548611111111112,-0.20405815972222222],[-0.00009548611111111112,-0.20405815972222222],[-0.00009548611111111112,-0.20405815972222222],[-0.00009548611111111112,-0.20405815972222222],[-0.00009548611111111112,-0.20405815972222222],[-0.00009548611111111112,-0.20405815972222222],[0.0012196180555555556,-0.20405815972222222],[0.007886284722222222,-0.20405815972222222],[0.03006076388888889,-0.2032421875],[0.052235243055555554,-0.2007986111111111],[0.08847222222222222,-0.19760416666666666],[0.12197482638888889,-0.19407552083333332],[0.15393229166666667,-0.19071614583333332],[0.18179253472222223,-0.18671440972222222],[0.2203168402777778,-0.18055989583333334],[0.24693142361111112,-0.177421875],[0.2655078125,-0.17531684027777777],[0.28578125,-0.1732248263888889],[0.3018576388888889,-0.17127604166666666],[0.31202256944444445,-0.17020399305555556],[0.3208203125,-0.1696657986111111],[0.3267578125,-0.16875],[0.3297873263888889,-0.16836805555555556],[0.3314453125,-0.16836805555555556],[0.3323046875,-0.16836805555555556],[0.3325911458333333,-0.16836805555555556],[0.3325911458333333,-0.16836805555555556],[0.3325911458333333,-0.16836805555555556],[0.3325911458333333,-0.16836805555555556],[0.3325911458333333,-0.16836805555555556],[0.3325911458333333,-0.16836805555555556],[0.3325911458333333,-0.16836805555555556],[0.3325911458333333,-0.16836805555555556]]]",2,"[38,36]",,,,,,,,,,,,,,casino1.jpg,space,3.84683,0,9,9,18,1,bleachers5.jpg,brewery4.jpg,castle2.jpg,basement6.jpg,,
Image_List_2,,,,,,,,,,,,,,,,44146,2020-11-17_19h00.26.858,analogCatScenes,2020.1.3,MacIntel,60,"[1440,900]","[[[0.0012022569444444444,-0.2038324652777778],[0.0012022569444444444,-0.2038324652777778],[0.0012022569444444444,-0.2038324652777778],[0.0012022569444444444,-0.2038324652777778],[0.0012022569444444444,-0.2038324652777778],[0.0012022569444444444,-0.2038324652777778],[0.0001388888888888889,-0.2038324652777778],[-0.007977430555555555,-0.2038324652777778],[-0.0203125,-0.2038324652777778],[-0.038411458333333336,-0.2038324652777778],[-0.07130208333333334,-0.19499565972222221],[-0.08462673611111111,-0.1895095486111111],[-0.12101996527777778,-0.16811631944444444],[-0.1447265625,-0.15019965277777778],[-0.16671006944444444,-0.12984375],[-0.1784982638888889,-0.1173220486111111],[-0.1943532986111111,-0.10140190972222222],[-0.20608072916666667,-0.08907118055555556],[-0.2128125,-0.08334635416666666],[-0.21862413194444444,-0.07846354166666666],[-0.2225390625,-0.07495659722222223],[-0.22346354166666665,-0.07434895833333334],[-0.22404513888888888,-0.07405815972222222],[-0.22404513888888888,-0.07405815972222222],[-0.22404513888888888,-0.07405815972222222],[-0.22404513888888888,-0.07405815972222222],[-0.22404513888888888,-0.07405815972222222],[-0.22404513888888888,-0.07405815972222222],[-0.22404513888888888,-0.07405815972222222],[-0.2237890625,-0.07460069444444445]],[[0.0017838541666666667,-0.20125868055555557],[0.0017838541666666667,-0.20125868055555557],[0.0017838541666666667,-0.20125868055555557],[0.0017838541666666667,-0.20125868055555557],[0.0017838541666666667,-0.20125868055555557],[0.0017838541666666667,-0.20125868055555557],[0.006592881944444445,-0.20125868055555557],[0.018919270833333335,-0.20125868055555557],[0.04963107638888889,-0.20125868055555557],[0.09477864583333333,-0.20125868055555557],[0.13137152777777777,-0.19950520833333332],[0.16643229166666668,-0.19512152777777778],[0.1943923611111111,-0.1895095486111111],[0.22106770833333333,-0.1832421875],[0.2374652777777778,-0.1792404513888889],[0.2525173611111111,-0.17483072916666667],[0.2593272569444444,-0.1724175347222222],[0.2646137152777778,-0.17020833333333332],[0.2678038194444444,-0.1684592013888889],[0.2683767361111111,-0.16816840277777778],[0.2683767361111111,-0.16787760416666667],[0.2683767361111111,-0.16760416666666667],[0.2683767361111111,-0.16760416666666667],[0.2683767361111111,-0.16733940972222222],[0.2683767361111111,-0.16733940972222222],[0.26782118055555554,-0.16733940972222222],[0.26655381944444445,-0.16733940972222222]]]",2,"[30,27]",,,,,,,,,,,,,,grocerystore6.jpg,space,3.23221,0,10,10,50,1,frontLawn4.jpg,forestpath6.jpg,hallway2.jpg,fireplace4.jpg,,
Image_List_2,,,,,,,,,,,,,,,,44146,2020-11-17_19h00.26.858,analogCatScenes,2020.1.3,MacIntel,60,"[1440,900]","[[[0.0048177083333333336,-0.20320746527777778],[0.0048177083333333336,-0.20320746527777778],[0.0048177083333333336,-0.20320746527777778],[0.0048177083333333336,-0.20320746527777778],[0.0048177083333333336,-0.20320746527777778],[0.0048177083333333336,-0.20320746527777778],[0.0048177083333333336,-0.20320746527777778],[0.00012586805555555555,-0.20320746527777778],[-0.011158854166666666,-0.20320746527777778],[-0.029370659722222223,-0.20320746527777778],[-0.05470920138888889,-0.20320746527777778],[-0.0943359375,-0.20320746527777778],[-0.11079427083333333,-0.20320746527777778],[-0.1290060763888889,-0.20119791666666667],[-0.14581597222222223,-0.1979730902777778],[-0.15802517361111112,-0.19508246527777778],[-0.1693923611111111,-0.19341145833333334],[-0.1753472222222222,-0.19246527777777778],[-0.1820138888888889,-0.1915190972222222],[-0.18714409722222222,-0.19116753472222223],[-0.1884157986111111,-0.19116753472222223],[-0.1884157986111111,-0.19116753472222223],[-0.1884157986111111,-0.19116753472222223],[-0.1884157986111111,-0.19116753472222223],[-0.18815972222222221,-0.19116753472222223]],[[-0.0015104166666666666,-0.20543836805555554],[-0.0015104166666666666,-0.20543836805555554],[-0.0015104166666666666,-0.20543836805555554],[-0.0015104166666666666,-0.20543836805555554],[-0.0015104166666666666,-0.20543836805555554],[-0.0015104166666666666,-0.20543836805555554],[-0.0015104166666666666,-0.20543836805555554],[-0.0015104166666666666,-0.20543836805555554],[-0.0004470486111111111,-0.20463975694444445],[0.018046875,-0.189609375],[0.04059895833333333,-0.17165364583333334],[0.07076822916666667,-0.14717881944444444],[0.10056857638888889,-0.1261371527777778],[0.1371875,-0.10154513888888889],[0.158046875,-0.08995225694444445],[0.18661458333333333,-0.07594184027777778],[0.20309461805555556,-0.069296875],[0.2113845486111111,-0.06615017361111111],[0.22339409722222223,-0.06212673611111111],[0.2280859375,-0.06041666666666667],[0.23164930555555555,-0.059210069444444444],[0.23580729166666667,-0.057565104166666665],[0.23889756944444446,-0.05604166666666666],[0.24258680555555556,-0.053984375],[0.24561631944444445,-0.05284288194444445],[0.24729166666666666,-0.05217013888888889],[0.2482074652777778,-0.0515625],[0.24878038194444443,-0.05127170138888889],[0.24906684027777778,-0.05127170138888889],[0.24906684027777778,-0.051006944444444445],[0.24906684027777778,-0.050733506944444444],[0.24906684027777778,-0.05046006944444444],[0.24848524305555555,-0.04987847222222222],[0.2475564236111111,-0.049266493055555555],[0.2460373263888889,-0.049266493055555555]]]",2,"[25,35]",,,,,,,,,,,,,,bedroom6.jpg,space,2.681045,0,11,11,12,1,baggageClaim4.jpg,bambooforest5.jpg,bleachers7.jpg,backyard5.jpg,,
Image_List_2,,,,,,,,,,,,,,,,44146,2020-11-17_19h00.26.858,analogCatScenes,2020.1.3,MacIntel,60,"[1440,900]","[[[-0.003472222222222222,-0.20196614583333333],[-0.003472222222222222,-0.20196614583333333],[-0.003472222222222222,-0.20196614583333333],[-0.003472222222222222,-0.20196614583333333],[-0.003472222222222222,-0.20196614583333333],[-0.003472222222222222,-0.20196614583333333],[-0.003472222222222222,-0.20170572916666665],[-0.0029730902777777776,-0.19503038194444444],[0.005546875,-0.17716145833333333],[0.015130208333333334,-0.16067274305555557],[0.04052083333333333,-0.12266493055555555],[0.05857204861111111,-0.10055989583333333],[0.0839279513888889,-0.07154947916666667],[0.0965625,-0.05750434027777778],[0.10152777777777777,-0.051710069444444444],[0.10511284722222222,-0.04770399305555555],[0.10662326388888889,-0.04565104166666667],[0.10719618055555556,-0.045360243055555555],[0.10748263888888888,-0.04506944444444445],[0.10748263888888888,-0.04506944444444445],[0.10748263888888888,-0.04506944444444445],[0.10748263888888888,-0.0448046875],[0.10748263888888888,-0.0448046875],[0.10748263888888888,-0.0448046875],[0.10721788194444444,-0.0448046875],[0.10663628472222222,-0.0448046875],[0.10536024305555555,-0.0448046875],[0.10472222222222222,-0.0448046875]]]",1,[28],,,,,,,,,,,,,,hut3.jpg,space,1.56256,0,12,12,56,1,grocerystore5.jpg,golfcourse10.jpg,hut1.jpg,gasstation2.jpg,,
Image_List_2,,,,,,,,,,,,,,,,44146,2020-11-17_19h00.26.858,analogCatScenes,2020.1.3,MacIntel,60,"[1440,900]","[[[-0.0024175347222222224,-0.1958984375],[-0.0024175347222222224,-0.1958984375],[-0.0024175347222222224,-0.1958984375],[-0.0024175347222222224,-0.1958984375],[-0.0024175347222222224,-0.1958984375],[-0.0024175347222222224,-0.1958984375],[-0.0024175347222222224,-0.19238715277777776],[-0.0024175347222222224,-0.18342881944444445],[-0.0024175347222222224,-0.16521701388888888],[-0.0024175347222222224,-0.10705729166666667],[-0.0024175347222222224,-0.051427951388888886],[-0.0024175347222222224,0.04903211805555555],[-0.0024175347222222224,0.14582465277777779],[-0.0024175347222222224,0.18242621527777778],[-0.00022569444444444443,0.2456467013888889],[-0.00022569444444444443,0.2737586805555556],[-0.00022569444444444443,0.30313368055555556],[-0.00022569444444444443,0.3225],[-0.00022569444444444443,0.3383246527777778],[-0.00022569444444444443,0.344921875],[-0.00022569444444444443,0.34908854166666664],[-0.00022569444444444443,0.3512456597222222],[-0.000546875,0.3525217013888889],[-0.000546875,0.3531032986111111],[-0.000546875,0.3533767361111111],[-0.000546875,0.3533767361111111],[-0.000546875,0.3533767361111111],[-0.000546875,0.3533767361111111],[-0.000546875,0.3533767361111111],[-0.000546875,0.3533767361111111],[-0.000546875,0.35258680555555555]]]",1,[31],,,,,,,,,,,,,,wineVineyard8.jpg,space,2.21572,0,13,13,98,1,weightroom5.jpg,warehouse3.jpg,winebarrel4.jpg,winebarrel2.jpg,,
Image_List_2,,,,,,,,,,,,,,,,44146,2020-11-17_19h00.26.858,analogCatScenes,2020.1.3,MacIntel,60,"[1440,900]","[[[0.0016840277777777778,-0.204140625],[0.0016840277777777778,-0.204140625],[0.0016840277777777778,-0.204140625],[0.0016840277777777778,-0.204140625],[0.0016840277777777778,-0.204140625],[0.0016840277777777778,-0.204140625],[0.0016840277777777778,-0.204140625],[0.0016840277777777778,-0.19733072916666666],[0.010703125,-0.17915364583333335],[0.0641579861111111,-0.0930685763888889],[0.11123697916666667,-0.028680555555555556],[0.1479296875,0.0187109375],[0.19305121527777777,0.07577256944444444],[0.2194140625,0.10465277777777778],[0.2472309027777778,0.135390625],[0.25863715277777777,0.14995225694444445],[0.2723611111111111,0.1643315972222222],[0.28234375,0.17618055555555556],[0.29582899305555554,0.19024305555555557],[0.3035199652777778,0.19850694444444444],[0.3084852430555556,0.20389322916666666],[0.313671875,0.2086154513888889],[0.31643663194444444,0.21098090277777778],[0.3177039930555556,0.21194010416666667],[0.31827256944444443,0.21223090277777779],[0.31827256944444443,0.21223090277777779],[0.31827256944444443,0.21223090277777779],[0.31827256944444443,0.21223090277777779],[0.31737413194444447,0.21223090277777779],[0.3167361111111111,0.21223090277777779]]]",1,[30],,,,,,,,,,,,,,poolhall2.jpeg,space,2.03317,0,14,14,79,1,pasture.jpg,playground9.jpg,pier2.jpg,observatory2.jpg,,
Image_List_2,,,,,,,,,,,,,,,,44146,2020-11-17_19h00.26.858,analogCatScenes,2020.1.3,MacIntel,60,"[1440,900]","[[[0.005711805555555556,-0.20739149305555554],[0.005711805555555556,-0.20739149305555554],[0.005711805555555556,-0.20739149305555554],[0.005711805555555556,-0.20739149305555554],[0.005711805555555556,-0.20739149305555554],[0.005711805555555556,-0.20686631944444445],[0.005711805555555556,-0.19953125],[0.005711805555555556,-0.1774652777777778],[0.005711805555555556,-0.14034288194444444],[0.005711805555555556,-0.08464409722222223],[0.005711805555555556,0.014175347222222223],[0.005711805555555556,0.04903211805555555],[0.005711805555555556,0.0745703125],[0.005711805555555556,0.0986892361111111],[0.005711805555555556,0.10930121527777778],[0.005711805555555556,0.11898003472222222],[0.005711805555555556,0.12314670138888889],[0.005013020833333334,0.12571180555555556],[0.004401041666666667,0.126640625],[0.0038194444444444443,0.12693142361111112],[0.002890625,0.12693142361111112]]]",1,[21],,,,,,,,,,,,,,sandDunes_desert_outdoor9.jpg,space,1.46567,0,15,15,82,1,publicrestroom2.jpg,promenadeDeck3.jpg,readingroom4.jpg,postoffice4.jpg,,
Image_List_2,,,,,,,,,,,,,,,,44146,2020-11-17_19h00.26.858,analogCatScenes,2020.1.3,MacIntel,60,"[1440,900]","[[[0.001857638888888889,-0.19740885416666668],[0.001857638888888889,-0.19740885416666668],[0.001857638888888889,-0.19740885416666668],[0.001857638888888889,-0.19740885416666668],[0.001857638888888889,-0.19740885416666668],[0.001857638888888889,-0.19740885416666668],[0.001857638888888889,-0.19740885416666668],[0.001857638888888889,-0.19740885416666668],[0.004309895833333333,-0.19538628472222222],[0.01900607638888889,-0.18356336805555556],[0.04185763888888889,-0.16395833333333334],[0.07933159722222222,-0.13630642361111112],[0.12687065972222222,-0.10279079861111111],[0.17440972222222223,-0.06818142361111111],[0.20381944444444444,-0.04665798611111111],[0.23883680555555556,-0.022061631944444444],[0.26696180555555554,0.0009982638888888888],[0.2762282986111111,0.008689236111111111],[0.2827951388888889,0.014791666666666667],[0.2862890625,0.018294270833333334],[0.28723524305555553,0.01956597222222222],[0.2875217013888889,0.020143229166666665],[0.2875217013888889,0.020143229166666665],[0.2875217013888889,0.020143229166666665],[0.2869878472222222,0.020143229166666665]]]",1,[25],,,,,,,,,,,,,,yogastudio4.jpg,space,1.6323,0,16,16,99,1,wineVineyard9.jpg,windmill2.jpg,wrestlingring7.jpg,yogastudio1.jpg,,
Image_List_2,,,,,,,,,,,,,,,,44146,2020-11-17_19h00.26.858,analogCatScenes,2020.1.3,MacIntel,60,"[1440,900]","[[[-0.0038498263888888887,-0.1959548611111111],[-0.0038498263888888887,-0.1959548611111111],[-0.0038498263888888887,-0.1959548611111111],[-0.0038498263888888887,-0.1959548611111111],[-0.0038498263888888887,-0.1959548611111111],[-0.0038498263888888887,-0.1959548611111111],[-0.0038498263888888887,-0.19141059027777776],[-0.0038498263888888887,-0.18245225694444445],[-0.0038498263888888887,-0.13845052083333334],[-0.0038498263888888887,-0.09373697916666666],[-0.0038498263888888887,-0.003832465277777778],[-0.0038498263888888887,0.05012586805555556],[-0.0038498263888888887,0.09577256944444444],[-0.0038498263888888887,0.1421484375],[-0.0038498263888888887,0.1647699652777778],[-0.0038498263888888887,0.18623263888888889],[-0.0038498263888888887,0.20027777777777778],[-0.0038498263888888887,0.20710503472222222],[-0.0038498263888888887,0.2151128472222222],[-0.004171006944444444,0.216796875],[-0.0048090277777777775,0.21708767361111111],[-0.005447048611111111,0.21708767361111111]]]",1,[22],,,,,,,,,,,,,,frontLawn5.jpg,space,1.69767,0,17,17,46,1,flowershop.jpg,farmersmarket4.jpg,fountain4.jpg,dormroom6.jpg,,
Image_List_2,,,,,,,,,,,,,,,,44146,2020-11-17_19h00.26.858,analogCatScenes,2020.1.3,MacIntel,60,"[1440,900]","[[[0.005503472222222222,-0.20375],[0.005503472222222222,-0.20375],[0.005503472222222222,-0.20375],[0.005503472222222222,-0.20375],[0.005503472222222222,-0.20375],[0.005503472222222222,-0.20375],[0.005503472222222222,-0.20375],[0.005503472222222222,-0.20375],[0.005503472222222222,-0.20375],[0.005503472222222222,-0.20375],[0.005503472222222222,-0.20375],[0.005503472222222222,-0.20375],[0.005503472222222222,-0.20375],[0.005503472222222222,-0.20375],[0.005503472222222222,-0.20375],[0.005503472222222222,-0.20375],[0.005503472222222222,-0.20375],[0.005503472222222222,-0.20375],[0.005503472222222222,-0.20375],[0.005503472222222222,-0.20375],[0.005503472222222222,-0.20375],[0.005503472222222222,-0.20375],[0.005503472222222222,-0.20375],[0.005503472222222222,-0.20375],[0.005503472222222222,-0.20375],[0.005503472222222222,-0.20375],[0.005503472222222222,-0.20375],[0.005503472222222222,-0.20375],[0.005503472222222222,-0.20375],[0.005503472222222222,-0.20375],[0.005503472222222222,-0.20375],[0.005503472222222222,-0.20375],[0.005503472222222222,-0.20375],[0.005503472222222222,-0.20375],[0.005503472222222222,-0.20375],[0.005503472222222222,-0.20375],[0.005503472222222222,-0.20375],[0.005503472222222222,-0.20375],[0.005503472222222222,-0.20375],[0.005503472222222222,-0.20375],[0.005503472222222222,-0.20375],[0.005503472222222222,-0.20375],[0.005503472222222222,-0.20375],[0.005503472222222222,-0.20375],[0.005503472222222222,-0.20375],[0.005503472222222222,-0.20375],[0.005503472222222222,-0.20375],[0.005503472222222222,-0.20375],[0.005503472222222222,-0.20375],[0.005503472222222222,-0.20375],[0.005503472222222222,-0.20348958333333333],[0.005503472222222222,-0.20348958333333333],[0.005503472222222222,-0.20348958333333333],[0.005503472222222222,-0.20348958333333333],[0.005503472222222222,-0.20322916666666666],[0.005503472222222222,-0.20322916666666666],[0.005503472222222222,-0.2029644097222222],[0.005503472222222222,-0.2029644097222222],[0.005503472222222222,-0.20269965277777777],[0.005503472222222222,-0.20242621527777777],[0.005503472222222222,-0.20186197916666668],[0.006102430555555555,-0.2009375],[0.006796875,-0.19878038194444445],[0.009427083333333334,-0.18983506944444445],[0.020794270833333333,-0.1557074652777778],[0.04907118055555556,-0.07336805555555556],[0.08763888888888889,0.028046875],[0.12960069444444444,0.13662760416666667],[0.1622265625,0.21280381944444443],[0.17587239583333333,0.24258246527777777],[0.1908637152777778,0.28031684027777776],[0.195,0.2912456597222222],[0.1961935763888889,0.2948133680555556],[0.1961935763888889,0.2957421875],[0.1961935763888889,0.2960329861111111]]]",1,[75],,,,,,,,,,,,,,pavilion5.jpg,space,2.98247,0,18,18,71,1,metroInside2.jpg,metroInside3.jpg,museum3.jpg,jewelrystore.jpg,,
Image_List_2,,,,,,,,,,,,,,,,44146,2020-11-17_19h00.26.858,analogCatScenes,2020.1.3,MacIntel,60,"[1440,900]","[[[0.0020616319444444445,-0.18998697916666665],[0.0020616319444444445,-0.18998697916666665],[0.0020616319444444445,-0.18998697916666665],[0.0020616319444444445,-0.18998697916666665],[0.0020616319444444445,-0.18998697916666665],[0.0020616319444444445,-0.18998697916666665],[0.0020616319444444445,-0.18998697916666665],[0.0020616319444444445,-0.18998697916666665],[0.0020616319444444445,-0.18998697916666665],[0.0020616319444444445,-0.1879470486111111],[0.0020616319444444445,-0.17832899305555555],[0.0020616319444444445,-0.14801215277777777],[0.0020616319444444445,-0.10489583333333333],[0.0020616319444444445,-0.04243489583333333],[0.0020616319444444445,0.0248046875],[0.0020616319444444445,0.06580295138888889],[0.0020616319444444445,0.09737847222222222],[0.0020616319444444445,0.11746961805555556],[0.0020616319444444445,0.14029947916666666],[0.0020616319444444445,0.14688802083333333],[0.0020616319444444445,0.15046006944444446],[0.0016796875,0.15349826388888888],[0.0016796875,0.15454427083333333]]]",1,[23],,,,,,,,,,,,,,dock3.jpg,space,1.51189,0,19,19,35,1,deck5.jpg,cubicle7.jpg,dining_car6.jpg,carmechanic2.jpg,,
Image_List_2,,,,,,,,,,,,,,,,44146,2020-11-17_19h00.26.858,analogCatScenes,2020.1.3,MacIntel,60,"[1440,900]",[],0,[],,,,,,,,,,,,,,diningroom1.jpg,space,0.41184,0,20,20,33,1,deck1.jpg,courthouse2.jpg,diner10.jpg,cabinIndoors5.jpg,,
Image_List_2,,,,,,,,,,,,,,,,44146,2020-11-17_19h00.26.858,analogCatScenes,2020.1.3,MacIntel,60,"[1440,900]","[[[-0.0011501736111111111,-0.20336805555555557],[-0.0011501736111111111,-0.20336805555555557],[-0.0011501736111111111,-0.20336805555555557],[-0.0011501736111111111,-0.20336805555555557],[-0.0011501736111111111,-0.1967795138888889],[-0.0011501736111111111,-0.18629340277777778],[-0.0011501736111111111,-0.16911458333333335],[-0.0011501736111111111,-0.12753038194444444],[-0.0011501736111111111,-0.08287760416666666],[-0.0001171875,-0.02935329861111111],[0.004791666666666666,0.006866319444444445],[0.008546006944444445,0.03305989583333333],[0.012326388888888888,0.057139756944444446],[0.014861111111111111,0.07340277777777778],[0.015329861111111112,0.08001736111111112],[0.015329861111111112,0.08417534722222222],[0.015737847222222223,0.08686631944444445],[0.015737847222222223,0.08779079861111111],[0.015737847222222223,0.08779079861111111]]]",1,[19],,,,,,,,,,,,,,volleyballcourt4.jpg,space,1.583085,0,21,21,93,1,tollbooth8.jpg,staircase4.jpg,warehouseoutside2.jpg,tenniscourt.jpg,,
Image_List_2,,,,,,,,,,,,,,,,44146,2020-11-17_19h00.26.858,analogCatScenes,2020.1.3,MacIntel,60,"[1440,900]","[[[-0.004340277777777778,-0.2051953125],[-0.004071180555555555,-0.2051953125],[-0.004071180555555555,-0.2051953125],[-0.004071180555555555,-0.2051953125],[-0.004071180555555555,-0.2051953125],[-0.004071180555555555,-0.2051953125],[-0.004071180555555555,-0.2051953125],[-0.004071180555555555,-0.2051953125],[-0.004331597222222222,-0.2051953125],[-0.00787326388888889,-0.2051953125],[-0.016710069444444444,-0.20261284722222223],[-0.030169270833333334,-0.19708767361111112],[-0.04965711805555555,-0.18624565972222223],[-0.07346354166666667,-0.1711545138888889],[-0.098359375,-0.15286458333333333],[-0.1201736111111111,-0.13565538194444443],[-0.13332899305555557,-0.12506510416666666],[-0.14807291666666667,-0.11372395833333333],[-0.16316840277777778,-0.09982204861111112],[-0.16923611111111111,-0.09102430555555556],[-0.17252604166666666,-0.08059461805555555],[-0.17309461805555557,-0.06294704861111111],[-0.17234375,-0.04236111111111111],[-0.1573828125,-0.003754340277777778],[-0.1369748263888889,0.03707465277777778],[-0.11256076388888889,0.08284288194444445],[-0.09528211805555556,0.11663194444444444],[-0.07105034722222223,0.163046875],[-0.05931423611111111,0.1880902777777778],[-0.05417100694444445,0.198515625],[-0.05134548611111111,0.2051909722222222],[-0.050594618055555554,0.20828559027777777],[-0.049991319444444446,0.20921440972222222],[-0.049991319444444446,0.20921440972222222],[-0.049991319444444446,0.20921440972222222],[-0.05025607638888889,0.20921440972222222]]]",1,[36],,,,,,,,,,,,,,forestpath10.jpg,space,1.4128,0,22,22,43,1,exerciseequipment5.jpg,dugout2.jpg,foodcourt.jpg,diningroom3.jpg,,
Image_List_2,,,,,,,,,,,,,,,,44146,2020-11-17_19h00.26.858,analogCatScenes,2020.1.3,MacIntel,60,"[1440,900]","[[[0.0006076388888888889,-0.19219618055555557],[0.0006076388888888889,-0.19219618055555557],[0.0006076388888888889,-0.19219618055555557],[0.0006076388888888889,-0.19219618055555557],[0.0006076388888888889,-0.19219618055555557],[0.0006076388888888889,-0.19219618055555557],[-0.0007335069444444444,-0.19219618055555557],[-0.011180555555555555,-0.19219618055555557],[-0.043372395833333334,-0.19219618055555557],[-0.07759548611111111,-0.18239149305555555],[-0.10422309027777778,-0.17173611111111112],[-0.13531684027777777,-0.15614149305555555],[-0.15062065972222222,-0.14886284722222223],[-0.1660329861111111,-0.13871961805555555],[-0.17176649305555555,-0.1349392361111111],[-0.17493055555555556,-0.13294704861111112],[-0.17562934027777777,-0.13190104166666666],[-0.1762109375,-0.13132378472222223],[-0.1762109375,-0.13132378472222223],[-0.1762109375,-0.13132378472222223],[-0.1762109375,-0.13132378472222223]]]",1,[21],,,,,,,,,,,,,,dormroom9.jpg,space,1.59836,0,23,23,36,1,diner14.jpg,dining_car3.jpg,doctor1.jpg,checkoutcounter9.jpg,,
Image_List_2,,,,,,,,,,,,,,,,44146,2020-11-17_19h00.26.858,analogCatScenes,2020.1.3,MacIntel,60,"[1440,900]","[[[0.0026866319444444446,-0.20210503472222222],[0.0026866319444444446,-0.20210503472222222],[0.0026866319444444446,-0.20210503472222222],[0.0026866319444444446,-0.20210503472222222],[0.0026866319444444446,-0.20157986111111112],[0.005642361111111111,-0.19393663194444444],[0.021245659722222223,-0.17202256944444444],[0.042291666666666665,-0.1467534722222222],[0.06001302083333333,-0.12473090277777778],[0.08203559027777778,-0.09930555555555555],[0.09105902777777777,-0.0879470486111111],[0.09602430555555555,-0.08199652777777777],[0.09709635416666666,-0.07983940972222223],[0.09709635416666666,-0.07954861111111111],[0.09709635416666666,-0.07927517361111111]]]",1,[15],,,,,,,,,,,,,,frontFoyer4.jpg,space,1.64865,0,24,24,44,1,firestation2.jpg,elevatorOutside1.jpg,foodcourt6.jpg,dock2.jpg,,
Image_List_2,,,,,,,,,,,,,,,,44146,2020-11-17_19h00.26.858,analogCatScenes,2020.1.3,MacIntel,60,"[1440,900]","[[[0.0046484375,-0.20503038194444445],[0.0046484375,-0.20503038194444445],[0.0046484375,-0.20503038194444445],[0.0046484375,-0.20503038194444445],[0.0046484375,-0.20503038194444445],[0.0046484375,-0.20503038194444445],[0.0046484375,-0.20503038194444445],[0.0046484375,-0.20503038194444445],[0.0046484375,-0.20503038194444445],[0.0046484375,-0.20503038194444445],[0.01049045138888889,-0.20503038194444445],[0.022816840277777778,-0.20503038194444445],[0.044296875,-0.20503038194444445],[0.07344184027777778,-0.20503038194444445],[0.10986979166666666,-0.20415364583333334],[0.161015625,-0.19979600694444444],[0.18882378472222222,-0.1958029513888889],[0.22498697916666666,-0.19138454861111112],[0.2746354166666667,-0.18452256944444445],[0.29321180555555554,-0.18107204861111112],[0.3115364583333333,-0.1770269097222222],[0.3196440972222222,-0.17500868055555555],[0.32796875,-0.1713888888888889],[0.3328168402777778,-0.1682986111111111],[0.33759114583333333,-0.16307291666666668],[0.3414800347222222,-0.15673177083333334],[0.3444010416666667,-0.1493967013888889],[0.3471310763888889,-0.13412760416666666],[0.34825954861111114,-0.12282552083333333],[0.34825954861111114,-0.11061631944444444],[0.3471267361111111,-0.09840711805555556],[0.3436154513888889,-0.08553819444444444],[0.3389670138888889,-0.07332899305555556],[0.33500868055555555,-0.06203125],[0.33055989583333334,-0.05091145833333333],[0.3266015625,-0.039609375],[0.32285590277777776,-0.029991319444444445],[0.3190104166666667,-0.020603298611111112],[0.3167404513888889,-0.0146484375],[0.31550347222222225,-0.010542534722222222],[0.3144878472222222,-0.008389756944444444],[0.31387586805555556,-0.0074609375],[0.3129513888888889,-0.0074609375],[0.31231336805555554,-0.0074609375]],[[0.0035069444444444445,-0.19711805555555556],[0.0035069444444444445,-0.19711805555555556],[0.0035069444444444445,-0.19711805555555556],[0.0035069444444444445,-0.19711805555555556],[0.0022005208333333334,-0.19711805555555556],[-0.004474826388888889,-0.19711805555555556],[-0.014934895833333333,-0.19711805555555556],[-0.029986979166666667,-0.19711805555555556],[-0.04935329861111111,-0.19711805555555556],[-0.0721875,-0.19711805555555556],[-0.10833333333333334,-0.19711805555555556],[-0.12994791666666666,-0.19711805555555556],[-0.14362847222222222,-0.19491753472222223],[-0.1607465277777778,-0.1896484375],[-0.17395399305555556,-0.18146267361111112],[-0.18587239583333334,-0.17205295138888888],[-0.19506510416666667,-0.16104166666666667],[-0.20310329861111112,-0.14809027777777778],[-0.2093576388888889,-0.13090277777777778],[-0.2146267361111111,-0.11378472222222222],[-0.21851996527777778,-0.089140625],[-0.21980902777777778,-0.07305555555555555],[-0.21980902777777778,-0.05914496527777778],[-0.21980902777777778,-0.04602864583333333],[-0.21980902777777778,-0.03291232638888889],[-0.21980902777777778,-0.020703125],[-0.21980902777777778,-0.011128472222222222],[-0.21934895833333334,-0.005833333333333334],[-0.21633246527777777,0.002282986111111111],[-0.21158854166666666,0.01072482638888889],[-0.20799913194444444,0.015677083333333335],[-0.20388020833333334,0.020247395833333334],[-0.19916666666666666,0.025442708333333335],[-0.19501302083333333,0.029605034722222222],[-0.19045138888888888,0.03373263888888889],[-0.18818142361111112,0.03607638888888889],[-0.187265625,0.03700086805555555],[-0.187265625,0.03700086805555555]]]",2,"[44,38]",,,,,,,,,,,,,,banquetHall2.jpg,space,4.845575,0,25,25,6,1,ATM1.jpg,auto_showroom5.jpg,baggageClaim1.jpg,apartmentBuilding3.jpg,,
