image_list,key_resp_intructions.keys,key_resp_intructions.rt,key_resp_intructions_3.keys,key_resp_intructions_3.rt,PracticeComplete_2.keys,PracticeComplete_2.rt,PracticeComplete_3.keys,PracticeComplete_3.rt,demo_trials.thisRepN,demo_trials.thisTrialN,demo_trials.thisN,demo_trials.thisIndex,demo_trials.ran,demo_images,path_images,participant,date,expName,psychopyVersion,OS,frameRate,windowSize,drawing,numDrawings,drawingSizes,practice_complete.keys,practice_complete.rt,PracticeComplete.keys,PracticeComplete.rt,practice_trials.thisRepN,practice_trials.thisTrialN,practice_trials.thisN,practice_trials.thisIndex,practice_trials.ran,practice_images,feedback_images,key_resp_intructions_2.keys,key_resp_intructions_2.rt,Image_List_4,trial_complete.keys,trial_complete.rt,trials.thisRepN,trials.thisTrialN,trials.thisN,trials.thisIndex,trials.ran,Image_List_1,Image_List_2,Image_List_3,Image_List_5,key_resp.keys,key_resp.rt
Image_List_4,space,0.94216,space,0.700975,space,1.700265,space,0.335385,0,0,0,3,1,ahead_right_left.jpg,ahead_right_left_path.jpg,44146,2020-11-17_19h05.56.341,analogCatScenes,2020.1.3,MacIntel,60,,,,,,,,,,,,,,,,,,,,,,,,,,,,,,,
Image_List_4,,,,,space,0.208425,space,0.212765,0,1,1,5,1,right.jpg,right_path.jpg,44146,2020-11-17_19h05.56.341,analogCatScenes,2020.1.3,MacIntel,60,,,,,,,,,,,,,,,,,,,,,,,,,,,,,,,
Image_List_4,,,,,space,0.00085,space,0.00085,0,2,2,1,1,ahead_left.jpg,ahead_left_path.jpg,44146,2020-11-17_19h05.56.341,analogCatScenes,2020.1.3,MacIntel,60,,,,,,,,,,,,,,,,,,,,,,,,,,,,,,,
Image_List_4,,,,,space,0.121725,space,0.19957,0,3,3,2,1,ahead_right.jpg,ahead_right_path.jpg,44146,2020-11-17_19h05.56.341,analogCatScenes,2020.1.3,MacIntel,60,,,,,,,,,,,,,,,,,,,,,,,,,,,,,,,
Image_List_4,,,,,space,0.176515,space,0.23272,0,4,4,6,1,right_left.jpg,right_left_path.jpg,44146,2020-11-17_19h05.56.341,analogCatScenes,2020.1.3,MacIntel,60,,,,,,,,,,,,,,,,,,,,,,,,,,,,,,,
Image_List_4,,,,,space,0.35957,space,0.291675,0,5,5,4,1,left.jpg,left_path.jpg,44146,2020-11-17_19h05.56.341,analogCatScenes,2020.1.3,MacIntel,60,,,,,,,,,,,,,,,,,,,,,,,,,,,,,,,
Image_List_4,,,,,space,0.37224,space,0.33726,0,6,6,0,1,ahead.jpg,ahead_path.jpg,44146,2020-11-17_19h05.56.341,analogCatScenes,2020.1.3,MacIntel,60,,,,,,,,,,,,,,,,,,,,,,,,,,,,,,,
Image_List_4,,,,,,,,,,,,,,,,44146,2020-11-17_19h05.56.341,analogCatScenes,2020.1.3,MacIntel,60,"[1440,900]",[],0,[],space,0.39755,space,0.55196,0,0,0,5,1,right_2.jpg,right_2_path.jpg,,,,,,,,,,,,,,,,
Image_List_4,,,,,,,,,,,,,,,,44146,2020-11-17_19h05.56.341,analogCatScenes,2020.1.3,MacIntel,60,"[1440,900]",[],0,[],space,0.324305,space,0.276525,0,1,1,1,1,ahead_left_2.jpg,ahead_left_2_path.jpg,,,,,,,,,,,,,,,,
Image_List_4,,,,,,,,,,,,,,,,44146,2020-11-17_19h05.56.341,analogCatScenes,2020.1.3,MacIntel,60,"[1440,900]",[],0,[],space,0.90915,space,0.364965,0,2,2,6,1,right_left_2.jpg,right_left_2_path.jpg,,,,,,,,,,,,,,,,
Image_List_4,,,,,,,,,,,,,,,,44146,2020-11-17_19h05.56.341,analogCatScenes,2020.1.3,MacIntel,60,"[1440,900]",[],0,[],space,0.28534,space,0.37559,0,3,3,0,1,ahead_2.jpg,ahead_2_path.jpg,,,,,,,,,,,,,,,,
Image_List_4,,,,,,,,,,,,,,,,44146,2020-11-17_19h05.56.341,analogCatScenes,2020.1.3,MacIntel,60,"[1440,900]",[],0,[],space,0.44819,space,0.338825,0,4,4,4,1,left_2.jpg,left_2_path.jpg,,,,,,,,,,,,,,,,
Image_List_4,,,,,,,,,,,,,,,,44146,2020-11-17_19h05.56.341,analogCatScenes,2020.1.3,MacIntel,60,"[1440,900]",[],0,[],space,0.39043,space,0.3773,0,5,5,2,1,ahead_right_2.jpg,ahead_right_2_path.jpg,,,,,,,,,,,,,,,,
Image_List_4,,,,,,,,,,,,,,,,44146,2020-11-17_19h05.56.341,analogCatScenes,2020.1.3,MacIntel,60,"[1440,900]",[],0,[],space,0.477815,space,0.362925,0,6,6,3,1,ahead_right_left_2.jpg,ahead_right_left_2_path.jpg,,,,,,,,,,,,,,,,
Image_List_4,,,,,,,,,,,,,,,,44146,2020-11-17_19h05.56.341,analogCatScenes,2020.1.3,MacIntel,60,"[1440,900]","[[[-0.0020008680555555556,-0.2008420138888889],[-0.0020008680555555556,-0.2008420138888889],[-0.0020008680555555556,-0.2008420138888889],[-0.0020008680555555556,-0.2008420138888889],[-0.0020008680555555556,-0.2008420138888889],[-0.0020008680555555556,-0.2008420138888889],[-0.0020008680555555556,-0.2008420138888889],[-0.0020008680555555556,-0.19923177083333332],[-0.0020008680555555556,-0.1902734375],[-0.0020008680555555556,-0.16036458333333334],[0.0031987847222222222,-0.07368055555555555],[0.015946180555555557,-0.006440972222222222],[0.023580729166666668,0.03396701388888889],[0.029461805555555557,0.061189236111111114],[0.030837673611111113,0.07471788194444444],[0.030837673611111113,0.0851779513888889],[0.030837673611111113,0.08934461805555556],[0.030837673611111113,0.08998263888888888],[0.030282118055555557,0.08998263888888888],[0.02935329861111111,0.08998263888888888]]]",1,[20],,,,,,,,,,,,space,1.47874,courtroom2.jpg,space,1.176865,0,0,0,31,1,cubicle4.jpg,desertvegetation6.jpg,conference4.jpg,cabin3.jpg,,
Image_List_4,,,,,,,,,,,,,,,,44146,2020-11-17_19h05.56.341,analogCatScenes,2020.1.3,MacIntel,60,"[1440,900]","[[[0.003285590277777778,-0.20504340277777777],[0.003285590277777778,-0.20504340277777777],[0.003285590277777778,-0.20504340277777777],[0.003285590277777778,-0.20504340277777777],[0.003285590277777778,-0.20504340277777777],[0.003285590277777778,-0.20504340277777777],[0.003285590277777778,-0.20504340277777777],[0.003285590277777778,-0.20425347222222223],[0.006575520833333333,-0.19238715277777776],[0.017886284722222222,-0.16893663194444444],[0.05127170138888889,-0.10460069444444445],[0.09240017361111111,-0.030034722222222223],[0.1260373263888889,0.028706597222222224],[0.145546875,0.06044270833333333],[0.15600694444444443,0.07833767361111112],[0.16312065972222223,0.08956597222222222],[0.1651953125,0.09373263888888889],[0.16554253472222222,0.09541666666666666],[0.16554253472222222,0.09669270833333334],[0.16338975694444444,0.09739149305555556]]]",1,[20],,,,,,,,,,,,,,appleorchard3.jpg,space,1.14155,0,1,1,4,1,artStudio1.jpg,baggageClaim2.jpg,auto_showroom1.jpg,alley4.jpg,,
Image_List_4,,,,,,,,,,,,,,,,44146,2020-11-17_19h05.56.341,analogCatScenes,2020.1.3,MacIntel,60,"[1440,900]","[[[0.002916666666666667,-0.19520833333333334],[0.002916666666666667,-0.19520833333333334],[0.002916666666666667,-0.19520833333333334],[0.002916666666666667,-0.19520833333333334],[0.002916666666666667,-0.19520833333333334],[0.002916666666666667,-0.19520833333333334],[0.002916666666666667,-0.19520833333333334],[0.002916666666666667,-0.19149739583333333],[-0.00021701388888888888,-0.17265190972222222],[-0.005108506944444444,-0.14231770833333332],[-0.010295138888888888,-0.08879340277777778],[-0.0137109375,-0.021966145833333332],[-0.0137109375,0.020946180555555555],[-0.0137109375,0.05322048611111111],[-0.0137109375,0.0827734375],[-0.0137109375,0.0926388888888889],[-0.014153645833333334,0.10340277777777777],[-0.01447482638888889,0.10508680555555555],[-0.015086805555555555,0.106015625],[-0.015377604166666666,0.10630642361111112],[-0.01564670138888889,0.10630642361111112],[-0.01564670138888889,0.10630642361111112]]]",1,[22],,,,,,,,,,,,,,golfcourse7.jpg,space,1.22254,0,2,2,48,1,frontDoor2.jpg,golfcourse6.jpg,fittingroom5.jpg,fabricstore2.jpg,,
Image_List_4,,,,,,,,,,,,,,,,44146,2020-11-17_19h05.56.341,analogCatScenes,2020.1.3,MacIntel,60,"[1440,900]","[[[0.004071180555555555,-0.1970095486111111],[0.004071180555555555,-0.1970095486111111],[0.004071180555555555,-0.1970095486111111],[0.004071180555555555,-0.1970095486111111],[0.004071180555555555,-0.1970095486111111],[0.004071180555555555,-0.1970095486111111],[0.004071180555555555,-0.1970095486111111],[0.004071180555555555,-0.1970095486111111],[0.004535590277777778,-0.19295572916666667],[0.012486979166666667,-0.17346354166666667],[0.026883680555555556,-0.14384114583333332],[0.06466579861111112,-0.0693359375],[0.08369791666666666,-0.032035590277777776],[0.10032552083333333,-0.00375],[0.11128472222222222,0.013802083333333333],[0.12049913194444445,0.028940972222222222],[0.12373697916666666,0.034518229166666664],[0.12477430555555556,0.0366015625],[0.12509114583333333,0.03787760416666667],[0.12509114583333333,0.03845920138888889],[0.12404513888888889,0.039392361111111114],[0.12148003472222223,0.039743923611111114]]]",1,[22],,,,,,,,,,,,,,tvstudio2.jpg,space,0.99334,0,3,3,92,1,staircase.jpg,volleyballcourt.jpg,skatepark7.jpg,soccerfield2.jpg,,
Image_List_4,,,,,,,,,,,,,,,,44146,2020-11-17_19h05.56.341,analogCatScenes,2020.1.3,MacIntel,60,"[1440,900]","[[[-0.0010243055555555556,-0.20439236111111111],[-0.0010243055555555556,-0.20439236111111111],[-0.0010243055555555556,-0.20439236111111111],[-0.0010243055555555556,-0.20439236111111111],[-0.0010243055555555556,-0.20439236111111111],[-0.0010243055555555556,-0.20439236111111111],[-0.0010243055555555556,-0.20439236111111111],[-0.0036024305555555558,-0.20055989583333333],[-0.009366319444444444,-0.18959201388888888],[-0.0242578125,-0.1615625],[-0.035030381944444446,-0.13165798611111112],[-0.04123263888888889,-0.10630642361111112],[-0.04659288194444444,-0.08459201388888889],[-0.053233506944444446,-0.0617578125],[-0.058129340277777775,-0.04754774305555556],[-0.06200520833333333,-0.0370703125],[-0.06371527777777777,-0.03236979166666667],[-0.06528211805555556,-0.02930121527777778],[-0.06661892361111112,-0.0276171875],[-0.06723090277777778,-0.026688368055555557],[-0.06750868055555556,-0.026688368055555557],[-0.06750868055555556,-0.026688368055555557],[-0.06750868055555556,-0.026688368055555557]]]",1,[23],,,,,,,,,,,,,,kindergarten_classroom5.jpg,space,1.16593,0,4,4,59,1,homegarden7.jpg,library_aisle8.jpg,highway4.jpg,grocerystore3.jpg,,
Image_List_4,,,,,,,,,,,,,,,,44146,2020-11-17_19h05.56.341,analogCatScenes,2020.1.3,MacIntel,60,"[1440,900]","[[[0.0035069444444444445,-0.20310329861111112],[0.0035069444444444445,-0.20310329861111112],[0.0035069444444444445,-0.20310329861111112],[0.0035069444444444445,-0.20310329861111112],[0.0035069444444444445,-0.20310329861111112],[0.0035069444444444445,-0.20310329861111112],[0.0035069444444444445,-0.20231336805555555],[0.0074522569444444445,-0.19111111111111112],[0.02158420138888889,-0.16758680555555555],[0.0626345486111111,-0.10796440972222222],[0.1098828125,-0.04655815972222222],[0.13186631944444444,-0.022686631944444445],[0.14821180555555555,-0.006675347222222222],[0.15699652777777778,0.001015625],[0.16354166666666667,0.006566840277777777],[0.16622395833333334,0.008498263888888889],[0.16685763888888888,0.009136284722222223],[0.16712673611111112,0.009409722222222222],[0.16712673611111112,0.009991319444444445],[0.16621961805555555,0.0108984375]]]",1,[20],,,,,,,,,,,,,,baywindow5.jpg,space,1.116855,0,5,5,11,1,backyard2.jpg,basketballcourt4.jpg,bambooforest3.jpg,backyard1.jpg,,
Image_List_4,,,,,,,,,,,,,,,,44146,2020-11-17_19h05.56.341,analogCatScenes,2020.1.3,MacIntel,60,"[1440,900]","[[[0.0014366319444444444,-0.19901041666666666],[0.0014366319444444444,-0.19901041666666666],[0.0014366319444444444,-0.19901041666666666],[0.0014366319444444444,-0.19901041666666666],[0.0014366319444444444,-0.19901041666666666],[0.0006423611111111111,-0.19901041666666666],[-0.005685763888888889,-0.19901041666666666],[-0.016957465277777778,-0.19788628472222222],[-0.04043402777777778,-0.18865885416666667],[-0.07110677083333333,-0.17131076388888888],[-0.09631076388888889,-0.15423177083333334],[-0.12108072916666666,-0.13985243055555555],[-0.1344357638888889,-0.1320920138888889],[-0.14923611111111112,-0.12500434027777776],[-0.15969618055555557,-0.12060329861111112],[-0.16452256944444443,-0.11880208333333334],[-0.17047743055555556,-0.11605902777777778],[-0.17417534722222222,-0.11359375],[-0.17700086805555557,-0.11111545138888888]]]",1,[19],,,,,,,,,,,,,,appleorchard2.jpg,space,1.51226,0,6,6,3,1,apartmentBuilding2.jpg,attic1.jpg,aquarium1.jpg,alley3.jpg,,
Image_List_4,,,,,,,,,,,,,,,,44146,2020-11-17_19h05.56.341,analogCatScenes,2020.1.3,MacIntel,60,"[1440,900]","[[[0.00007378472222222222,-0.197734375],[0.00007378472222222222,-0.197734375],[0.00007378472222222222,-0.197734375],[0.00007378472222222222,-0.197734375],[0.00007378472222222222,-0.197734375],[0.00007378472222222222,-0.197734375],[-0.00018663194444444445,-0.197734375],[0.008025173611111111,-0.19448784722222223],[0.021879340277777777,-0.18696180555555555],[0.0504296875,-0.16792100694444445],[0.07842881944444445,-0.14586371527777778],[0.11135850694444445,-0.11997829861111112],[0.1300564236111111,-0.10335503472222222],[0.15418836805555555,-0.07924479166666666],[0.16864583333333333,-0.06585503472222222],[0.18145833333333333,-0.05168402777777778],[0.18894097222222223,-0.04199652777777778],[0.19205729166666666,-0.037109375],[0.1928125,-0.03407118055555555],[0.1928125,-0.03150607638888889],[0.19217447916666666,-0.029830729166666667],[0.19065538194444445,-0.02944878472222222]]]",1,[22],,,,,,,,,,,,,,cemetery.jpg,space,1.04957,0,7,7,22,1,bowlingalley5.jpg,church6.jpg,cargo5.jpg,bistrooutdoor6.jpg,,
Image_List_4,,,,,,,,,,,,,,,,44146,2020-11-17_19h05.56.341,analogCatScenes,2020.1.3,MacIntel,60,"[1440,900]","[[[-0.004188368055555555,-0.19774739583333334],[-0.004188368055555555,-0.19774739583333334],[-0.004188368055555555,-0.19774739583333334],[-0.004188368055555555,-0.19774739583333334],[-0.004188368055555555,-0.19774739583333334],[-0.004188368055555555,-0.19774739583333334],[-0.0031336805555555554,-0.19774739583333334],[0.0179296875,-0.17887586805555555],[0.04763888888888889,-0.15085069444444443],[0.09508246527777778,-0.1091015625],[0.14200086805555556,-0.07194010416666667],[0.17048177083333332,-0.051983506944444445],[0.19334635416666668,-0.036987847222222224],[0.20860677083333334,-0.027925347222222223],[0.22057725694444444,-0.021341145833333332],[0.22473524305555556,-0.0192578125],[0.22565538194444446,-0.018645833333333334],[0.2259722222222222,-0.017369791666666665]]]",1,[18],,,,,,,,,,,,,,airportTerminal3.jpg,space,1.3796,0,8,8,1,1,airportTerminal4.jpg,apartmentBuilding1.jpg,applestore1.jpg,airportTerminal2.jpg,,
Image_List_4,,,,,,,,,,,,,,,,44146,2020-11-17_19h05.56.341,analogCatScenes,2020.1.3,MacIntel,60,"[1440,900]","[[[-0.0010416666666666667,-0.2055251736111111],[-0.0010416666666666667,-0.2055251736111111],[-0.002916666666666667,-0.2055251736111111],[-0.00959201388888889,-0.2055251736111111],[-0.020030381944444446,-0.2032986111111111],[-0.042951388888888886,-0.1922829861111111],[-0.06772135416666666,-0.17868923611111112],[-0.09535590277777778,-0.160234375],[-0.11265625,-0.14845052083333332],[-0.12707899305555556,-0.13814670138888888],[-0.14249131944444443,-0.12743055555555555],[-0.15204427083333333,-0.121953125],[-0.1561892361111111,-0.11932291666666667],[-0.15675347222222222,-0.11904947916666667],[-0.15675347222222222,-0.11904947916666667],[-0.15675347222222222,-0.11904947916666667],[-0.15675347222222222,-0.11904947916666667],[-0.15675347222222222,-0.11904947916666667],[-0.15675347222222222,-0.11904947916666667],[-0.15649739583333333,-0.11904947916666667],[-0.1562109375,-0.11904947916666667],[-0.15565538194444445,-0.11904947916666667],[-0.1553862847222222,-0.11904947916666667],[-0.1553862847222222,-0.11904947916666667],[-0.15512152777777777,-0.11904947916666667]]]",1,[25],,,,,,,,,,,,,,ticket_counter6.jpg,space,2.39217,0,9,9,91,1,shoestore2.jpg,trainStation5.jpg,skatepark5.jpg,sidewalk3.jpg,,
Image_List_4,,,,,,,,,,,,,,,,44146,2020-11-17_19h05.56.341,analogCatScenes,2020.1.3,MacIntel,60,"[1440,900]",[],0,[],,,,,,,,,,,,,,basketballcourt3.jpg,space,0.51588,0,10,10,10,1,backstage2.jpg,barbershop3.jpg,ballroom4.jpg,ATM4.jpg,,
Image_List_4,,,,,,,,,,,,,,,,44146,2020-11-17_19h05.56.341,analogCatScenes,2020.1.3,MacIntel,60,"[1440,900]",[],0,[],,,,,,,,,,,,,,hotelRoom7.jpg,space,0.483385,0,11,11,55,1,greenmountains.jpg,hotelRoom3.jpg,gazebo5.jpg,frontLawn2.jpg,,
Image_List_4,,,,,,,,,,,,,,,,44146,2020-11-17_19h05.56.341,analogCatScenes,2020.1.3,MacIntel,60,"[1440,900]",[],0,[],,,,,,,,,,,,,,liquorstore.jpg,space,0.347325,0,12,12,66,1,library_aisle10.jpg,office3.jpg,laundromat3.jpg,horsebarn9.jpg,,
Image_List_4,,,,,,,,,,,,,,,,44146,2020-11-17_19h05.56.341,analogCatScenes,2020.1.3,MacIntel,60,"[1440,900]",[],0,[],,,,,,,,,,,,,,rainforest5.jpg,space,0.229535,0,13,13,81,1,promenadeDeck.jpg,ruralroad5.jpg,promenadeDeck2.jpg,pasture8.jpg,,
Image_List_4,,,,,,,,,,,,,,,,44146,2020-11-17_19h05.56.341,analogCatScenes,2020.1.3,MacIntel,60,"[1440,900]",[],0,[],,,,,,,,,,,,,,campusquad4.jpg,space,0.445115,0,14,14,16,1,basement.jpg,cafeteria6.jpg,breakroom2.jpg,barbershop2.jpg,,
Image_List_4,,,,,,,,,,,,,,,,44146,2020-11-17_19h05.56.341,analogCatScenes,2020.1.3,MacIntel,60,"[1440,900]",[],0,[],,,,,,,,,,,,,,checkoutcounter2.jpg,space,0.132345,0,15,15,25,1,campsite7.jpg,conference3.jpg,church3.jpg,botanicalGarden4.jpg,,
Image_List_4,,,,,,,,,,,,,,,,44146,2020-11-17_19h05.56.341,analogCatScenes,2020.1.3,MacIntel,60,"[1440,900]",[],0,[],,,,,,,,,,,,,,warehouseoutside2.jpg,space,0.168295,0,16,16,93,1,tollbooth8.jpg,volleyballcourt4.jpg,staircase4.jpg,tenniscourt.jpg,,
Image_List_4,,,,,,,,,,,,,,,,44146,2020-11-17_19h05.56.341,analogCatScenes,2020.1.3,MacIntel,60,"[1440,900]",[],0,[],,,,,,,,,,,,,,pavilion3.jpg,space,0.16204,0,17,17,78,1,parkinglot3.jpg,poolhall1.jpg,pier5.jpg,observatory1.jpg,,
Image_List_4,,,,,,,,,,,,,,,,44146,2020-11-17_19h05.56.341,analogCatScenes,2020.1.3,MacIntel,60,"[1440,900]",[],0,[],,,,,,,,,,,,,,doctor1.jpg,space,0.42916,0,18,18,36,1,diner14.jpg,dormroom9.jpg,dining_car3.jpg,checkoutcounter9.jpg,,
Image_List_4,,,,,,,,,,,,,,,,44146,2020-11-17_19h05.56.341,analogCatScenes,2020.1.3,MacIntel,60,"[1440,900]",[],0,[],,,,,,,,,,,,,,homegarage3.jpg,space,0.16162,0,19,19,53,1,gazebo3.jpg,homeoffice.jpg,frontLawn3.jpg,fountain.jpg,,
Image_List_4,,,,,,,,,,,,,,,,44146,2020-11-17_19h05.56.341,analogCatScenes,2020.1.3,MacIntel,60,"[1440,900]",[],0,[],,,,,,,,,,,,,,fabricstore1.jpg,space,0.160415,0,20,20,41,1,dugout4.jpg,farm3.jpg,drymountains3.jpg,dentist2.jpg,,
Image_List_4,,,,,,,,,,,,,,,,44146,2020-11-17_19h05.56.341,analogCatScenes,2020.1.3,MacIntel,60,"[1440,900]",[],0,[],,,,,,,,,,,,,,driveway8.jpg,space,0.14392,0,21,21,38,1,dining_car2.jpg,elevatorOutside4.jpg,dock1.jpg,classroom1.jpg,,
Image_List_4,,,,,,,,,,,,,,,,44146,2020-11-17_19h05.56.341,analogCatScenes,2020.1.3,MacIntel,60,"[1440,900]",[],0,[],,,,,,,,,,,,,,dining_car6.jpg,space,0.144785,0,22,22,35,1,deck5.jpg,dock3.jpg,cubicle7.jpg,carmechanic2.jpg,,
Image_List_4,,,,,,,,,,,,,,,,44146,2020-11-17_19h05.56.341,analogCatScenes,2020.1.3,MacIntel,60,"[1440,900]",[],0,[],,,,,,,,,,,,,,apartmentBuilding4.jpg,space,0.16724,0,23,23,2,1,alley1.jpg,arcade1.jpg,applestore6.jpg,airportTerminal6.jpg,,
Image_List_4,,,,,,,,,,,,,,,,44146,2020-11-17_19h05.56.341,analogCatScenes,2020.1.3,MacIntel,60,"[1440,900]",[],0,[],,,,,,,,,,,,,,constructionSite4.jpg,space,0.166925,0,24,24,29,1,cornfield2.jpg,deck2.jpg,cliff2.jpg,bridalboutique3.jpg,,
Image_List_4,,,,,,,,,,,,,,,,44146,2020-11-17_19h05.56.341,analogCatScenes,2020.1.3,MacIntel,60,"[1440,900]",[],0,[],,,,,,,,,,,,,,attic4.jpg,space,0.159305,0,25,25,5,1,artStudio3.jpg,bambooforest.jpg,auto_showroom4.jpg,amusement3.jpg,,
Image_List_4,,,,,,,,,,,,,,,,44146,2020-11-17_19h05.56.341,analogCatScenes,2020.1.3,MacIntel,60,"[1440,900]",[],0,[],,,,,,,,,,,,,,operatingroom1.jpg,space,0.163225,0,26,26,74,1,newsstand2.jpg,playground10.jpg,observatory4.jpeg,lightingstore2.jpg,,
Image_List_4,,,,,,,,,,,,,,,,44146,2020-11-17_19h05.56.341,analogCatScenes,2020.1.3,MacIntel,60,"[1440,900]",[],0,[],,,,,,,,,,,,,,baggageClaim3.jpg,space,0.167695,0,27,27,7,1,attic2.jpg,banquetHall4.jpg,backstage1.jpg,applestore2.jpg,,
Image_List_4,,,,,,,,,,,,,,,,44146,2020-11-17_19h05.56.341,analogCatScenes,2020.1.3,MacIntel,60,"[1440,900]",[],0,[],,,,,,,,,,,,,,weightroom.jpg,space,0.144995,0,28,28,94,1,treehouse.jpg,waitingroom3.jpg,staircase6.jpg,trainStation3.jpg,,
Image_List_4,,,,,,,,,,,,,,,,44146,2020-11-17_19h05.56.341,analogCatScenes,2020.1.3,MacIntel,60,"[1440,900]",[],0,[],,,,,,,,,,,,,,windmill1.jpg,space,0.149025,0,29,29,96,1,warehouse4.jpg,warehouseoutside1.jpg,tenniscourt3.jpg,warehouse1.jpg,,
Image_List_4,,,,,,,,,,,,,,,,44146,2020-11-17_19h05.56.341,analogCatScenes,2020.1.3,MacIntel,60,"[1440,900]","[[[0.007651909722222222,-0.19539496527777778],[0.007651909722222222,-0.19539496527777778],[0.007651909722222222,-0.19539496527777778],[0.007651909722222222,-0.19539496527777778],[0.007651909722222222,-0.19539496527777778],[0.007651909722222222,-0.19539496527777778],[0.007391493055555556,-0.19539496527777778],[0.0005598958333333334,-0.19539496527777778],[-0.011510416666666667,-0.19539496527777778],[-0.030876736111111112,-0.19539496527777778],[-0.05621527777777778,-0.19539496527777778],[-0.08532552083333333,-0.19295138888888888],[-0.125546875,-0.17874565972222223],[-0.13810763888888888,-0.17345052083333334],[-0.14636284722222223,-0.1698828125],[-0.1525043402777778,-0.16704427083333334],[-0.15465711805555554,-0.1666623263888889],[-0.15523871527777777,-0.1666623263888889],[-0.15523871527777777,-0.1666623263888889],[-0.15523871527777777,-0.1666623263888889]]]",1,[20],,,,,,,,,,,,,,stripmall3.jpg,space,1.29502,0,30,30,90,1,savanna5.jpg,trainStation1.jpg,sidewalk1.jpg,shoestore4.jpg,,
Image_List_4,,,,,,,,,,,,,,,,44146,2020-11-17_19h05.56.341,analogCatScenes,2020.1.3,MacIntel,60,"[1440,900]","[[[0.0015190972222222222,-0.19768229166666668],[0.0015190972222222222,-0.19768229166666668],[0.0015190972222222222,-0.19768229166666668],[0.0015190972222222222,-0.19768229166666668],[0.0015190972222222222,-0.19768229166666668],[0.0015190972222222222,-0.19768229166666668],[0.0015190972222222222,-0.19768229166666668],[0.0015190972222222222,-0.19768229166666668],[0.0020355902777777777,-0.19768229166666668],[0.021740451388888887,-0.17924479166666665],[0.05399305555555556,-0.15076822916666666],[0.09764756944444444,-0.11562934027777778],[0.1257638888888889,-0.0945920138888889],[0.1480642361111111,-0.08071180555555556],[0.1622699652777778,-0.0716796875],[0.1725,-0.0654296875],[0.17606336805555556,-0.06381510416666666],[0.17738715277777778,-0.06346354166666666],[0.17796006944444445,-0.06346354166666666],[0.17796006944444445,-0.06319444444444444],[0.1769140625,-0.0629079861111111],[0.17544270833333334,-0.0629079861111111]]]",1,[22],,,,,,,,,,,,,,clothingstore5.jpg,space,0.913265,0,31,31,28,1,churchInside1.jpg,dancestudio5.jpg,citystreet10.jpg,bridalboutique2.jpg,,
Image_List_4,,,,,,,,,,,,,,,,44146,2020-11-17_19h05.56.341,analogCatScenes,2020.1.3,MacIntel,60,"[1440,900]",[],0,[],,,,,,,,,,,,,,winebarrel4.jpg,space,0.74426,0,32,32,98,1,weightroom5.jpg,wineVineyard8.jpg,warehouse3.jpg,winebarrel2.jpg,,
Image_List_4,,,,,,,,,,,,,,,,44146,2020-11-17_19h05.56.341,analogCatScenes,2020.1.3,MacIntel,60,"[1440,900]","[[[0.002777777777777778,-0.203359375],[0.002777777777777778,-0.203359375],[0.002777777777777778,-0.203359375],[0.002777777777777778,-0.20283420138888889],[0.002777777777777778,-0.19973524305555557],[0.0015104166666666666,-0.19557291666666668],[-0.000703125,-0.1898220486111111],[-0.0036328125,-0.18248697916666667],[-0.0059375,-0.17653211805555555],[-0.0075217013888888885,-0.1719140625],[-0.008259548611111112,-0.1693923611111111],[-0.008259548611111112,-0.16846788194444445],[-0.008259548611111112,-0.16846788194444445],[-0.008259548611111112,-0.16846788194444445],[-0.008259548611111112,-0.16846788194444445],[-0.008259548611111112,-0.16846788194444445],[-0.008259548611111112,-0.16846788194444445],[-0.008259548611111112,-0.16846788194444445],[-0.008259548611111112,-0.16846788194444445],[-0.008259548611111112,-0.16846788194444445],[-0.008259548611111112,-0.16846788194444445],[-0.008259548611111112,-0.16846788194444445],[-0.008003472222222223,-0.16846788194444445],[-0.007734375,-0.16846788194444445],[-0.006818576388888889,-0.16846788194444445],[-0.004040798611111111,-0.17083333333333334],[0.0005078125,-0.17494357638888888],[0.004214409722222222,-0.1781206597222222],[0.023216145833333333,-0.2037717013888889],[0.02724392361111111,-0.21417100694444444],[0.02724392361111111,-0.2152126736111111],[0.02724392361111111,-0.2161328125],[0.02724392361111111,-0.2170529513888889],[0.02724392361111111,-0.21762586805555556],[0.026605902777777777,-0.21791232638888888],[0.024631076388888888,-0.21791232638888888],[0.02294704861111111,-0.21791232638888888],[0.02085503472222222,-0.21791232638888888],[0.01775607638888889,-0.2159809027777778],[0.014058159722222222,-0.213515625],[0.010360243055555555,-0.2110503472222222],[0.0074826388888888885,-0.20817274305555555],[0.005295138888888889,-0.20633246527777777],[0.0036371527777777778,-0.20401041666666667],[0.0033463541666666667,-0.20342881944444444],[0.0030555555555555557,-0.20313802083333332],[0.0030555555555555557,-0.20286458333333332],[0.0030555555555555557,-0.20259114583333335],[0.0030555555555555557,-0.2023220486111111],[0.0030555555555555557,-0.2023220486111111],[0.0030555555555555557,-0.20205729166666667],[0.0030555555555555557,-0.20205729166666667],[0.0030555555555555557,-0.20179253472222222],[0.0030555555555555557,-0.20179253472222222],[0.0030555555555555557,-0.20152777777777778],[0.0030555555555555557,-0.20125434027777778],[0.0030555555555555557,-0.20098090277777778],[0.0030555555555555557,-0.20070746527777777],[0.0030555555555555557,-0.20043402777777777],[0.0030555555555555557,-0.20043402777777777],[0.0020095486111111113,-0.19947048611111112],[-0.0011458333333333333,-0.19712239583333332],[-0.009548611111111112,-0.18871961805555557],[-0.017465277777777777,-0.17967447916666668],[-0.025598958333333335,-0.16978732638888888],[-0.03316840277777778,-0.1593359375],[-0.039921875,-0.14921440972222222],[-0.045421006944444446,-0.13985243055555555],[-0.048667534722222225,-0.1342751736111111],[-0.05138888888888889,-0.12836805555555555],[-0.05385416666666667,-0.12467013888888889],[-0.05493489583333333,-0.12251302083333333],[-0.05624565972222222,-0.12053819444444444],[-0.05653645833333333,-0.12024739583333334],[-0.05653645833333333,-0.12024739583333334],[-0.056805555555555554,-0.12024739583333334],[-0.056805555555555554,-0.12024739583333334],[-0.056805555555555554,-0.12024739583333334],[-0.056805555555555554,-0.12024739583333334],[-0.056805555555555554,-0.12024739583333334],[-0.056805555555555554,-0.12050347222222223],[-0.056805555555555554,-0.12078559027777777],[-0.056519097222222224,-0.12105034722222222],[-0.056519097222222224,-0.12131944444444444],[-0.05623263888888889,-0.12131944444444444],[-0.05596788194444444,-0.12158420138888888],[-0.05596788194444444,-0.12158420138888888],[-0.055681423611111114,-0.12184895833333333],[-0.055681423611111114,-0.12213107638888888],[-0.05541232638888889,-0.12268663194444444],[-0.05541232638888889,-0.12297309027777778],[-0.05514322916666667,-0.1232421875],[-0.05514322916666667,-0.12350694444444445],[-0.05514322916666667,-0.12350694444444445],[-0.05514322916666667,-0.12350694444444445],[-0.05514322916666667,-0.12350694444444445],[-0.05488715277777778,-0.12350694444444445],[-0.05461805555555556,-0.12350694444444445],[-0.05461805555555556,-0.12350694444444445],[-0.05461805555555556,-0.12350694444444445],[-0.05461805555555556,-0.1232421875],[-0.05461805555555556,-0.12236979166666667],[-0.05461805555555556,-0.12178819444444444],[-0.05490451388888889,-0.1215017361111111],[-0.05490451388888889,-0.1215017361111111],[-0.05490451388888889,-0.1215017361111111],[-0.05490451388888889,-0.1215017361111111],[-0.05490451388888889,-0.1215017361111111],[-0.05490451388888889,-0.1215017361111111],[-0.05490451388888889,-0.1215017361111111]]]",1,[110],,,,,,,,,,,,,,hut5.jpg,space,2.78017,0,33,33,57,1,hayfield5.jpg,jail1.jpg,hallway4.jpg,gazebo.jpg,,
Image_List_4,,,,,,,,,,,,,,,,44146,2020-11-17_19h05.56.341,analogCatScenes,2020.1.3,MacIntel,60,"[1440,900]","[[[0.0030078125,-0.2068142361111111],[0.0030078125,-0.2068142361111111],[0.0030078125,-0.2068142361111111],[0.0030078125,-0.2068142361111111],[0.0030078125,-0.2068142361111111],[0.0030078125,-0.2068142361111111],[0.0030078125,-0.2068142361111111],[0.0030078125,-0.20521267361111112],[0.0015538194444444445,-0.1969140625],[-0.003589409722222222,-0.18082899305555555],[-0.00935329861111111,-0.15921440972222223],[-0.018823784722222223,-0.12565972222222221],[-0.02265190972222222,-0.11155381944444444],[-0.02896267361111111,-0.09641059027777778],[-0.03368923611111111,-0.08404947916666666],[-0.0385546875,-0.07433159722222223],[-0.04114583333333333,-0.07045138888888888],[-0.04439236111111111,-0.06528211805555556],[-0.04629340277777778,-0.06262152777777778],[-0.04798177083333333,-0.06023871527777778],[-0.04829861111111111,-0.059609375],[-0.04920138888888889,-0.05838975694444445],[-0.0494921875,-0.057808159722222224],[-0.049778645833333336,-0.05752170138888889],[-0.05005208333333333,-0.05724826388888889],[-0.05005208333333333,-0.05724826388888889],[-0.050316840277777775,-0.05724826388888889],[-0.050316840277777775,-0.05724826388888889],[-0.050316840277777775,-0.05724826388888889],[-0.050316840277777775,-0.05724826388888889],[-0.050316840277777775,-0.05750434027777778],[-0.050316840277777775,-0.05842447916666667]],[[0.00014756944444444445,-0.19701388888888888],[0.00014756944444444445,-0.19701388888888888],[0.00014756944444444445,-0.19701388888888888],[0.00014756944444444445,-0.19701388888888888],[0.00014756944444444445,-0.19701388888888888],[0.00014756944444444445,-0.19701388888888888],[0.00014756944444444445,-0.19701388888888888],[0.0012022569444444444,-0.19701388888888888],[0.010030381944444444,-0.19701388888888888],[0.03264322916666667,-0.19701388888888888],[0.05694444444444444,-0.19701388888888888],[0.09816840277777777,-0.19701388888888888],[0.1494140625,-0.19701388888888888],[0.16887152777777778,-0.19701388888888888],[0.19828559027777778,-0.19701388888888888],[0.2191232638888889,-0.19701388888888888],[0.23796006944444445,-0.19701388888888888],[0.2596657986111111,-0.19701388888888888],[0.2749609375,-0.19701388888888888],[0.2868185763888889,-0.19701388888888888],[0.30148003472222223,-0.19701388888888888],[0.30563802083333336,-0.19701388888888888],[0.3073090277777778,-0.19701388888888888],[0.30787760416666665,-0.19701388888888888],[0.3081597222222222,-0.19701388888888888],[0.3081597222222222,-0.1972829861111111],[0.307890625,-0.1972829861111111],[0.3062065972222222,-0.1972829861111111],[0.3055685763888889,-0.1972829861111111]]]",2,"[32,29]",,,,,,,,,,,,,,cave5.jpg,space,3.735185,0,34,34,21,1,botanicalGarden6.jpg,cemetery6.jpg,campusquad3.jpg,beach1.jpeg,,
Image_List_4,,,,,,,,,,,,,,,,44146,2020-11-17_19h05.56.341,analogCatScenes,2020.1.3,MacIntel,60,"[1440,900]","[[[0.006627604166666667,-0.20286024305555556],[0.006627604166666667,-0.20286024305555556],[0.006627604166666667,-0.20286024305555556],[0.006627604166666667,-0.20286024305555556],[0.006627604166666667,-0.20286024305555556],[0.006627604166666667,-0.20286024305555556],[0.006627604166666667,-0.20286024305555556],[0.006627604166666667,-0.20259982638888888],[0.006627604166666667,-0.2000347222222222],[0.006627604166666667,-0.1940798611111111],[0.006627604166666667,-0.1752517361111111],[0.009635416666666667,-0.16116753472222223],[0.017361111111111112,-0.14705295138888888],[0.031762152777777775,-0.13048177083333334],[0.049058159722222223,-0.11533854166666667],[0.0692795138888889,-0.10110677083333333],[0.09253038194444445,-0.08793402777777778],[0.1181076388888889,-0.07437065972222222],[0.14564236111111112,-0.06140625],[0.1641232638888889,-0.05294270833333333],[0.195625,-0.038276909722222224],[0.21247829861111112,-0.030846354166666666],[0.22502170138888888,-0.02544704861111111],[0.231875,-0.02248263888888889],[0.23848090277777778,-0.019644097222222223],[0.24317274305555556,-0.017934027777777778],[0.24852430555555555,-0.015690104166666666],[0.2539973958333333,-0.012473958333333333],[0.26178819444444446,-0.007786458333333334],[0.2725954861111111,-0.0006770833333333334],[0.2788802083333333,0.003689236111111111],[0.28327256944444446,0.0067621527777777775],[0.2854123263888889,0.008155381944444444],[0.2863237847222222,0.008763020833333333],[0.28661024305555555,0.009344618055555556],[0.28661024305555555,0.010269097222222223],[0.28524305555555557,0.011605902777777777],[0.2841970486111111,0.011605902777777777]]]",1,[38],,,,,,,,,,,,,,park.jpg,space,1.557565,0,35,35,75,1,pantry5.jpg,playground6.jpg,operatingroom4.jpg,lockerroom.jpg,,
Image_List_4,,,,,,,,,,,,,,,,44146,2020-11-17_19h05.56.341,analogCatScenes,2020.1.3,MacIntel,60,"[1440,900]","[[[-0.003337673611111111,-0.19985243055555554],[-0.003337673611111111,-0.19985243055555554],[-0.003337673611111111,-0.19985243055555554],[-0.003337673611111111,-0.19985243055555554],[-0.003337673611111111,-0.19985243055555554],[-0.003337673611111111,-0.19985243055555554],[-0.003337673611111111,-0.19985243055555554],[-0.003337673611111111,-0.19985243055555554],[-0.003337673611111111,-0.19985243055555554],[-0.0030772569444444445,-0.19906684027777777],[0.006701388888888889,-0.1886501736111111],[0.02767361111111111,-0.1650998263888889],[0.06258246527777778,-0.12608072916666666],[0.12772135416666666,-0.06525607638888889],[0.16924479166666667,-0.026918402777777777],[0.1959201388888889,-0.002677951388888889],[0.22506076388888888,0.02744357638888889],[0.2383376736111111,0.042738715277777777],[0.24759548611111112,0.05385850694444445],[0.2551215277777778,0.06302951388888889],[0.2593967013888889,0.06876302083333333],[0.2608420138888889,0.07132378472222223],[0.2615060763888889,0.0730078125],[0.26179253472222225,0.07387586805555556],[0.26179253472222225,0.07414930555555556],[0.26179253472222225,0.07414930555555556],[0.26179253472222225,0.07414930555555556],[0.26123697916666666,0.07414930555555556],[0.2599782986111111,0.07414930555555556]]]",1,[29],,,,,,,,,,,,,,sandDunes_desert_outdoor8.jpg,space,1.298075,0,36,36,86,1,restaurant14.jpg,stripmall.jpg,ruralroad3.jpg,rooftop4.jpg,,
Image_List_4,,,,,,,,,,,,,,,,44146,2020-11-17_19h05.56.341,analogCatScenes,2020.1.3,MacIntel,60,"[1440,900]","[[[0.0009765625,-0.20043402777777777],[0.0009765625,-0.20043402777777777],[0.0009765625,-0.20043402777777777],[0.0009765625,-0.20043402777777777],[0.0009765625,-0.20043402777777777],[0.0009765625,-0.20043402777777777],[0.0009765625,-0.20043402777777777],[0.0009765625,-0.19991753472222223],[0.0009765625,-0.19509114583333334],[0.0009765625,-0.1819748263888889],[0.0009765625,-0.16260850694444445],[0.0009765625,-0.126328125],[0.0009765625,-0.100234375],[0.0009765625,-0.06520833333333333],[0.0009765625,-0.04359375],[-0.00024739583333333335,-0.029565972222222223],[-0.0013802083333333333,-0.018246527777777778],[-0.0034548611111111112,-0.009427083333333334],[-0.004461805555555556,-0.0005902777777777778],[-0.005407986111111111,0.0047699652777777775],[-0.005850694444444445,0.010065104166666667],[-0.006644965277777777,0.013637152777777778],[-0.006644965277777777,0.01677517361111111],[-0.006935763888888889,0.017703993055555554],[-0.006935763888888889,0.017977430555555556],[-0.006935763888888889,0.017977430555555556],[-0.0072048611111111115,0.017977430555555556],[-0.007473958333333333,0.017977430555555556],[-0.0077473958333333336,0.017708333333333333]]]",1,[29],,,,,,,,,,,,,,churchInside3.jpg,space,1.55052,0,37,37,26,1,campusquad2.jpg,cornfield4.jpg,church4.jpg,botanicalGarden7.jpg,,
Image_List_4,,,,,,,,,,,,,,,,44146,2020-11-17_19h05.56.341,analogCatScenes,2020.1.3,MacIntel,60,"[1440,900]","[[[-0.0014019097222222221,-0.19734375],[-0.0014019097222222221,-0.19734375],[-0.0014019097222222221,-0.19734375],[-0.0014019097222222221,-0.19734375],[-0.0014019097222222221,-0.19734375],[-0.0014019097222222221,-0.19734375],[-0.0014019097222222221,-0.19655381944444444],[0.007361111111111111,-0.18422743055555554],[0.026241319444444446,-0.16046006944444444],[0.07846354166666666,-0.10587239583333333],[0.11718315972222222,-0.06799045138888889],[0.16854166666666667,-0.023506944444444445],[0.22015190972222223,0.020286458333333333],[0.23755208333333333,0.03470052083333333],[0.2489279513888889,0.04532986111111111],[0.2582595486111111,0.053515625],[0.2623784722222222,0.05855902777777778],[0.2638932291666667,0.06165798611111111],[0.26461805555555556,0.06422309027777778],[0.26461805555555556,0.0658984375],[0.26461805555555556,0.06717447916666666],[0.2624652777777778,0.06749565972222223]]]",1,[22],,,,,,,,,,,,,,lab4.jpg,space,1.195875,0,38,38,63,1,hut2.jpg,museum6.jpg,hotelRoom2.jpg,highway2.jpg,,
Image_List_4,,,,,,,,,,,,,,,,44146,2020-11-17_19h05.56.341,analogCatScenes,2020.1.3,MacIntel,60,"[1440,900]","[[[0.002903645833333333,-0.21203559027777777],[0.002903645833333333,-0.21203559027777777],[0.002903645833333333,-0.21203559027777777],[0.002903645833333333,-0.21203559027777777],[0.002903645833333333,-0.21203559027777777],[0.002903645833333333,-0.21203559027777777],[0.002903645833333333,-0.20864583333333334],[0.0008289930555555556,-0.19096788194444445],[-0.0016189236111111111,-0.139765625],[-0.0016189236111111111,-0.06805989583333333],[-0.0016189236111111111,-0.0026085069444444445],[-0.0016189236111111111,0.0702734375],[-0.0016189236111111111,0.10998697916666667],[-0.0016189236111111111,0.14971788194444444],[-0.0016189236111111111,0.16896701388888888],[-0.0016189236111111111,0.194765625],[-0.0016189236111111111,0.20222222222222222],[-0.0016189236111111111,0.20776909722222223],[-0.0022569444444444442,0.20992621527777777]]]",1,[19],,,,,,,,,,,,,,dugout1.jpg,space,1.293615,0,39,39,40,1,drycleaners4.jpg,farm1.jpg,drymountains.jpg,clothingstore3.jpg,,
Image_List_4,,,,,,,,,,,,,,,,44146,2020-11-17_19h05.56.341,analogCatScenes,2020.1.3,MacIntel,60,"[1440,900]","[[[0.007430555555555556,-0.199375],[0.007430555555555556,-0.199375],[0.007430555555555556,-0.199375],[0.007430555555555556,-0.199375],[0.007430555555555556,-0.199375],[0.007430555555555556,-0.199375],[0.007430555555555556,-0.199375],[0.007430555555555556,-0.199375],[0.007430555555555556,-0.19859375],[0.016050347222222223,-0.18835069444444444],[0.05064670138888889,-0.1547439236111111],[0.09434027777777777,-0.11852864583333333],[0.14694010416666667,-0.07848524305555556],[0.18078559027777777,-0.05235677083333334],[0.21509114583333333,-0.024696180555555555],[0.22825086805555556,-0.013532986111111112],[0.2361545138888889,-0.006236979166666667],[0.24246527777777777,0.0011197916666666667],[0.24450086805555554,0.005199652777777778],[0.24487847222222223,0.00877170138888889],[0.24487847222222223,0.011336805555555555]]]",1,[21],,,,,,,,,,,,,,foodcourt.jpg,space,1.22654,0,40,40,43,1,exerciseequipment5.jpg,forestpath10.jpg,dugout2.jpg,diningroom3.jpg,,
Image_List_4,,,,,,,,,,,,,,,,44146,2020-11-17_19h05.56.341,analogCatScenes,2020.1.3,MacIntel,60,"[1440,900]","[[[-0.0005598958333333334,-0.20908854166666666],[-0.0005598958333333334,-0.20908854166666666],[-0.0005598958333333334,-0.20908854166666666],[-0.0005598958333333334,-0.20908854166666666],[-0.0005598958333333334,-0.20908854166666666],[-0.0005598958333333334,-0.20908854166666666],[-0.0005598958333333334,-0.20908854166666666],[-0.0005598958333333334,-0.20908854166666666],[-0.0005598958333333334,-0.20908854166666666],[-0.0005598958333333334,-0.20908854166666666],[-0.0005598958333333334,-0.20908854166666666],[-0.0005598958333333334,-0.20857204861111112],[-0.0005598958333333334,-0.19889756944444445],[-0.0005598958333333334,-0.17401041666666667],[-0.0005598958333333334,-0.13089409722222223],[-0.0005598958333333334,-0.06358940972222223],[0.009123263888888889,0.010030381944444444],[0.020143229166666665,0.058307291666666664],[0.03623697916666667,0.11860243055555555],[0.04180989583333333,0.13728732638888888],[0.044908854166666665,0.15149739583333333],[0.04575520833333333,0.15632378472222222],[0.04575520833333333,0.15696180555555556]]]",1,[23],,,,,,,,,,,,,,lab3.jpg,space,1.26451,0,41,41,62,1,hotellobby2.jpg,minigolf.jpg,horsebarn8.jpg,hayfield7.jpg,,
Image_List_4,,,,,,,,,,,,,,,,44146,2020-11-17_19h05.56.341,analogCatScenes,2020.1.3,MacIntel,60,"[1440,900]",[],0,[],,,,,,,,,,,,,,readingroom4.jpg,space,0.509955,0,42,42,82,1,publicrestroom2.jpg,sandDunes_desert_outdoor9.jpg,promenadeDeck3.jpg,postoffice4.jpg,,
Image_List_4,,,,,,,,,,,,,,,,44146,2020-11-17_19h05.56.341,analogCatScenes,2020.1.3,MacIntel,60,"[1440,900]",[],0,[],,,,,,,,,,,,,,kindergarten_classroom7.jpg,space,0.92855,0,43,43,61,1,HorseRaceTrack.jpg,metroInside4.jpg,homegarden6.jpg,hayfield6.jpg,,
Image_List_4,,,,,,,,,,,,,,,,44146,2020-11-17_19h05.56.341,analogCatScenes,2020.1.3,MacIntel,60,"[1440,900]",[],0,[],,,,,,,,,,,,,,metroInside1.jpg,space,0.20689,0,44,44,69,1,liquorstore8.jpg,parkinglot2.jpg,livingroom.jpg,icecream2.jpg,,
Image_List_4,,,,,,,,,,,,,,,,44146,2020-11-17_19h05.56.341,analogCatScenes,2020.1.3,MacIntel,60,"[1440,900]",[],0,[],,,,,,,,,,,,,,sculpturegarden2.jpg,space,0.22959,0,45,45,87,1,restaurantkitchen2.jpg,theater2.jpg,savanna.jpg,RVinside2.jpg,,
Image_List_4,,,,,,,,,,,,,,,,44146,2020-11-17_19h05.56.341,analogCatScenes,2020.1.3,MacIntel,60,"[1440,900]",[],0,[],,,,,,,,,,,,,,winebarrel3.jpg,space,0.213475,0,46,46,97,1,warehouseoutside4.jpg,wineVineyard2.jpg,waitingroom4.jpg,warehouseoutside3.jpg,,
Image_List_4,,,,,,,,,,,,,,,,44146,2020-11-17_19h05.56.341,analogCatScenes,2020.1.3,MacIntel,60,"[1440,900]",[],0,[],,,,,,,,,,,,,,fountain4.jpg,space,0.26134,0,47,47,46,1,flowershop.jpg,frontLawn5.jpg,farmersmarket4.jpg,dormroom6.jpg,,
Image_List_4,,,,,,,,,,,,,,,,44146,2020-11-17_19h05.56.341,analogCatScenes,2020.1.3,MacIntel,60,"[1440,900]",[],0,[],,,,,,,,,,,,,,closet.jpg,space,0.22712,0,48,48,27,1,castle3.jpg,courtroom3.jpg,churchInside4.jpg,brewery2.jpg,,
Image_List_4,,,,,,,,,,,,,,,,44146,2020-11-17_19h05.56.341,analogCatScenes,2020.1.3,MacIntel,60,"[1440,900]",[],0,[],,,,,,,,,,,,,,boardwalk4.jpg,space,0.24584,0,49,49,13,1,balconyIN2.jpg,bowlingalley3.jpg,beach2.jpg,backyard6.jpg,,
Image_List_4,,,,,,,,,,,,,,,,44146,2020-11-17_19h05.56.341,analogCatScenes,2020.1.3,MacIntel,60,"[1440,900]",[],0,[],,,,,,,,,,,,,,soccerfield.jpg,space,0.23225,0,50,50,88,1,rooftop1.jpg,track.jpg,sculpturegarden4.jpg,sandbox.jpg,,
Image_List_4,,,,,,,,,,,,,,,,44146,2020-11-17_19h05.56.341,analogCatScenes,2020.1.3,MacIntel,60,"[1440,900]",[],0,[],,,,,,,,,,,,,,bar.jpg,space,0.244705,0,51,51,8,1,attic3.jpg,banquetHall6.jpg,balconyIN.jpg,applestore4.jpg,,
Image_List_4,,,,,,,,,,,,,,,,44146,2020-11-17_19h05.56.341,analogCatScenes,2020.1.3,MacIntel,60,"[1440,900]",[],0,[],,,,,,,,,,,,,,castle4.jpg,space,0.2447,0,52,52,19,1,boardwalk2.jpg,casino3.jpg,cafeteria1.jpg,basketballcourt.jpg,,
Image_List_4,,,,,,,,,,,,,,,,44146,2020-11-17_19h05.56.341,analogCatScenes,2020.1.3,MacIntel,60,"[1440,900]",[],0,[],,,,,,,,,,,,,,driveway7.jpg,space,0.393375,0,53,53,37,1,dining_car.jpg,driveway4.jpg,dinosaur4.jpg,citystreet9.jpg,,
Image_List_4,,,,,,,,,,,,,,,,44146,2020-11-17_19h05.56.341,analogCatScenes,2020.1.3,MacIntel,60,"[1440,900]",[],0,[],,,,,,,,,,,,,,farm4.jpg,space,0.246425,0,54,54,42,1,exerciseequipment3.jpg,firestation3.jpg,drymountains6.jpg,desertvegetation2.jpg,,
Image_List_4,,,,,,,,,,,,,,,,44146,2020-11-17_19h05.56.341,analogCatScenes,2020.1.3,MacIntel,60,"[1440,900]",[],0,[],,,,,,,,,,,,,,diner11.jpg,space,0.246625,0,55,55,34,1,deck4.jpg,diningroom5.jpg,courthouse4.jpg,campusquad1.jpg,,
Image_List_4,,,,,,,,,,,,,,,,44146,2020-11-17_19h05.56.341,analogCatScenes,2020.1.3,MacIntel,60,"[1440,900]",[],0,[],,,,,,,,,,,,,,forestpath4.jpg,space,0.228675,0,56,56,45,1,fittingroom2.jpg,frontFoyer7.jpg,factory1.jpg,dock4.jpg,,
Image_List_4,,,,,,,,,,,,,,,,44146,2020-11-17_19h05.56.341,analogCatScenes,2020.1.3,MacIntel,60,"[1440,900]",[],0,[],,,,,,,,,,,,,,copyroom2.jpg,space,0.21311,0,57,57,30,1,courthouse1.jpg,desertvegetation3.jpg,clothingstore2.jpg,bus_shelter3.jpg,,
Image_List_4,,,,,,,,,,,,,,,,44146,2020-11-17_19h05.56.341,analogCatScenes,2020.1.3,MacIntel,60,"[1440,900]",[],0,[],,,,,,,,,,,,,,drymountains5.jpg,space,0.28252,0,58,58,39,1,driveway6.jpg,eyeglassstore9.jpg,drycleaners6.jpg,cliff5.jpg,,
Image_List_4,,,,,,,,,,,,,,,,44146,2020-11-17_19h05.56.341,analogCatScenes,2020.1.3,MacIntel,60,"[1440,900]",[],0,[],,,,,,,,,,,,,,igloo4.jpg,space,0.28264,0,59,59,58,1,highway7.jpg,lab1.jpg,hedgemaze1.jpg,grocerystore2.jpg,,
Image_List_4,,,,,,,,,,,,,,,,44146,2020-11-17_19h05.56.341,analogCatScenes,2020.1.3,MacIntel,60,"[1440,900]",[],0,[],,,,,,,,,,,,,,dentist4.jpg,space,0.279155,0,60,60,32,1,dancestudio6.jpg,diner12.jpg,constructionSite2.jpg,cabin4.jpg,,
Image_List_4,,,,,,,,,,,,,,,,44146,2020-11-17_19h05.56.341,analogCatScenes,2020.1.3,MacIntel,60,"[1440,900]",[],0,[],,,,,,,,,,,,,,lab5.jpg,space,0.244695,0,61,61,64,1,igloo2.jpg,newsstand5.jpg,jewelrystore8.jpg,homegarage2.jpg,,
Image_List_4,,,,,,,,,,,,,,,,44146,2020-11-17_19h05.56.341,analogCatScenes,2020.1.3,MacIntel,60,"[1440,900]",[],0,[],,,,,,,,,,,,,,museum3.jpg,space,0.277585,0,62,62,71,1,metroInside2.jpg,pavilion5.jpg,metroInside3.jpg,jewelrystore.jpg,,
Image_List_4,,,,,,,,,,,,,,,,44146,2020-11-17_19h05.56.341,analogCatScenes,2020.1.3,MacIntel,60,"[1440,900]",[],0,[],,,,,,,,,,,,,,nursery4.jpg,space,0.40045,0,63,63,73,1,musicStore3.jpg,photographer_studio2.jpg,nursery.jpg,library_aisle9.jpg,,
Image_List_4,,,,,,,,,,,,,,,,44146,2020-11-17_19h05.56.341,analogCatScenes,2020.1.3,MacIntel,60,"[1440,900]",[],0,[],,,,,,,,,,,,,,liquorstore2.jpg,space,0.376995,0,64,64,67,1,library_aisle3.jpg,park7.jpg,laundromat4.jpg,hospitalroom2.jpg,,
Image_List_4,,,,,,,,,,,,,,,,44146,2020-11-17_19h05.56.341,analogCatScenes,2020.1.3,MacIntel,60,"[1440,900]","[[[-0.0026302083333333334,-0.19473524305555556],[-0.002361111111111111,-0.19500434027777777],[-0.002361111111111111,-0.19500434027777777],[-0.002361111111111111,-0.19500434027777777],[-0.002361111111111111,-0.19500434027777777],[-0.002361111111111111,-0.19500434027777777],[-0.002361111111111111,-0.19500434027777777],[-0.002361111111111111,-0.19183159722222223],[0.0035026041666666665,-0.17106336805555555],[0.035972222222222225,-0.11708333333333333],[0.08022569444444444,-0.05338975694444444],[0.14299479166666668,0.021684027777777778],[0.1845095486111111,0.06320746527777778],[0.1984157986111111,0.07787760416666667],[0.21110243055555555,0.09057291666666667],[0.22171006944444444,0.10217013888888889],[0.22205729166666666,0.10424913194444445],[0.22205729166666666,0.10452256944444445],[0.22205729166666666,0.10509982638888889],[0.2194921875,0.1062109375],[0.21844618055555556,0.1062109375]],[[-0.00022135416666666666,-0.20325954861111112],[-0.00022135416666666666,-0.20325954861111112],[-0.00022135416666666666,-0.20325954861111112],[-0.00022135416666666666,-0.20325954861111112],[-0.00022135416666666666,-0.20325954861111112],[-0.0025260416666666665,-0.1999782986111111],[-0.012560763888888889,-0.1866796875],[-0.02646701388888889,-0.1650998263888889],[-0.04516059027777778,-0.1321050347222222],[-0.06712673611111111,-0.0929079861111111],[-0.08134548611111111,-0.06516059027777778],[-0.09922309027777777,-0.03303385416666667],[-0.10874565972222222,-0.01734375],[-0.1226953125,0.005230034722222222],[-0.12683159722222223,0.012248263888888888],[-0.13179253472222222,0.020538194444444446],[-0.13435763888888888,0.024769965277777778],[-0.13575520833333332,0.026861979166666668],[-0.1366796875,0.027178819444444443],[-0.1372612847222222,0.027178819444444443],[-0.1375824652777778,0.02654513888888889]]]",2,"[21,21]",,,,,,,,,,,,,,park2.jpg,space,3.763555,0,65,65,76,1,parkinggarage.jpg,playroom4.jpg,parkinggarage3.jpg,lookout4.jpg,,
Image_List_4,,,,,,,,,,,,,,,,44146,2020-11-17_19h05.56.341,analogCatScenes,2020.1.3,MacIntel,60,"[1440,900]","[[[-0.0015277777777777779,-0.19231770833333334],[-0.0015277777777777779,-0.19231770833333334],[-0.0015277777777777779,-0.19231770833333334],[-0.0015277777777777779,-0.19231770833333334],[-0.0015277777777777779,-0.19231770833333334],[-0.006627604166666667,-0.19231770833333334],[-0.018962673611111112,-0.19231770833333334],[-0.041796875,-0.19231770833333334],[-0.071171875,-0.19231770833333334],[-0.10268663194444444,-0.19231770833333334],[-0.12930989583333333,-0.19231770833333334],[-0.1437717013888889,-0.19231770833333334],[-0.15985677083333333,-0.19040364583333333],[-0.17031684027777777,-0.189296875],[-0.1816015625,-0.18682725694444444],[-0.18592881944444445,-0.18472222222222223],[-0.19109809027777777,-0.18156684027777778],[-0.19448784722222223,-0.17773871527777776],[-0.19748697916666666,-0.1734765625],[-0.1998828125,-0.16680121527777778],[-0.2017751736111111,-0.16018663194444444],[-0.20335069444444445,-0.1513498263888889],[-0.20655381944444445,-0.13604600694444444],[-0.2092534722222222,-0.11783420138888889],[-0.21448784722222222,-0.08168836805555556],[-0.21766493055555555,-0.053897569444444446],[-0.21974826388888888,-0.0347265625],[-0.22181857638888888,-0.015421006944444444],[-0.2228298611111111,-0.007122395833333333],[-0.2242795138888889,-0.0004470486111111111],[-0.22567708333333333,0.0017100694444444444],[-0.22666666666666666,0.003046875]]]",1,[32],,,,,,,,,,,,,,homegarage4.jpg,space,1.45062,0,66,66,54,1,greenhouse2.jpg,horsebarn11.jpg,gazebo2.jpg,frontFoyer.jpg,,
Image_List_4,,,,,,,,,,,,,,,,44146,2020-11-17_19h05.56.341,analogCatScenes,2020.1.3,MacIntel,60,"[1440,900]","[[[-0.0016970486111111112,-0.19707465277777778],[-0.0016970486111111112,-0.19707465277777778],[-0.0016970486111111112,-0.19707465277777778],[-0.0016970486111111112,-0.19707465277777778],[-0.0016970486111111112,-0.19707465277777778],[-0.0016970486111111112,-0.19707465277777778],[-0.0016970486111111112,-0.19707465277777778],[-0.0016970486111111112,-0.19707465277777778],[-0.0016970486111111112,-0.19707465277777778],[-0.0016970486111111112,-0.19707465277777778],[-0.0016970486111111112,-0.19707465277777778],[-0.0016970486111111112,-0.192265625],[-0.0016970486111111112,-0.1762109375],[0.0006814236111111112,-0.08889756944444445],[0.017413194444444443,0.014171006944444444],[0.04854600694444444,0.14016927083333333],[0.07165798611111111,0.21943576388888889],[0.07828125,0.2502213541666667],[0.08568576388888889,0.2833072916666667],[0.08939670138888889,0.30618489583333336],[0.09046006944444444,0.3158637152777778],[0.09046006944444444,0.31896267361111114],[0.09046006944444444,0.3198871527777778],[0.0895486111111111,0.3198871527777778]]]",1,[24],,,,,,,,,,,,,,cave4.jpg,space,1.51218,0,67,67,20,1,boardwalk6.jpg,cave.jpg,campsite3.jpg,basketballcourt7.jpg,,
Image_List_4,,,,,,,,,,,,,,,,44146,2020-11-17_19h05.56.341,analogCatScenes,2020.1.3,MacIntel,60,"[1440,900]","[[[0.011089409722222223,-0.18778645833333332],[0.011089409722222223,-0.18778645833333332],[0.011089409722222223,-0.18778645833333332],[0.011089409722222223,-0.18778645833333332],[0.011089409722222223,-0.18778645833333332],[0.011089409722222223,-0.18778645833333332],[0.004474826388888889,-0.18778645833333332],[-0.030551215277777776,-0.18778645833333332],[-0.06651909722222223,-0.1850607638888889],[-0.09378038194444445,-0.1802170138888889],[-0.12860243055555556,-0.17241319444444445],[-0.14555989583333334,-0.1688671875],[-0.16230902777777778,-0.16434461805555556],[-0.16917100694444445,-0.16273871527777778],[-0.17453125,-0.16096788194444445],[-0.17709635416666666,-0.15985677083333333],[-0.1776736111111111,-0.1595703125],[-0.17796440972222222,-0.15869791666666666],[-0.17796440972222222,-0.15840711805555555],[-0.17796440972222222,-0.15840711805555555],[-0.17796440972222222,-0.15840711805555555],[-0.17796440972222222,-0.1581423611111111],[-0.17796440972222222,-0.1578689236111111],[-0.1776953125,-0.1575954861111111],[-0.17740885416666666,-0.1573046875],[-0.17740885416666666,-0.1570138888888889],[-0.17713975694444445,-0.1567404513888889],[-0.17713975694444445,-0.1561935763888889],[-0.17713975694444445,-0.1559201388888889],[-0.17682291666666666,-0.15499131944444444],[-0.1763845486111111,-0.15129774305555554],[-0.17080729166666667,-0.13370225694444443],[-0.14976996527777778,-0.0785329861111111],[-0.11435763888888889,0.0037413194444444442],[-0.06730034722222222,0.09957899305555555],[-0.016627604166666667,0.19151041666666666],[0.0067708333333333336,0.23070746527777777],[0.022890625,0.2542578125],[0.03276041666666667,0.26742621527777777],[0.03959635416666667,0.2771310763888889],[0.04248697916666667,0.2804730902777778],[0.0434375,0.28174913194444445],[0.04401041666666667,0.28174913194444445],[0.04401041666666667,0.28174913194444445],[0.04401041666666667,0.28174913194444445],[0.04401041666666667,0.28174913194444445],[0.04401041666666667,0.28174913194444445],[0.04401041666666667,0.28174913194444445],[0.04401041666666667,0.28174913194444445],[0.04401041666666667,0.28174913194444445],[0.04401041666666667,0.28174913194444445],[0.04401041666666667,0.28174913194444445],[0.04401041666666667,0.28174913194444445]]]",1,[53],,,,,,,,,,,,,,park8.jpg,space,1.865265,0,68,68,77,1,parkinggarage2.jpg,playroom6.jpg,pasture9.jpg,mallindoor6.jpg,,
Image_List_4,,,,,,,,,,,,,,,,44146,2020-11-17_19h05.56.341,analogCatScenes,2020.1.3,MacIntel,60,"[1440,900]","[[[0.006137152777777778,-0.19407552083333332],[0.006137152777777778,-0.19407552083333332],[0.006137152777777778,-0.19407552083333332],[0.006137152777777778,-0.19407552083333332],[0.006137152777777778,-0.19407552083333332],[0.006137152777777778,-0.19407552083333332],[0.006137152777777778,-0.19407552083333332],[0.003841145833333333,-0.1910763888888889],[-0.01064670138888889,-0.17493489583333333],[-0.04271267361111111,-0.13516493055555556],[-0.06984809027777777,-0.10240885416666666],[-0.0905078125,-0.07916232638888888],[-0.1060546875,-0.06414930555555555],[-0.12078559027777777,-0.052083333333333336],[-0.12777777777777777,-0.04781684027777778],[-0.1339496527777778,-0.04397569444444444],[-0.1365060763888889,-0.04286892361111111],[-0.13819010416666666,-0.04187934027777778],[-0.13880208333333333,-0.041241319444444445],[-0.1393793402777778,-0.040373263888888886],[-0.13970052083333334,-0.03944444444444444],[-0.13998697916666666,-0.0388671875],[-0.14026041666666667,-0.03859375],[-0.14026041666666667,-0.03859375],[-0.14055121527777778,-0.03832465277777778],[-0.14055121527777778,-0.03832465277777778],[-0.14055121527777778,-0.03832465277777778],[-0.14081597222222222,-0.03832465277777778],[-0.14081597222222222,-0.03832465277777778]]]",1,[29],,,,,,,,,,,,,,foodcourt6.jpg,space,1.24639,0,69,69,44,1,firestation2.jpg,frontFoyer4.jpg,elevatorOutside1.jpg,dock2.jpg,,
Image_List_4,,,,,,,,,,,,,,,,44146,2020-11-17_19h05.56.341,analogCatScenes,2020.1.3,MacIntel,60,"[1440,900]","[[[-0.001328125,-0.19869357638888888],[-0.001328125,-0.19869357638888888],[-0.001328125,-0.19869357638888888],[-0.001328125,-0.19869357638888888],[-0.001328125,-0.19869357638888888],[-0.001328125,-0.19869357638888888],[-0.001328125,-0.19869357638888888],[-0.001328125,-0.19869357638888888],[-0.001328125,-0.19869357638888888],[-0.001328125,-0.19869357638888888],[-0.001328125,-0.19869357638888888],[-0.001328125,-0.19869357638888888],[-0.001328125,-0.19843315972222222],[-0.001328125,-0.19163194444444445],[-0.001328125,-0.1370876736111111],[-0.001328125,-0.057265625],[0.007217881944444444,0.04892361111111111],[0.01779079861111111,0.11858506944444444],[0.026024305555555554,0.16749565972222222],[0.03012152777777778,0.19621527777777778],[0.03399739583333333,0.2216796875],[0.035030381944444446,0.23063802083333335],[0.03605902777777778,0.23944444444444443],[0.03605902777777778,0.24473958333333334],[0.03605902777777778,0.2493576388888889],[0.03605902777777778,0.25104166666666666],[0.03544704861111111,0.2516796875],[0.03376302083333333,0.2516796875]]]",1,[28],,,,,,,,,,,,,,highway.jpg,space,5.34822,0,70,70,52,1,gasstation7.jpg,hardwarestore1.jpg,frontFoyer6.jpg,forestpath2.jpg,,
Image_List_4,,,,,,,,,,,,,,,,44146,2020-11-17_19h05.56.341,analogCatScenes,2020.1.3,MacIntel,60,"[1440,900]","[[[0.0034809027777777776,-0.19819878472222222],[0.0034809027777777776,-0.19819878472222222],[0.0034809027777777776,-0.19819878472222222],[0.0034809027777777776,-0.19819878472222222],[0.0034809027777777776,-0.19819878472222222],[0.0034809027777777776,-0.19819878472222222],[0.0034809027777777776,-0.19819878472222222],[0.003220486111111111,-0.19819878472222222],[-0.0011328125,-0.19725260416666668],[-0.008489583333333333,-0.19149739583333333],[-0.01837673611111111,-0.18336371527777778],[-0.0302734375,-0.1700173611111111],[-0.03868489583333334,-0.15984809027777777],[-0.042222222222222223,-0.15578125],[-0.04512152777777778,-0.1524435763888889],[-0.04645833333333333,-0.1507595486111111],[-0.04674479166666667,-0.1507595486111111],[-0.0473046875,-0.1507595486111111],[-0.0473046875,-0.1507595486111111],[-0.0473046875,-0.1507595486111111],[-0.0473046875,-0.1507595486111111],[-0.0473046875,-0.1507595486111111]]]",1,[22],,,,,,,,,,,,,,castle2.jpg,space,1.22952,0,71,71,18,1,bleachers5.jpg,casino1.jpg,brewery4.jpg,basement6.jpg,,
Image_List_4,,,,,,,,,,,,,,,,44146,2020-11-17_19h05.56.341,analogCatScenes,2020.1.3,MacIntel,60,"[1440,900]","[[[0.004401041666666667,-0.19623697916666666],[0.004401041666666667,-0.19623697916666666],[0.004401041666666667,-0.19623697916666666],[0.004401041666666667,-0.19623697916666666],[0.004401041666666667,-0.19623697916666666],[0.004401041666666667,-0.19623697916666666],[0.004401041666666667,-0.19623697916666666],[0.004401041666666667,-0.19623697916666666],[0.004401041666666667,-0.19623697916666666],[0.004401041666666667,-0.19135416666666666],[0.007530381944444445,-0.166015625],[0.022769097222222222,-0.09250868055555556],[0.03833333333333333,-0.031328125],[0.05461805555555556,0.026328125],[0.06529079861111112,0.06375868055555556],[0.07602864583333334,0.10963107638888889],[0.08053385416666667,0.13181423611111112],[0.08419704861111112,0.15443576388888888],[0.08521267361111111,0.16321614583333333],[0.08574652777777778,0.1713324652777778],[0.08574652777777778,0.17595052083333335],[0.08574652777777778,0.17687934027777777],[0.0840625,0.17755208333333333]]]",1,[23],,,,,,,,,,,,,,kindergarten_classroom6.jpg,space,1.296545,0,72,72,60,1,hometheater2.jpg,lightingstore3.jpg,homegarage.jpg,hallway.jpg,,
Image_List_4,,,,,,,,,,,,,,,,44146,2020-11-17_19h05.56.341,analogCatScenes,2020.1.3,MacIntel,60,"[1440,900]","[[[0.004401041666666667,-0.20440104166666667],[0.004401041666666667,-0.20440104166666667],[0.004401041666666667,-0.20440104166666667],[0.004401041666666667,-0.20440104166666667],[0.004401041666666667,-0.20440104166666667],[0.004401041666666667,-0.20440104166666667],[0.004401041666666667,-0.20256510416666668],[0.001267361111111111,-0.1936154513888889],[-0.002816840277777778,-0.18340711805555557],[-0.013953993055555556,-0.16022569444444446],[-0.027582465277777777,-0.13080729166666666],[-0.03673611111111111,-0.10903211805555556],[-0.04869791666666667,-0.08266493055555556],[-0.056102430555555555,-0.06657986111111111],[-0.0678515625,-0.04673177083333333],[-0.07391059027777777,-0.03794704861111111],[-0.07922743055555556,-0.031440972222222224],[-0.08213541666666667,-0.028090277777777777],[-0.08572916666666666,-0.023676215277777777],[-0.08872829861111112,-0.01982204861111111],[-0.09006510416666667,-0.018138020833333334],[-0.09064236111111111,-0.0178515625]]]",1,[22],,,,,,,,,,,,,,labClass7.jpg,space,1.396415,0,73,73,65,1,igloo5.jpg,newsstand7.jpg,laundromat2.jpeg,homeoffice8.jpg,,
Image_List_4,,,,,,,,,,,,,,,,44146,2020-11-17_19h05.56.341,analogCatScenes,2020.1.3,MacIntel,60,"[1440,900]",[],0,[],,,,,,,,,,,,,,wrestlingring7.jpg,space,0.364755,0,74,74,99,1,wineVineyard9.jpg,yogastudio4.jpg,windmill2.jpg,yogastudio1.jpg,,
Image_List_4,,,,,,,,,,,,,,,,44146,2020-11-17_19h05.56.341,analogCatScenes,2020.1.3,MacIntel,60,"[1440,900]",[],0,[],,,,,,,,,,,,,,museum4.jpg,space,0.583215,0,75,75,72,1,museum5.jpg,pharmacy4.jpg,musicStore1.jpg,kindergarten_classroom.jpg,,
Image_List_4,,,,,,,,,,,,,,,,44146,2020-11-17_19h05.56.341,analogCatScenes,2020.1.3,MacIntel,60,"[1440,900]",[],0,[],,,,,,,,,,,,,,greenhouse.jpg,space,0.4497,0,76,76,49,1,frontDoor3.jpg,greenhouse5.jpg,flowershop3.jpg,farm2.jpg,,
Image_List_4,,,,,,,,,,,,,,,,44146,2020-11-17_19h05.56.341,analogCatScenes,2020.1.3,MacIntel,60,"[1440,900]",[],0,[],,,,,,,,,,,,,,basement5.jpg,space,0.533445,0,77,77,9,1,auto_showroom3.jpg,bar2.jpg,ballroom2.jpg,arcade2.jpg,,
Image_List_4,,,,,,,,,,,,,,,,44146,2020-11-17_19h05.56.341,analogCatScenes,2020.1.3,MacIntel,60,"[1440,900]",[],0,[],,,,,,,,,,,,,,hallway2.jpg,space,0.611725,0,78,78,50,1,frontLawn4.jpg,grocerystore6.jpg,forestpath6.jpg,fireplace4.jpg,,
Image_List_4,,,,,,,,,,,,,,,,44146,2020-11-17_19h05.56.341,analogCatScenes,2020.1.3,MacIntel,60,"[1440,900]",[],0,[],,,,,,,,,,,,,,carmechanic.jpg,space,0.58192,0,79,79,17,1,bikerack1.jpg,campsite6.jpg,breakroom4.jpg,baseball6.jpg,,
Image_List_4,,,,,,,,,,,,,,,,44146,2020-11-17_19h05.56.341,analogCatScenes,2020.1.3,MacIntel,60,"[1440,900]",[],0,[],,,,,,,,,,,,,,cemetery3.jpg,space,0.56803,0,80,80,23,1,bus_shelter.jpg,church8.jpg,carmechanic4.jpeg,bleachers6.jpg,,
Image_List_4,,,,,,,,,,,,,,,,44146,2020-11-17_19h05.56.341,analogCatScenes,2020.1.3,MacIntel,60,"[1440,900]",[],0,[],,,,,,,,,,,,,,restaurant8.jpg,space,0.63123,0,81,81,83,1,readingroom1.jpg,sculpturegarden1.jpg,promenadeDeck6.jpg,readingroom2.jpg,,
Image_List_4,,,,,,,,,,,,,,,,44146,2020-11-17_19h05.56.341,analogCatScenes,2020.1.3,MacIntel,60,"[1440,900]",[],0,[],,,,,,,,,,,,,,diner10.jpg,space,4.462295,0,82,82,33,1,deck1.jpg,diningroom1.jpg,courthouse2.jpg,cabinIndoors5.jpg,,
Image_List_4,,,,,,,,,,,,,,,,44146,2020-11-17_19h05.56.341,analogCatScenes,2020.1.3,MacIntel,60,"[1440,900]",[],0,[],,,,,,,,,,,,,,sandDunes_desert_outdoor3.jpg,space,0.7131,0,83,83,85,1,recordingstudio4.jpg,sidewalk5.jpg,ruralroad2.jpg,rooftop3.jpg,,
Image_List_4,,,,,,,,,,,,,,,,44146,2020-11-17_19h05.56.341,analogCatScenes,2020.1.3,MacIntel,60,"[1440,900]",[],0,[],,,,,,,,,,,,,,cemetery5.jpg,space,0.54554,0,84,84,24,1,campsite.jpg,cliff3.jpg,cave6.jpg,boardwalk.jpg,,
Image_List_4,,,,,,,,,,,,,,,,44146,2020-11-17_19h05.56.341,analogCatScenes,2020.1.3,MacIntel,60,"[1440,900]",[],0,[],,,,,,,,,,,,,,lockerroom2.jpg,space,0.5611,0,85,85,68,1,liquorstore7.jpg,parkinglot.jpg,lightingstore4.jpg,hospitalroom3.jpg,,
Image_List_4,,,,,,,,,,,,,,,,44146,2020-11-17_19h05.56.341,analogCatScenes,2020.1.3,MacIntel,60,"[1440,900]",[],0,[],,,,,,,,,,,,,,hut1.jpg,space,0.511665,0,86,86,56,1,grocerystore5.jpg,hut3.jpg,golfcourse10.jpg,gasstation2.jpg,,
Image_List_4,,,,,,,,,,,,,,,,44146,2020-11-17_19h05.56.341,analogCatScenes,2020.1.3,MacIntel,60,"[1440,900]",[],0,[],,,,,,,,,,,,,,botanicalGarden5.jpg,space,0.44331,0,87,87,14,1,ballroom1.jpg,breakroom5.jpg,bistrooutdoor5.jpg,ballroom3.jpg,,
Image_List_4,,,,,,,,,,,,,,,,44146,2020-11-17_19h05.56.341,analogCatScenes,2020.1.3,MacIntel,60,"[1440,900]",[],0,[],,,,,,,,,,,,,,minigolf8.jpg,space,0.56272,0,88,88,70,1,lockerroom4.jpg,pavilion.jpg,lockerroom3.jpg,igloo.jpg,,
Image_List_4,,,,,,,,,,,,,,,,44146,2020-11-17_19h05.56.341,analogCatScenes,2020.1.3,MacIntel,60,"[1440,900]",[],0,[],,,,,,,,,,,,,,pier2.jpg,space,0.545545,0,89,89,79,1,pasture.jpg,poolhall2.jpeg,playground9.jpg,observatory2.jpg,,
Image_List_4,,,,,,,,,,,,,,,,44146,2020-11-17_19h05.56.341,analogCatScenes,2020.1.3,MacIntel,60,"[1440,900]",[],0,[],,,,,,,,,,,,,,baggageClaim1.jpg,space,0.51183,0,90,90,6,1,ATM1.jpg,banquetHall2.jpg,auto_showroom5.jpg,apartmentBuilding3.jpg,,
Image_List_4,,,,,,,,,,,,,,,,44146,2020-11-17_19h05.56.341,analogCatScenes,2020.1.3,MacIntel,60,"[1440,900]",[],0,[],,,,,,,,,,,,,,airplanecabin5.jpg,space,0.513945,0,91,91,0,1,airplanecabin1.jpg,alley2.jpg,appleorchard4.jpg,airplanecabin3.jpg,,
Image_List_4,,,,,,,,,,,,,,,,44146,2020-11-17_19h05.56.341,analogCatScenes,2020.1.3,MacIntel,60,"[1440,900]",[],0,[],,,,,,,,,,,,,,poolhall5.jpg,space,0.495635,0,92,92,80,1,pavilion2.jpg,racecarcourse2.jpg,porch.jpg,parkinggarage4.jpg,,
Image_List_4,,,,,,,,,,,,,,,,44146,2020-11-17_19h05.56.341,analogCatScenes,2020.1.3,MacIntel,60,"[1440,900]",[],0,[],,,,,,,,,,,,,,staircase7.jpg,space,0.51151,0,93,93,89,1,ruralroad7.jpg,track5.jpg,ShowJumping7.jpg,sculpturegarden3.jpg,,
Image_List_4,,,,,,,,,,,,,,,,44146,2020-11-17_19h05.56.341,analogCatScenes,2020.1.3,MacIntel,60,"[1440,900]",[],0,[],,,,,,,,,,,,,,fountain7.jpg,space,0.744335,0,94,94,47,1,frontDoor.jpg,gasstation8.jpg,firestation4.jpg,elevatorOutside2.jpg,,
Image_List_4,,,,,,,,,,,,,,,,44146,2020-11-17_19h05.56.341,analogCatScenes,2020.1.3,MacIntel,60,"[1440,900]",[],0,[],,,,,,,,,,,,,,weightroom4.jpg,space,0.446865,0,95,95,95,1,waitingroom2.jpg,warehouse2.jpg,stripmall6.jpg,tvstudio3.jpg,,
Image_List_4,,,,,,,,,,,,,,,,44146,2020-11-17_19h05.56.341,analogCatScenes,2020.1.3,MacIntel,60,"[1440,900]",[],0,[],,,,,,,,,,,,,,sandDunes_desert_outdoor.jpg,space,0.41115,0,96,96,84,1,readingroom5.jpg,sidewalk2.jpg,restaurant13.jpg,rooftop2.jpg,,
Image_List_4,,,,,,,,,,,,,,,,44146,2020-11-17_19h05.56.341,analogCatScenes,2020.1.3,MacIntel,60,"[1440,900]",[],0,[],,,,,,,,,,,,,,cabinIndoors.jpg,space,1.196075,0,97,97,15,1,bambooforest4.jpg,cafeteria5.jpg,bleachers8.jpg,bar8.jpg,,
Image_List_4,,,,,,,,,,,,,,,,44146,2020-11-17_19h05.56.341,analogCatScenes,2020.1.3,MacIntel,60,"[1440,900]",[],0,[],,,,,,,,,,,,,,hayfield4.jpg,space,0.69684,0,98,98,51,1,gasstation6.jpg,hallway5.jpg,frontDoor5.jpg,firestation5.jpg,,
Image_List_4,,,,,,,,,,,,,,,,44146,2020-11-17_19h05.56.341,analogCatScenes,2020.1.3,MacIntel,60,"[1440,900]","[[[0.0076605902777777775,-0.2032204861111111],[0.0076605902777777775,-0.2032204861111111],[0.0076605902777777775,-0.2032204861111111],[0.0076605902777777775,-0.2032204861111111],[0.0076605902777777775,-0.2032204861111111],[0.0076605902777777775,-0.2032204861111111],[0.0076605902777777775,-0.2032204861111111],[0.0076605902777777775,-0.2032204861111111],[0.0076605902777777775,-0.2032204861111111],[0.002599826388888889,-0.20028211805555557],[-0.0055078125,-0.1938671875],[-0.017421875,-0.18063368055555556],[-0.034830729166666664,-0.16115451388888888],[-0.062734375,-0.1205078125],[-0.08020833333333334,-0.09463975694444444],[-0.09221354166666666,-0.07831163194444445],[-0.10527777777777778,-0.06388020833333333],[-0.11256944444444444,-0.057630208333333335],[-0.11970052083333334,-0.05200086805555556],[-0.1238064236111111,-0.04953559027777778],[-0.12683159722222223,-0.0483984375],[-0.1289236111111111,-0.0476953125],[-0.1312456597222222,-0.04638454861111111],[-0.13153645833333333,-0.04638454861111111],[-0.13240451388888888,-0.045807291666666666],[-0.1326953125,-0.045807291666666666],[-0.1326953125,-0.045807291666666666],[-0.1326953125,-0.045807291666666666],[-0.1326953125,-0.045807291666666666],[-0.1326953125,-0.045807291666666666],[-0.1326953125,-0.04634982638888889]]]",1,[31],,,,,,,,,,,,,,bleachers7.jpg,space,1.7643,0,99,99,12,1,baggageClaim4.jpg,bedroom6.jpg,bambooforest5.jpg,backyard5.jpg,,
Image_List_4,,,,,,,,,,,,,,,,44146,2020-11-17_19h05.56.341,analogCatScenes,2020.1.3,MacIntel,60,,,,,,,,,,,,,,,,,,,,,,,,,,,,,,space,8.64485
