image_list,key_resp_intructions.keys,key_resp_intructions.rt,key_resp_intructions_3.keys,key_resp_intructions_3.rt,PracticeComplete_2.keys,PracticeComplete_2.rt,PracticeComplete_3.keys,PracticeComplete_3.rt,demo_trials.thisRepN,demo_trials.thisTrialN,demo_trials.thisN,demo_trials.thisIndex,demo_trials.ran,demo_images,path_images,participant,date,expName,psychopyVersion,OS,frameRate,windowSize,practice_complete.keys,practice_complete.rt,boxes_checked,PracticeComplete.keys,PracticeComplete.rt,practice_trials.thisRepN,practice_trials.thisTrialN,practice_trials.thisN,practice_trials.thisIndex,practice_trials.ran,practice_images,feedback_images,key_resp_intructions_2.keys,key_resp_intructions_2.rt,Image_List_3,trial_complete.keys,trial_complete.rt,trial_mouse.x,trial_mouse.y,trial_mouse.leftButton,trial_mouse.midButton,trial_mouse.rightButton,trial_mouse.time,trial_mouse.clicked_name,trials.thisRepN,trials.thisTrialN,trials.thisN,trials.thisIndex,trials.ran,Image_List_1,Image_List_2,Image_List_4,Image_List_5,key_resp.keys,key_resp.rt
Image_List_3,space,19.480185,space,3.94735,space,20.600015,space,1.22893,0,0,0,0,1,ahead.jpg,ahead_path.jpg,44218,2020-11-08_09h36.09.619,lingCatScenes,2020.1.3,Win32,60,,,,,,,,,,,,,,,,,,,,,,,,,,,,,,,,,,,,
Image_List_3,,,,,space,3.361075,space,4.07658,0,1,1,4,1,left.jpg,left_path.jpg,44218,2020-11-08_09h36.09.619,lingCatScenes,2020.1.3,Win32,60,,,,,,,,,,,,,,,,,,,,,,,,,,,,,,,,,,,,
Image_List_3,,,,,space,1.553545,space,2.65257,0,2,2,6,1,right_left.jpg,right_left_path.jpg,44218,2020-11-08_09h36.09.619,lingCatScenes,2020.1.3,Win32,60,,,,,,,,,,,,,,,,,,,,,,,,,,,,,,,,,,,,
Image_List_3,,,,,space,2.54575,space,1.69596,0,3,3,5,1,right.jpg,right_path.jpg,44218,2020-11-08_09h36.09.619,lingCatScenes,2020.1.3,Win32,60,,,,,,,,,,,,,,,,,,,,,,,,,,,,,,,,,,,,
Image_List_3,,,,,space,3.29402,space,2.331505,0,4,4,3,1,ahead_right_left.jpg,ahead_right_left_path.jpg,44218,2020-11-08_09h36.09.619,lingCatScenes,2020.1.3,Win32,60,,,,,,,,,,,,,,,,,,,,,,,,,,,,,,,,,,,,
Image_List_3,,,,,space,3.108645,space,2.33955,0,5,5,2,1,ahead_right.jpg,ahead_right_path.jpg,44218,2020-11-08_09h36.09.619,lingCatScenes,2020.1.3,Win32,60,,,,,,,,,,,,,,,,,,,,,,,,,,,,,,,,,,,,
Image_List_3,,,,,space,1.96175,space,3.511895,0,6,6,1,1,ahead_left.jpg,ahead_left_path.jpg,44218,2020-11-08_09h36.09.619,lingCatScenes,2020.1.3,Win32,60,,,,,,,,,,,,,,,,,,,,,,,,,,,,,,,,,,,,
Image_List_3,,,,,,,,,,,,,,,,44218,2020-11-08_09h36.09.619,lingCatScenes,2020.1.3,Win32,60,"[1707,960]",space,2.805825,[],space,1.08052,0,0,0,3,1,ahead_right_left_2.jpg,ahead_right_left_2_path.jpg,,,,,,,,,,,,,,,,,,,,,,,
Image_List_3,,,,,,,,,,,,,,,,44218,2020-11-08_09h36.09.619,lingCatScenes,2020.1.3,Win32,60,"[1707,960]",space,9.56472,"[""ahead_box""]",space,1.378835,0,1,1,0,1,ahead_2.jpg,ahead_2_path.jpg,,,,,,,,,,,,,,,,,,,,,,,
Image_List_3,,,,,,,,,,,,,,,,44218,2020-11-08_09h36.09.619,lingCatScenes,2020.1.3,Win32,60,"[1707,960]",space,3.959825,"[""ahead_box""]",space,1.235955,0,2,2,2,1,ahead_right_2.jpg,ahead_right_2_path.jpg,,,,,,,,,,,,,,,,,,,,,,,
Image_List_3,,,,,,,,,,,,,,,,44218,2020-11-08_09h36.09.619,lingCatScenes,2020.1.3,Win32,60,"[1707,960]",space,4.96553,"[""slight_right_box""]",space,3.042595,0,3,3,6,1,right_left_2.jpg,right_left_2_path.jpg,,,,,,,,,,,,,,,,,,,,,,,
Image_List_3,,,,,,,,,,,,,,,,44218,2020-11-08_09h36.09.619,lingCatScenes,2020.1.3,Win32,60,"[1707,960]",space,7.22912,"[""ahead_box""]",space,0.98408,0,4,4,1,1,ahead_left_2.jpg,ahead_left_2_path.jpg,,,,,,,,,,,,,,,,,,,,,,,
Image_List_3,,,,,,,,,,,,,,,,44218,2020-11-08_09h36.09.619,lingCatScenes,2020.1.3,Win32,60,"[1707,960]",space,4.460695,"[""right_box""]",space,1.58727,0,5,5,5,1,right_2.jpg,right_2_path.jpg,,,,,,,,,,,,,,,,,,,,,,,
Image_List_3,,,,,,,,,,,,,,,,44218,2020-11-08_09h36.09.619,lingCatScenes,2020.1.3,Win32,60,"[1707,960]",space,2.670075,"[""sharp_left_box""]",space,1.05636,0,6,6,4,1,left_2.jpg,left_2_path.jpg,,,,,,,,,,,,,,,,,,,,,,,
Image_List_3,,,,,,,,,,,,,,,,44218,2020-11-08_09h36.09.619,lingCatScenes,2020.1.3,Win32,60,"[1707,960]",,,"[""trial_right_box""]",,,,,,,,,,space,2.71756,campusquad3.jpg,space,4.305365,[0.3813078798353672],[-0.3041666726581752],[1],[0],[0],[3.6437600000062957],"[""trial_right_box""]",0,0,0,21,1,botanicalGarden6.jpg,cemetery6.jpg,cave5.jpg,beach1.jpeg,,
Image_List_3,,,,,,,,,,,,,,,,44218,2020-11-08_09h36.09.619,lingCatScenes,2020.1.3,Win32,60,"[1707,960]",,,"[""trial_right_box""]",,,,,,,,,,,,fittingroom5.jpg,space,2.010935,[0.3836226946674287],[-0.3194444505497813],[1],[0],[0],[1.3937600000062957],"[""trial_right_box""]",0,1,1,48,1,frontDoor2.jpg,golfcourse6.jpg,golfcourse7.jpg,fabricstore2.jpg,,
Image_List_3,,,,,,,,,,,,,,,,44218,2020-11-08_09h36.09.619,lingCatScenes,2020.1.3,Win32,60,"[1707,960]",,,"[""trial_ahead_box""]",,,,,,,,,,,,promenadeDeck3.jpg,space,3.51563,"[0.03223380316048861,-0.0038773082196712494]","[-0.30833333935588597,-0.3097222282551229]","[1,1]","[0,0]","[0,0]","[2.441950000007637,2.9750549999880604]","[""trial_ahead_box""]",0,2,2,82,1,publicrestroom2.jpg,sandDunes_desert_outdoor9.jpg,readingroom4.jpg,postoffice4.jpg,,
Image_List_3,,,,,,,,,,,,,,,,44218,2020-11-08_09h36.09.619,lingCatScenes,2020.1.3,Win32,60,"[1707,960]",,,"[""trial_slight_left_box""]",,,,,,,,,,,,waitingroom4.jpg,space,3.92951,[-0.18721064291894435],[-0.3097222282551229],[1],[0],[0],[3.0128850000328384],"[""trial_slight_left_box""]",0,3,3,97,1,warehouseoutside4.jpg,wineVineyard2.jpg,winebarrel3.jpg,warehouseoutside3.jpg,,
Image_List_3,,,,,,,,,,,,,,,,44218,2020-11-08_09h36.09.619,lingCatScenes,2020.1.3,Win32,60,"[1707,960]",,,"[""trial_ahead_box""]",,,,,,,,,,,,dining_car3.jpg,space,2.717455,"[-0.0057291600853204725,-0.0057291600853204725]","[-0.33194445064291356,-0.29027778366580603]","[1,1]","[0,0]","[0,0]","[1.5420849999645725,2.191934999951627]","[""trial_ahead_box""]",0,4,4,36,1,diner14.jpg,dormroom9.jpg,doctor1.jpg,checkoutcounter9.jpg,,
Image_List_3,,,,,,,,,,,,,,,,44218,2020-11-08_09h36.09.619,lingCatScenes,2020.1.3,Win32,60,"[1707,960]",,,"[""trial_slight_left_box"",""trial_left_box""]",,,,,,,,,,,,playground9.jpg,space,3.23477,"[-0.20017360597848893,-0.3881365703418851]","[-0.31435185791924597,-0.3018518578261137]","[1,1]","[0,0]","[0,0]","[1.7587850000127219,2.641409999981988]","[""trial_slight_left_box"",""trial_left_box""]",0,5,5,79,1,pasture.jpg,poolhall2.jpeg,pier2.jpg,observatory2.jpg,,
Image_List_3,,,,,,,,,,,,,,,,44218,2020-11-08_09h36.09.619,lingCatScenes,2020.1.3,Win32,60,"[1707,960]",,,"[""trial_ahead_box""]",,,,,,,,,,,,church3.jpg,space,5.319435,[-0.0015624933876097202],[-0.3097222282551229],[1],[0],[0],[4.7711550000240095],"[""trial_ahead_box""]",0,6,6,25,1,campsite7.jpg,conference3.jpg,checkoutcounter2.jpg,botanicalGarden4.jpg,,
Image_List_3,,,,,,,,,,,,,,,,44218,2020-11-08_09h36.09.619,lingCatScenes,2020.1.3,Win32,60,"[1707,960]",,,"[""trial_slight_right_box"",""trial_right_box""]",,,,,,,,,,,,courthouse2.jpg,space,5.96638,"[0.22482639718800784,0.41093750968575476,0.4058449170552194]","[-0.3027777837589383,-0.32870370987802744,-0.2847222280688584]","[1,1,1]","[0,0,0]","[0,0,0]","[2.4905349999899045,3.4568549999967217,5.156090000004042]","[""trial_slight_right_box"",""trial_right_box""]",0,7,7,33,1,deck1.jpg,diningroom1.jpg,diner10.jpg,cabinIndoors5.jpg,,
Image_List_3,,,,,,,,,,,,,,,,44218,2020-11-08_09h36.09.619,lingCatScenes,2020.1.3,Win32,60,"[1707,960]",,,"[""trial_ahead_box""]",,,,,,,,,,,,carmechanic4.jpeg,space,2.36952,[-0.012673604581505061],[-0.3180555616505444],[1],[0],[0],[1.7233199999900535],"[""trial_ahead_box""]",0,8,8,23,1,bus_shelter.jpg,church8.jpg,cemetery3.jpg,bleachers6.jpg,,
Image_List_3,,,,,,,,,,,,,,,,44218,2020-11-08_09h36.09.619,lingCatScenes,2020.1.3,Win32,60,"[1707,960]",,,"[""trial_sharp_right_box""]",,,,,,,,,,,,clothingstore2.jpg,space,2.76642,[0.6044560296460986],[-0.3175925986841321],[1],[0],[0],[2.5197050000424497],"[""trial_sharp_right_box""]",0,9,9,30,1,courthouse1.jpg,desertvegetation3.jpg,copyroom2.jpg,bus_shelter3.jpg,,
Image_List_3,,,,,,,,,,,,,,,,44218,2020-11-08_09h36.09.619,lingCatScenes,2020.1.3,Win32,60,"[1707,960]",,,"[""trial_sharp_left_box""]",,,,,,,,,,,,constructionSite2.jpg,space,2.215145,[-0.6038773126900197],[-0.30648148749023674],[1],[0],[0],[1.9748100000433624],"[""trial_sharp_left_box""]",0,10,10,32,1,dancestudio6.jpg,diner12.jpg,dentist4.jpg,cabin4.jpg,,
Image_List_3,,,,,,,,,,,,,,,,44218,2020-11-08_09h36.09.619,lingCatScenes,2020.1.3,Win32,60,"[1707,960]",,,"[""trial_right_box""]",,,,,,,,,,,,aquarium1.jpg,space,3.083455,"[0.41649306528270247,0.41325243754588425]","[-0.3263888950459659,-0.31296296902000903]","[1,1]","[0,0]","[0,0]","[2.3629499999806285,2.8456550000119023]","[""trial_right_box""]",0,11,11,3,1,apartmentBuilding2.jpg,attic1.jpg,appleorchard2.jpg,alley3.jpg,,
Image_List_3,,,,,,,,,,,,,,,,44218,2020-11-08_09h36.09.619,lingCatScenes,2020.1.3,Win32,60,"[1707,960]",,,"[""trial_left_box""]",,,,,,,,,,,,firestation4.jpg,space,4.067875,[-0.39600694077089427],[-0.31203704308718444],[1],[0],[0],[3.6896950000082143],"[""trial_left_box""]",0,12,12,47,1,frontDoor.jpg,gasstation8.jpg,fountain7.jpg,elevatorOutside2.jpg,,
Image_List_3,,,,,,,,,,,,,,,,44218,2020-11-08_09h36.09.619,lingCatScenes,2020.1.3,Win32,60,"[1707,960]",,,"[""trial_slight_left_box""]",,,,,,,,,,,,tenniscourt3.jpg,space,2.683285,[-0.21822916166856884],[-0.3078703763894737],[1],[0],[0],[2.2244599999976344],"[""trial_slight_left_box""]",0,13,13,96,1,warehouse4.jpg,warehouseoutside1.jpg,windmill1.jpg,warehouse1.jpg,,
Image_List_3,,,,,,,,,,,,,,,,44218,2020-11-08_09h36.09.619,lingCatScenes,2020.1.3,Win32,60,"[1707,960]",,,"[""trial_right_box""]",,,,,,,,,,,,drymountains3.jpg,space,3.213535,[0.3989004725590348],[-0.3092592652887106],[1],[0],[0],[3.0572099999990314],"[""trial_right_box""]",0,14,14,41,1,dugout4.jpg,farm3.jpg,fabricstore1.jpg,dentist2.jpg,,
Image_List_3,,,,,,,,,,,,,,,,44218,2020-11-08_09h36.09.619,lingCatScenes,2020.1.3,Win32,60,"[1707,960]",,,"[""trial_slight_left_box""]",,,,,,,,,,,,conference4.jpg,space,5.812155,[-0.21359953200444579],[-0.3037037096917629],[1],[0],[0],[5.479104999976698],"[""trial_slight_left_box""]",0,15,15,31,1,cubicle4.jpg,desertvegetation6.jpg,courtroom2.jpg,cabin3.jpg,,
Image_List_3,,,,,,,,,,,,,,,,44218,2020-11-08_09h36.09.619,lingCatScenes,2020.1.3,Win32,60,"[1707,960]",,,"[""trial_slight_right_box""]",,,,,,,,,,,,lightingstore4.jpg,space,22.31951,[0.20954861929640173],[-0.2810185243375599],[1],[0],[0],[18.219909999985248],"[""trial_slight_right_box""]",0,16,16,68,1,liquorstore7.jpg,parkinglot.jpg,lockerroom2.jpg,hospitalroom3.jpg,,
Image_List_3,,,,,,,,,,,,,,,,44218,2020-11-08_09h36.09.619,lingCatScenes,2020.1.3,Win32,60,"[1707,960]",,,"[""trial_ahead_box""]",,,,,,,,,,,,staircase6.jpg,space,1.147195,[0.0239004697650671],[-0.29907413654167386],[1],[0],[0],[1.0133499999647029],"[""trial_ahead_box""]",0,17,17,94,1,treehouse.jpg,waitingroom3.jpg,weightroom.jpg,trainStation3.jpg,,
Image_List_3,,,,,,,,,,,,,,,,44218,2020-11-08_09h36.09.619,lingCatScenes,2020.1.3,Win32,60,"[1707,960]",,,"[""trial_right_box""]",,,,,,,,,,,,laundromat2.jpeg,space,4.353575,[0.4118634356185794],[-0.2972222281619906],[1],[0],[0],[4.175575000001118],"[""trial_right_box""]",0,18,18,65,1,igloo5.jpg,newsstand7.jpg,labClass7.jpg,homeoffice8.jpg,,
Image_List_3,,,,,,,,,,,,,,,,44218,2020-11-08_09h36.09.619,lingCatScenes,2020.1.3,Win32,60,"[1707,960]",,,"[""trial_ahead_box""]",,,,,,,,,,,,breakroom4.jpg,space,1.849905,[0.023437506798654795],[-0.29537037629634144],[1],[0],[0],[1.6916450000135228],"[""trial_ahead_box""]",0,19,19,17,1,bikerack1.jpg,campsite6.jpg,carmechanic.jpg,baseball6.jpg,,
Image_List_3,,,,,,,,,,,,,,,,44218,2020-11-08_09h36.09.619,lingCatScenes,2020.1.3,Win32,60,"[1707,960]",,,"[""trial_right_box""]",,,,,,,,,,,,ruralroad2.jpg,space,1.87912,[0.3868634354323149],[-0.3027777837589383],[1],[0],[0],[1.7441000000108033],"[""trial_right_box""]",0,20,20,85,1,recordingstudio4.jpg,sidewalk5.jpg,sandDunes_desert_outdoor3.jpg,rooftop3.jpg,,
Image_List_3,,,,,,,,,,,,,,,,44218,2020-11-08_09h36.09.619,lingCatScenes,2020.1.3,Win32,60,"[1707,960]",,,"[""trial_ahead_box""]",,,,,,,,,,,,metroInside3.jpg,space,1.70333,[0.005844970589021159],[-0.32083333944901826],[1],[0],[0],[1.3931699999957345],"[""trial_ahead_box""]",0,21,21,71,1,metroInside2.jpg,pavilion5.jpg,museum3.jpg,jewelrystore.jpg,,
Image_List_3,,,,,,,,,,,,,,,,44218,2020-11-08_09h36.09.619,lingCatScenes,2020.1.3,Win32,60,"[1707,960]",,,"[""trial_left_box""]",,,,,,,,,,,,hedgemaze1.jpg,space,3.083175,[-0.40295138526707885],[-0.30740746993709533],[1],[0],[0],[2.790615000005346],"[""trial_left_box""]",0,22,22,58,1,highway7.jpg,lab1.jpg,igloo4.jpg,grocerystore2.jpg,,
Image_List_3,,,,,,,,,,,,,,,,44218,2020-11-08_09h36.09.619,lingCatScenes,2020.1.3,Win32,60,"[1707,960]",,,"[""trial_ahead_box""]",,,,,,,,,,,,ballroom2.jpg,space,1.983325,"[-0.039062493667006495,-0.0038773082196712494]","[-0.28842593180015685,-0.29861111706122756]","[1,1]","[0,0]","[0,0]","[1.4244950000429526,1.7079350000130944]","[""trial_ahead_box""]",0,23,23,9,1,auto_showroom3.jpg,bar2.jpg,basement5.jpg,arcade2.jpg,,
Image_List_3,,,,,,,,,,,,,,,,44218,2020-11-08_09h36.09.619,lingCatScenes,2020.1.3,Win32,60,"[1707,960]",,,"[""trial_ahead_box""]",,,,,,,,,,,,nursery.jpg,space,3.6004,[-0.009895826783031225],[-0.2972222281619906],[1],[0],[0],[3.3072749999701045],"[""trial_ahead_box""]",0,24,24,73,1,musicStore3.jpg,photographer_studio2.jpg,nursery4.jpg,library_aisle9.jpg,,
Image_List_3,,,,,,,,,,,,,,,,44218,2020-11-08_09h36.09.619,lingCatScenes,2020.1.3,Win32,60,"[1707,960]",,,"[""trial_left_box""]",,,,,,,,,,,,cliff2.jpg,space,2.11903,[-0.4043402741663158],[-0.29629630222916603],[1],[0],[0],[1.7869599999976344],"[""trial_left_box""]",0,25,25,29,1,cornfield2.jpg,deck2.jpg,constructionSite4.jpg,bridalboutique3.jpg,,
Image_List_3,,,,,,,,,,,,,,,,44218,2020-11-08_09h36.09.619,lingCatScenes,2020.1.3,Win32,60,"[1707,960]",,,"[""trial_left_box""]",,,,,,,,,,,,elevatorOutside1.jpg,space,3.27133,"[-0.3654513849876821,-0.38489582957699897]","[-0.29861111706122756,-0.3027777837589383]","[1,1]","[0,0]","[0,0]","[2.441660000011325,2.941530000010971]","[""trial_left_box""]",0,26,26,44,1,firestation2.jpg,frontFoyer4.jpg,foodcourt6.jpg,dock2.jpg,,
Image_List_3,,,,,,,,,,,,,,,,44218,2020-11-08_09h36.09.619,lingCatScenes,2020.1.3,Win32,60,"[1707,960]",,,"[""trial_sharp_right_box""]",,,,,,,,,,,,bleachers8.jpg,space,2.734235,[0.6220486223697662],[-0.30555556155741215],[1],[0],[0],[2.3245300000417046],"[""trial_sharp_right_box""]",0,27,27,15,1,bambooforest4.jpg,cafeteria5.jpg,cabinIndoors.jpg,bar8.jpg,,
Image_List_3,,,,,,,,,,,,,,,,44218,2020-11-08_09h36.09.619,lingCatScenes,2020.1.3,Win32,60,"[1707,960]",,,"[""trial_ahead_box""]",,,,,,,,,,,,golfcourse10.jpg,space,2.185415,[0.014178303984442664],[-0.32268519131466744],[1],[0],[0],[1.7098000000114553],"[""trial_ahead_box""]",0,28,28,56,1,grocerystore5.jpg,hut3.jpg,hut1.jpg,gasstation2.jpg,,
Image_List_3,,,,,,,,,,,,,,,,44218,2020-11-08_09h36.09.619,lingCatScenes,2020.1.3,Win32,60,"[1707,960]",,,"[""trial_ahead_box""]",,,,,,,,,,,,ShowJumping7.jpg,space,1.81695,[0.022048617899417877],[-0.32222222834825515],[1],[0],[0],[1.4748550000367686],"[""trial_ahead_box""]",0,29,29,89,1,ruralroad7.jpg,track5.jpg,staircase7.jpg,sculpturegarden3.jpg,,
Image_List_3,,,,,,,,,,,,,,,,44218,2020-11-08_09h36.09.619,lingCatScenes,2020.1.3,Win32,60,"[1707,960]",,,"[""trial_ahead_box""]",,,,,,,,,,,,pier5.jpg,space,0.919225,[0.022048617899417877],[-0.32222222834825515],[1],[0],[0],[0.677239999989979],"[""trial_ahead_box""]",0,30,30,78,1,parkinglot3.jpg,poolhall1.jpg,pavilion3.jpg,observatory1.jpg,,
Image_List_3,,,,,,,,,,,,,,,,44218,2020-11-08_09h36.09.619,lingCatScenes,2020.1.3,Win32,60,"[1707,960]",,,"[""trial_slight_left_box""]",,,,,,,,,,,,promenadeDeck2.jpg,space,1.78432,[-0.2223958283662796],[-0.318981487583369],[1],[0],[0],[1.408484999963548],"[""trial_slight_left_box""]",0,31,31,81,1,promenadeDeck.jpg,ruralroad5.jpg,rainforest5.jpg,pasture8.jpg,,
Image_List_3,,,,,,,,,,,,,,,,44218,2020-11-08_09h36.09.619,lingCatScenes,2020.1.3,Win32,60,"[1707,960]",,,"[""trial_left_box""]",,,,,,,,,,,,ruralroad3.jpg,space,1.750275,[-0.39184027407318356],[-0.30648148749023674],[1],[0],[0],[1.441835000005085],"[""trial_left_box""]",0,32,32,86,1,restaurant14.jpg,stripmall.jpg,sandDunes_desert_outdoor8.jpg,rooftop4.jpg,,
Image_List_3,,,,,,,,,,,,,,,,44218,2020-11-08_09h36.09.619,lingCatScenes,2020.1.3,Win32,60,"[1707,960]",,,"[""trial_left_box""]",,,,,,,,,,,,forestpath6.jpg,space,1.55293,[-0.4043402741663158],[-0.29768519112840297],[1],[0],[0],[1.2926299999817275],"[""trial_left_box""]",0,33,33,50,1,frontLawn4.jpg,grocerystore6.jpg,hallway2.jpg,fireplace4.jpg,,
Image_List_3,,,,,,,,,,,,,,,,44218,2020-11-08_09h36.09.619,lingCatScenes,2020.1.3,Win32,60,"[1707,960]",,,"[""trial_right_box""]",,,,,,,,,,,,windmill2.jpg,space,1.90185,[0.39103010213002565],[-0.28981482069939374],[1],[0],[0],[1.540244999981951],"[""trial_right_box""]",0,34,34,99,1,wineVineyard9.jpg,yogastudio4.jpg,wrestlingring7.jpg,yogastudio1.jpg,,
Image_List_3,,,,,,,,,,,,,,,,44218,2020-11-08_09h36.09.619,lingCatScenes,2020.1.3,Win32,60,"[1707,960]",,,"[""trial_ahead_box""]",,,,,,,,,,,,pasture9.jpg,space,2.16917,"[0.06464121080935001,0.02482639569789171]","[-0.2930555614642799,-0.3041666726581752]","[1,1]","[0,0]","[0,0]","[1.2922050000051968,1.691835000005085]","[""trial_ahead_box""]",0,35,35,77,1,parkinggarage2.jpg,playroom6.jpg,park8.jpg,mallindoor6.jpg,,
Image_List_3,,,,,,,,,,,,,,,,44218,2020-11-08_09h36.09.619,lingCatScenes,2020.1.3,Win32,60,"[1707,960]",,,[],,,,,,,,,,,,churchInside4.jpg,space,0.685855,[],[],[],[],[],[],[],0,36,36,27,1,castle3.jpg,courtroom3.jpg,closet.jpg,brewery2.jpg,,
Image_List_3,,,,,,,,,,,,,,,,44218,2020-11-08_09h36.09.619,lingCatScenes,2020.1.3,Win32,60,"[1707,960]",,,"[""trial_right_box""]",,,,,,,,,,,,brewery4.jpg,space,3.81558,"[0.4322338061407208,0.40908577084817355]","[-0.28935185773298144,-0.29212963553145527]","[1,1]","[0,0]","[0,0]","[3.188045000017155,3.5377950000111014]","[""trial_right_box""]",0,37,37,18,1,bleachers5.jpg,casino1.jpg,castle2.jpg,basement6.jpg,,
Image_List_3,,,,,,,,,,,,,,,,44218,2020-11-08_09h36.09.619,lingCatScenes,2020.1.3,Win32,60,"[1707,960]",,,"[""trial_sharp_right_box""]",,,,,,,,,,,,skatepark7.jpg,space,1.97207,[0.6132524390360004],[-0.30231482079252603],[1],[0],[0],[1.6745250000385568],"[""trial_sharp_right_box""]",0,38,38,92,1,staircase.jpg,volleyballcourt.jpg,tvstudio2.jpg,soccerfield2.jpg,,
Image_List_3,,,,,,,,,,,,,,,,44218,2020-11-08_09h36.09.619,lingCatScenes,2020.1.3,Win32,60,"[1707,960]",,,"[""trial_ahead_box""]",,,,,,,,,,,,gazebo5.jpg,space,1.301295,[0.007696765940636396],[-0.30509259859099985],[1],[0],[0],[1.1589099999982864],"[""trial_ahead_box""]",0,39,39,55,1,greenmountains.jpg,hotelRoom3.jpg,hotelRoom7.jpg,frontLawn2.jpg,,
Image_List_3,,,,,,,,,,,,,,,,44218,2020-11-08_09h36.09.619,lingCatScenes,2020.1.3,Win32,60,"[1707,960]",,,"[""trial_right_box""]",,,,,,,,,,,,lockerroom3.jpg,space,2.304305,[0.4058449170552194],[-0.3009259318932891],[1],[0],[0],[1.7079199999570847],"[""trial_right_box""]",0,40,40,70,1,lockerroom4.jpg,pavilion.jpg,minigolf8.jpg,igloo.jpg,,
Image_List_3,,,,,,,,,,,,,,,,44218,2020-11-08_09h36.09.619,lingCatScenes,2020.1.3,Win32,60,"[1707,960]",,,"[""trial_ahead_box""]",,,,,,,,,,,,bambooforest3.jpg,space,1.36844,[-0.0057291600853204725],[-0.30648148749023674],[1],[0],[0],[1.1749349999590777],"[""trial_ahead_box""]",0,41,41,11,1,backyard2.jpg,basketballcourt4.jpg,baywindow5.jpg,backyard1.jpg,,
Image_List_3,,,,,,,,,,,,,,,,44218,2020-11-08_09h36.09.619,lingCatScenes,2020.1.3,Win32,60,"[1707,960]",,,"[""trial_slight_right_box""]",,,,,,,,,,,,courthouse4.jpg,space,1.967575,[0.21278936006128787],[-0.3078703763894737],[1],[0],[0],[1.6591449999832548],"[""trial_slight_right_box""]",0,42,42,34,1,deck4.jpg,diningroom5.jpg,diner11.jpg,campusquad1.jpg,,
Image_List_3,,,,,,,,,,,,,,,,44218,2020-11-08_09h36.09.619,lingCatScenes,2020.1.3,Win32,60,"[1707,960]",,,"[""trial_left_box""]",,,,,,,,,,,,cafeteria1.jpg,space,4.703095,"[-0.4284143484197557,-0.3941550889052451]","[-0.32175926538184285,-0.3138888949528337]","[1,1]","[0,0]","[0,0]","[2.859854999987874,4.292134999996051]","[""trial_left_box""]",0,43,43,19,1,boardwalk2.jpg,casino3.jpg,castle4.jpg,basketballcourt.jpg,,
Image_List_3,,,,,,,,,,,,,,,,44218,2020-11-08_09h36.09.619,lingCatScenes,2020.1.3,Win32,60,"[1707,960]",,,"[""trial_ahead_box""]",,,,,,,,,,,,frontLawn3.jpg,space,2.48301,[0.008159728907048702],[-0.29907413654167386],[1],[0],[0],[2.1376400000299327],"[""trial_ahead_box""]",0,44,44,53,1,gazebo3.jpg,homeoffice.jpg,homegarage3.jpg,fountain.jpg,,
Image_List_3,,,,,,,,,,,,,,,,44218,2020-11-08_09h36.09.619,lingCatScenes,2020.1.3,Win32,60,"[1707,960]",,,"[""trial_slight_right_box""]",,,,,,,,,,,,musicStore1.jpg,space,3.101235,[0.1752893597818911],[-0.3037037096917629],[1],[0],[0],[1.8589199999696575],"[""trial_slight_right_box""]",0,45,45,72,1,museum5.jpg,pharmacy4.jpg,museum4.jpg,kindergarten_classroom.jpg,,
Image_List_3,,,,,,,,,,,,,,,,44218,2020-11-08_09h36.09.619,lingCatScenes,2020.1.3,Win32,60,"[1707,960]",,,"[""trial_left_box""]",,,,,,,,,,,,parkinggarage3.jpg,space,1.71936,[-0.39230323703959585],[-0.2768518576398492],[1],[0],[0],[1.4730499999714084],"[""trial_left_box""]",0,46,46,76,1,parkinggarage.jpg,playroom4.jpg,park2.jpg,lookout4.jpg,,
Image_List_3,,,,,,,,,,,,,,,,44218,2020-11-08_09h36.09.619,lingCatScenes,2020.1.3,Win32,60,"[1707,960]",,,"[""trial_sharp_left_box""]",,,,,,,,,,,,applestore1.jpg,space,2.8044,[-0.5835069421678781],[-0.2967592651955783],[1],[0],[0],[2.409810000041034],"[""trial_sharp_left_box""]",0,47,47,1,1,airportTerminal4.jpg,apartmentBuilding1.jpg,airportTerminal3.jpg,airportTerminal2.jpg,,
Image_List_3,,,,,,,,,,,,,,,,44218,2020-11-08_09h36.09.619,lingCatScenes,2020.1.3,Win32,60,"[1707,960]",,,"[""trial_right_box""]",,,,,,,,,,,,drycleaners6.jpg,space,2.41776,[0.42343750977888706],[-0.2939814873971045],[1],[0],[0],[1.7433149999706075],"[""trial_right_box""]",0,48,48,39,1,driveway6.jpg,eyeglassstore9.jpg,drymountains5.jpg,cliff5.jpg,,
Image_List_3,,,,,,,,,,,,,,,,44218,2020-11-08_09h36.09.619,lingCatScenes,2020.1.3,Win32,60,"[1707,960]",,,"[""trial_ahead_box""]",,,,,,,,,,,,drymountains6.jpg,space,1.54623,[0.0007523214444518089],[-0.30555556155741215],[1],[0],[0],[1.3288600000087172],"[""trial_ahead_box""]",0,49,49,42,1,exerciseequipment3.jpg,firestation3.jpg,farm4.jpg,desertvegetation2.jpg,,
Image_List_3,,,,,,,,,,,,,,,,44218,2020-11-08_09h36.09.619,lingCatScenes,2020.1.3,Win32,60,"[1707,960]",,,"[""trial_ahead_box"",""trial_slight_left_box""]",,,,,,,,,,,,auto_showroom1.jpg,space,4.465985,"[0.007696765940636396,-0.22471064319834114]","[-0.30231482079252603,-0.30648148749023674]","[1,1]","[0,0]","[0,0]","[1.607205000007525,4.105845000012778]","[""trial_ahead_box"",""trial_slight_left_box""]",0,50,50,4,1,artStudio1.jpg,baggageClaim2.jpg,appleorchard3.jpg,alley4.jpg,,
Image_List_3,,,,,,,,,,,,,,,,44218,2020-11-08_09h36.09.619,lingCatScenes,2020.1.3,Win32,60,"[1707,960]",,,"[""trial_left_box""]",,,,,,,,,,,,applestore6.jpg,space,2.44557,"[-0.4274884224869311,-0.3964699037373066]","[-0.32870370987802744,-0.3231481542810798]","[1,1]","[0,0]","[0,0]","[1.5971450000070035,2.063755000010133]","[""trial_left_box""]",0,51,51,2,1,alley1.jpg,arcade1.jpg,apartmentBuilding4.jpg,airportTerminal6.jpg,,
Image_List_3,,,,,,,,,,,,,,,,44218,2020-11-08_09h36.09.619,lingCatScenes,2020.1.3,Win32,60,"[1707,960]",,,"[""trial_right_box""]",,,,,,,,,,,,citystreet10.jpg,space,1.997425,[0.3813078798353672],[-0.3032408032393846],[1],[0],[0],[1.7972749999607913],"[""trial_right_box""]",0,52,52,28,1,churchInside1.jpg,dancestudio5.jpg,clothingstore5.jpg,bridalboutique2.jpg,,
Image_List_3,,,,,,,,,,,,,,,,44218,2020-11-08_09h36.09.619,lingCatScenes,2020.1.3,Win32,60,"[1707,960]",,,"[""trial_ahead_box""]",,,,,,,,,,,,homegarage.jpg,space,3.41612,[-0.012210641615092754],[-0.2935185244306922],[1],[0],[0],[2.7078000000328757],"[""trial_ahead_box""]",0,53,53,60,1,hometheater2.jpg,lightingstore3.jpg,kindergarten_classroom6.jpg,hallway.jpg,,
Image_List_3,,,,,,,,,,,,,,,,44218,2020-11-08_09h36.09.619,lingCatScenes,2020.1.3,Win32,60,"[1707,960]",,,"[""trial_ahead_box""]",,,,,,,,,,,,savanna.jpg,space,1.500815,[-0.011747678648680449],[-0.2935185244306922],[1],[0],[0],[1.2087900000042282],"[""trial_ahead_box""]",0,54,54,87,1,restaurantkitchen2.jpg,theater2.jpg,sculpturegarden2.jpg,RVinside2.jpg,,
Image_List_3,,,,,,,,,,,,,,,,44218,2020-11-08_09h36.09.619,lingCatScenes,2020.1.3,Win32,60,"[1707,960]",,,"[""trial_ahead_box""]",,,,,,,,,,,,livingroom.jpg,space,1.0288,[-0.011747678648680449],[-0.2935185244306922],[1],[0],[0],[0.7631750000291504],"[""trial_ahead_box""]",0,55,55,69,1,liquorstore8.jpg,parkinglot2.jpg,metroInside1.jpg,icecream2.jpg,,
Image_List_3,,,,,,,,,,,,,,,,44218,2020-11-08_09h36.09.619,lingCatScenes,2020.1.3,Win32,60,"[1707,960]",,,"[""trial_slight_right_box""]",,,,,,,,,,,,hotelRoom2.jpg,space,2.546465,[0.2063078785315156],[-0.291666672565043],[1],[0],[0],[2.1956049999571405],"[""trial_slight_right_box""]",0,56,56,63,1,hut2.jpg,museum6.jpg,lab4.jpg,highway2.jpg,,
Image_List_3,,,,,,,,,,,,,,,,44218,2020-11-08_09h36.09.619,lingCatScenes,2020.1.3,Win32,60,"[1707,960]",,,"[""trial_right_box""]",,,,,,,,,,,,beach2.jpg,space,1.93638,[0.39473380586132406],[-0.2972222281619906],[1],[0],[0],[1.6595800000359304],"[""trial_right_box""]",0,57,57,13,1,balconyIN2.jpg,bowlingalley3.jpg,boardwalk4.jpg,backyard6.jpg,,
Image_List_3,,,,,,,,,,,,,,,,44218,2020-11-08_09h36.09.619,lingCatScenes,2020.1.3,Win32,60,"[1707,960]",,,"[""trial_ahead_box""]",,,,,,,,,,,,highway4.jpg,space,1.35002,[-0.01822916017845273],[-0.291666672565043],[1],[0],[0],[1.0920700000133365],"[""trial_ahead_box""]",0,58,58,59,1,homegarden7.jpg,library_aisle8.jpg,kindergarten_classroom5.jpg,grocerystore3.jpg,,
Image_List_3,,,,,,,,,,,,,,,,44218,2020-11-08_09h36.09.619,lingCatScenes,2020.1.3,Win32,60,"[1707,960]",,,"[""trial_ahead_box""]",,,,,,,,,,,,flowershop3.jpg,space,1.86852,[0.002604173310101032],[-0.29212963553145527],[1],[0],[0],[1.3108899999642745],"[""trial_ahead_box""]",0,59,59,49,1,frontDoor3.jpg,greenhouse5.jpg,greenhouse.jpg,farm2.jpg,,
Image_List_3,,,,,,,,,,,,,,,,44218,2020-11-08_09h36.09.619,lingCatScenes,2020.1.3,Win32,60,"[1707,960]",,,"[""trial_right_box""]",,,,,,,,,,,,warehouse3.jpg,space,2.616595,[0.4197338060475886],[-0.29953704299405215],[1],[0],[0],[1.872464999963995],"[""trial_right_box""]",0,60,60,98,1,weightroom5.jpg,wineVineyard8.jpg,winebarrel4.jpg,winebarrel2.jpg,,
Image_List_3,,,,,,,,,,,,,,,,44218,2020-11-08_09h36.09.619,lingCatScenes,2020.1.3,Win32,60,"[1707,960]",,,"[""trial_ahead_box""]",,,,,,,,,,,,cave6.jpg,space,1.384885,[0.016493062302470208],[-0.30648148749023674],[1],[0],[0],[1.092304999998305],"[""trial_ahead_box""]",0,61,61,24,1,campsite.jpg,cliff3.jpg,cemetery5.jpg,boardwalk.jpg,,
Image_List_3,,,,,,,,,,,,,,,,44218,2020-11-08_09h36.09.619,lingCatScenes,2020.1.3,Win32,60,"[1707,960]",,,"[""trial_ahead_box""]",,,,,,,,,,,,frontDoor5.jpg,space,1.03922,[0.016493062302470208],[-0.30648148749023674],[1],[0],[0],[0.6257750000222586],"[""trial_ahead_box""]",0,62,62,51,1,gasstation6.jpg,hallway5.jpg,hayfield4.jpg,firestation5.jpg,,
Image_List_3,,,,,,,,,,,,,,,,44218,2020-11-08_09h36.09.619,lingCatScenes,2020.1.3,Win32,60,"[1707,960]",,,"[""trial_left_box""]",,,,,,,,,,,,factory1.jpg,space,2.66613,"[-0.362210644222796,-0.3737847183831036,-0.38674768144264815]","[-0.3027777837589383,-0.30509259859099985,-0.30740746993709533]","[1,1,1]","[0,0,0]","[0,0,0]","[1.391490000009071,1.691599999961909,2.1749849999905564]","[""trial_left_box""]",0,63,63,45,1,fittingroom2.jpg,frontFoyer7.jpg,forestpath4.jpg,dock4.jpg,,
Image_List_3,,,,,,,,,,,,,,,,44218,2020-11-08_09h36.09.619,lingCatScenes,2020.1.3,Win32,60,"[1707,960]",,,"[""trial_ahead_box""]",,,,,,,,,,,,skatepark5.jpg,space,2.09911,[0.016030099336057903],[-0.318981487583369],[1],[0],[0],[1.710765000025276],"[""trial_ahead_box""]",0,64,64,91,1,shoestore2.jpg,trainStation5.jpg,ticket_counter6.jpg,sidewalk3.jpg,,
Image_List_3,,,,,,,,,,,,,,,,44218,2020-11-08_09h36.09.619,lingCatScenes,2020.1.3,Win32,60,"[1707,960]",,,"[""trial_ahead_box""]",,,,,,,,,,,,dock1.jpg,space,1.117535,[0.00723380297422409],[-0.3203703764826059],[1],[0],[0],[0.7086300000082701],"[""trial_ahead_box""]",0,65,65,38,1,dining_car2.jpg,elevatorOutside4.jpg,driveway8.jpg,classroom1.jpg,,
Image_List_3,,,,,,,,,,,,,,,,44218,2020-11-08_09h36.09.619,lingCatScenes,2020.1.3,Win32,60,"[1707,960]",,,"[""trial_right_box""]",,,,,,,,,,,,auto_showroom4.jpg,space,3.567195,[0.3831597317010164],[-0.3041666726581752],[1],[0],[0],[3.1919399999896996],"[""trial_right_box""]",0,66,66,5,1,artStudio3.jpg,bambooforest.jpg,attic4.jpg,amusement3.jpg,,
Image_List_3,,,,,,,,,,,,,,,,44218,2020-11-08_09h36.09.619,lingCatScenes,2020.1.3,Win32,60,"[1707,960]",,,"[""trial_ahead_box""]",,,,,,,,,,,,frontFoyer6.jpg,space,1.383435,[0.015567136369645596],[-0.30509259859099985],[1],[0],[0],[1.1756450000102632],"[""trial_ahead_box""]",0,67,67,52,1,gasstation7.jpg,hardwarestore1.jpg,highway.jpg,forestpath2.jpg,,
Image_List_3,,,,,,,,,,,,,,,,44218,2020-11-08_09h36.09.619,lingCatScenes,2020.1.3,Win32,60,"[1707,960]",,,"[""trial_ahead_box""]",,,,,,,,,,,,church4.jpg,space,1.067295,[0.015567136369645596],[-0.30509259859099985],[1],[0],[0],[0.693425000004936],"[""trial_ahead_box""]",0,68,68,26,1,campusquad2.jpg,cornfield4.jpg,churchInside3.jpg,botanicalGarden7.jpg,,
Image_List_3,,,,,,,,,,,,,,,,44218,2020-11-08_09h36.09.619,lingCatScenes,2020.1.3,Win32,60,"[1707,960]",,,"[""trial_ahead_box""]",,,,,,,,,,,,sidewalk1.jpg,space,0.964585,[0.015567136369645596],[-0.30509259859099985],[1],[0],[0],[0.6134749999619089],"[""trial_ahead_box""]",0,69,69,90,1,savanna5.jpg,trainStation1.jpg,stripmall3.jpg,shoestore4.jpg,,
Image_List_3,,,,,,,,,,,,,,,,44218,2020-11-08_09h36.09.619,lingCatScenes,2020.1.3,Win32,60,"[1707,960]",,,"[""trial_ahead_box""]",,,,,,,,,,,,cubicle7.jpg,space,1.500935,[0.015567136369645596],[-0.30509259859099985],[1],[0],[0],[1.0095449999789707],"[""trial_ahead_box""]",0,70,70,35,1,deck5.jpg,dock3.jpg,dining_car6.jpg,carmechanic2.jpg,,
Image_List_3,,,,,,,,,,,,,,,,44218,2020-11-08_09h36.09.619,lingCatScenes,2020.1.3,Win32,60,"[1707,960]",,,"[""trial_ahead_box""]",,,,,,,,,,,,breakroom2.jpg,space,3.445005,"[0.030844970775285675,0.013715284503996372]","[-0.31250000605359674,-0.31527778385207056]","[1,1]","[0,0]","[0,0]","[2.4959950000047684,2.9959450000314973]","[""trial_ahead_box""]",0,71,71,16,1,basement.jpg,cafeteria6.jpg,campusquad4.jpg,barbershop2.jpg,,
Image_List_3,,,,,,,,,,,,,,,,44218,2020-11-08_09h36.09.619,lingCatScenes,2020.1.3,Win32,60,"[1707,960]",,,"[""trial_ahead_box""]",,,,,,,,,,,,stripmall6.jpg,space,1.6145,[0.014641210436820984],[-0.31527778385207056],[1],[0],[0],[1.2142349999630824],"[""trial_ahead_box""]",0,72,72,95,1,waitingroom2.jpg,warehouse2.jpg,weightroom4.jpg,tvstudio3.jpg,,
Image_List_3,,,,,,,,,,,,,,,,44218,2020-11-08_09h36.09.619,lingCatScenes,2020.1.3,Win32,60,"[1707,960]",,,"[""trial_right_box""]",,,,,,,,,,,,laundromat3.jpg,space,3.13322,[0.42343750977888706],[-0.32268519131466744],[1],[0],[0],[2.7422350000124425],"[""trial_right_box""]",0,73,73,66,1,library_aisle10.jpg,office3.jpg,liquorstore.jpg,horsebarn9.jpg,,
Image_List_3,,,,,,,,,,,,,,,,44218,2020-11-08_09h36.09.619,lingCatScenes,2020.1.3,Win32,60,"[1707,960]",,,"[""trial_right_box""]",,,,,,,,,,,,farmersmarket4.jpg,space,2.02096,[0.3970486206933856],[-0.31435185791924597],[1],[0],[0],[1.6582300000009127],"[""trial_right_box""]",0,74,74,46,1,flowershop.jpg,frontLawn5.jpg,fountain4.jpg,dormroom6.jpg,,
Image_List_3,,,,,,,,,,,,,,,,44218,2020-11-08_09h36.09.619,lingCatScenes,2020.1.3,Win32,60,"[1707,960]",,,"[""trial_left_box""]",,,,,,,,,,,,laundromat4.jpg,space,2.477725,[-0.3876736073754728],[-0.2939814873971045],[1],[0],[0],[2.243799999996554],"[""trial_left_box""]",0,75,75,67,1,library_aisle3.jpg,park7.jpg,liquorstore2.jpg,hospitalroom2.jpg,,
Image_List_3,,,,,,,,,,,,,,,,44218,2020-11-08_09h36.09.619,lingCatScenes,2020.1.3,Win32,60,"[1707,960]",,,"[""trial_left_box""]",,,,,,,,,,,,campsite3.jpg,space,1.6838,[-0.3876736073754728],[-0.2939814873971045],[1],[0],[0],[1.4088800000026822],"[""trial_left_box""]",0,76,76,20,1,boardwalk6.jpg,cave.jpg,cave4.jpg,basketballcourt7.jpg,,
Image_List_3,,,,,,,,,,,,,,,,44218,2020-11-08_09h36.09.619,lingCatScenes,2020.1.3,Win32,60,"[1707,960]",,,"[""trial_ahead_box""]",,,,,,,,,,,,observatory4.jpeg,space,1.550575,[-0.024247678741812707],[-0.30462963562458756],[1],[0],[0],[1.2889899999718182],"[""trial_ahead_box""]",0,77,77,74,1,newsstand2.jpg,playground10.jpg,operatingroom1.jpg,lightingstore2.jpg,,
Image_List_3,,,,,,,,,,,,,,,,44218,2020-11-08_09h36.09.619,lingCatScenes,2020.1.3,Win32,60,"[1707,960]",,,"[""trial_slight_right_box""]",,,,,,,,,,,,appleorchard4.jpg,space,2.83376,[0.22065973049029708],[-0.29259259849786756],[1],[0],[0],[1.330870000005234],"[""trial_slight_right_box""]",0,78,78,0,1,airplanecabin1.jpg,alley2.jpg,airplanecabin5.jpg,airplanecabin3.jpg,,
Image_List_3,,,,,,,,,,,,,,,,44218,2020-11-08_09h36.09.619,lingCatScenes,2020.1.3,Win32,60,"[1707,960]",,,"[""trial_ahead_box""]",,,,,,,,,,,,backstage1.jpg,space,2.200925,[0.004918988142162561],[-0.31435185791924597],[1],[0],[0],[1.8745200000121258],"[""trial_ahead_box""]",0,79,79,7,1,attic2.jpg,banquetHall4.jpg,baggageClaim3.jpg,applestore2.jpg,,
Image_List_3,,,,,,,,,,,,,,,,44218,2020-11-08_09h36.09.619,lingCatScenes,2020.1.3,Win32,60,"[1707,960]",,,"[""trial_slight_right_box""]",,,,,,,,,,,,promenadeDeck6.jpg,space,1.98317,[0.18825243586950363],[-0.31851852461695673],[1],[0],[0],[1.7087950000423007],"[""trial_slight_right_box""]",0,80,80,83,1,readingroom1.jpg,sculpturegarden1.jpg,restaurant8.jpg,readingroom2.jpg,,
Image_List_3,,,,,,,,,,,,,,,,44218,2020-11-08_09h36.09.619,lingCatScenes,2020.1.3,Win32,60,"[1707,960]",,,"[""trial_ahead_box""]",,,,,,,,,,,,staircase4.jpg,space,1.96723,[-0.009895826783031225],[-0.3092592652887106],[1],[0],[0],[1.6563500000047497],"[""trial_ahead_box""]",0,81,81,93,1,tollbooth8.jpg,volleyballcourt4.jpg,warehouseoutside2.jpg,tenniscourt.jpg,,
Image_List_3,,,,,,,,,,,,,,,,44218,2020-11-08_09h36.09.619,lingCatScenes,2020.1.3,Win32,60,"[1707,960]",,,"[""trial_ahead_box""]",,,,,,,,,,,,ballroom4.jpg,space,1.261215,[-0.004803234152495861],[-0.3101851912215352],[1],[0],[0],[0.9757749999989755],"[""trial_ahead_box""]",0,82,82,10,1,backstage2.jpg,barbershop3.jpg,basketballcourt3.jpg,ATM4.jpg,,
Image_List_3,,,,,,,,,,,,,,,,44218,2020-11-08_09h36.09.619,lingCatScenes,2020.1.3,Win32,60,"[1707,960]",,,"[""trial_ahead_box""]",,,,,,,,,,,,auto_showroom5.jpg,space,1.633065,[-0.004803234152495861],[-0.3101851912215352],[1],[0],[0],[1.3757099999929778],"[""trial_ahead_box""]",0,83,83,6,1,ATM1.jpg,banquetHall2.jpg,baggageClaim1.jpg,apartmentBuilding3.jpg,,
Image_List_3,,,,,,,,,,,,,,,,44218,2020-11-08_09h36.09.619,lingCatScenes,2020.1.3,Win32,60,"[1707,960]",,,"[""trial_ahead_box""]",,,,,,,,,,,,drymountains.jpg,space,1.247895,[-0.004803234152495861],[-0.3101851912215352],[1],[0],[0],[0.9469549999921583],"[""trial_ahead_box""]",0,84,84,40,1,drycleaners4.jpg,farm1.jpg,dugout1.jpg,clothingstore3.jpg,,
Image_List_3,,,,,,,,,,,,,,,,44218,2020-11-08_09h36.09.619,lingCatScenes,2020.1.3,Win32,60,"[1707,960]",,,"[""trial_ahead_box""]",,,,,,,,,,,,bambooforest5.jpg,space,1.09439,[-0.004803234152495861],[-0.3101851912215352],[1],[0],[0],[0.7948649999452755],"[""trial_ahead_box""]",0,85,85,12,1,baggageClaim4.jpg,bedroom6.jpg,bleachers7.jpg,backyard5.jpg,,
Image_List_3,,,,,,,,,,,,,,,,44218,2020-11-08_09h36.09.619,lingCatScenes,2020.1.3,Win32,60,"[1707,960]",,,"[""trial_ahead_box""]",,,,,,,,,,,,gazebo2.jpg,space,1.1174,[-0.004803234152495861],[-0.3101851912215352],[1],[0],[0],[0.7925749999703839],"[""trial_ahead_box""]",0,86,86,54,1,greenhouse2.jpg,horsebarn11.jpg,homegarage4.jpg,frontFoyer.jpg,,
Image_List_3,,,,,,,,,,,,,,,,44218,2020-11-08_09h36.09.619,lingCatScenes,2020.1.3,Win32,60,"[1707,960]",,,"[""trial_slight_right_box""]",,,,,,,,,,,,porch.jpg,space,2.117055,"[0.16417824858799576,0.17760417461395264]","[-0.3069444504566491,-0.3069444504566491]","[1,1]","[0,0]","[0,0]","[1.3428299999795854,1.626044999982696]","[""trial_slight_right_box""]",0,87,87,80,1,pavilion2.jpg,racecarcourse2.jpg,poolhall5.jpg,parkinggarage4.jpg,,
Image_List_3,,,,,,,,,,,,,,,,44218,2020-11-08_09h36.09.619,lingCatScenes,2020.1.3,Win32,60,"[1707,960]",,,"[""trial_left_box""]",,,,,,,,,,,,homegarden6.jpg,space,3.58281,[-0.40896990383043885],[-0.3092592652887106],[1],[0],[0],[3.1394449999788776],"[""trial_left_box""]",0,88,88,61,1,HorseRaceTrack.jpg,metroInside4.jpg,kindergarten_classroom7.jpg,hayfield6.jpg,,
Image_List_3,,,,,,,,,,,,,,,,44218,2020-11-08_09h36.09.619,lingCatScenes,2020.1.3,Win32,60,"[1707,960]",,,"[""trial_slight_right_box""]",,,,,,,,,,,,cargo5.jpg,space,2.529875,[0.2146412119269371],[-0.3101851912215352],[1],[0],[0],[2.1937550000147894],"[""trial_slight_right_box""]",0,89,89,22,1,bowlingalley5.jpg,church6.jpg,cemetery.jpg,bistrooutdoor6.jpg,,
Image_List_3,,,,,,,,,,,,,,,,44218,2020-11-08_09h36.09.619,lingCatScenes,2020.1.3,Win32,60,"[1707,960]",,,"[""trial_ahead_box""]",,,,,,,,,,,,dugout2.jpg,space,2.037245,[-0.0034143452532589434],[-0.31296296902000903],[1],[0],[0],[1.7416249999660067],"[""trial_ahead_box""]",0,90,90,43,1,exerciseequipment5.jpg,forestpath10.jpg,foodcourt.jpg,diningroom3.jpg,,
Image_List_3,,,,,,,,,,,,,,,,44218,2020-11-08_09h36.09.619,lingCatScenes,2020.1.3,Win32,60,"[1707,960]",,,"[""trial_ahead_box""]",,,,,,,,,,,,restaurant13.jpg,space,1.277355,[-0.0034143452532589434],[-0.31296296902000903],[1],[0],[0],[0.9770850000204518],"[""trial_ahead_box""]",0,91,91,84,1,readingroom5.jpg,sidewalk2.jpg,sandDunes_desert_outdoor.jpg,rooftop2.jpg,,
Image_List_3,,,,,,,,,,,,,,,,44218,2020-11-08_09h36.09.619,lingCatScenes,2020.1.3,Win32,60,"[1707,960]",,,"[""trial_right_box""]",,,,,,,,,,,,bistrooutdoor5.jpg,space,2.40547,[0.38454862060025335],[-0.31203704308718444],[1],[0],[0],[2.108620000013616],"[""trial_right_box""]",0,92,92,14,1,ballroom1.jpg,breakroom5.jpg,botanicalGarden5.jpg,ballroom3.jpg,,
Image_List_3,,,,,,,,,,,,,,,,44218,2020-11-08_09h36.09.619,lingCatScenes,2020.1.3,Win32,60,"[1707,960]",,,"[""trial_ahead_box""]",,,,,,,,,,,,horsebarn8.jpg,space,1.950925,[-0.011284715682268142],[-0.2750000057742],[1],[0],[0],[1.67431500001112],"[""trial_ahead_box""]",0,93,93,62,1,hotellobby2.jpg,minigolf.jpg,lab3.jpg,hayfield7.jpg,,
Image_List_3,,,,,,,,,,,,,,,,44218,2020-11-08_09h36.09.619,lingCatScenes,2020.1.3,Win32,60,"[1707,960]",,,"[""trial_ahead_box"",""trial_slight_right_box""]",,,,,,,,,,,,sculpturegarden4.jpg,space,1.984925,"[-0.010358789749443532,0.18454861911013723]","[-0.2750000057742,-0.28240746975083086]","[1,1]","[0,0]","[0,0]","[1.025629999989178,1.6082550000282936]","[""trial_ahead_box"",""trial_slight_right_box""]",0,94,94,88,1,rooftop1.jpg,track.jpg,soccerfield.jpg,sandbox.jpg,,
Image_List_3,,,,,,,,,,,,,,,,44218,2020-11-08_09h36.09.619,lingCatScenes,2020.1.3,Win32,60,"[1707,960]",,,"[""trial_ahead_box""]",,,,,,,,,,,,hallway4.jpg,space,1.417615,[-0.019155029597243356],[-0.2870370429009199],[1],[0],[0],[1.1751250000088476],"[""trial_ahead_box""]",0,95,95,57,1,hayfield5.jpg,jail1.jpg,hut5.jpg,gazebo.jpg,,
Image_List_3,,,,,,,,,,,,,,,,44218,2020-11-08_09h36.09.619,lingCatScenes,2020.1.3,Win32,60,"[1707,960]",,,"[""trial_slight_left_box""]",,,,,,,,,,,,balconyIN.jpg,space,1.715865,[-0.21822916166856884],[-0.29212963553145527],[1],[0],[0],[1.4238599999807775],"[""trial_slight_left_box""]",0,96,96,8,1,attic3.jpg,banquetHall6.jpg,bar.jpg,applestore4.jpg,,
Image_List_3,,,,,,,,,,,,,,,,44218,2020-11-08_09h36.09.619,lingCatScenes,2020.1.3,Win32,60,"[1707,960]",,,"[""trial_right_box""]",,,,,,,,,,,,jewelrystore8.jpg,space,1.6809,[0.41510417638346553],[-0.31296296902000903],[1],[0],[0],[1.3640599999926053],"[""trial_right_box""]",0,97,97,64,1,igloo2.jpg,newsstand5.jpg,lab5.jpg,homegarage2.jpg,,
Image_List_3,,,,,,,,,,,,,,,,44218,2020-11-08_09h36.09.619,lingCatScenes,2020.1.3,Win32,60,"[1707,960]",,,"[""trial_left_box""]",,,,,,,,,,,,operatingroom4.jpg,space,2.001015,[-0.3885995333082974],[-0.3069444504566491],[1],[0],[0],[1.7411950000096112],"[""trial_left_box""]",0,98,98,75,1,pantry5.jpg,playground6.jpg,park.jpg,lockerroom.jpg,,
Image_List_3,,,,,,,,,,,,,,,,44218,2020-11-08_09h36.09.619,lingCatScenes,2020.1.3,Win32,60,"[1707,960]",,,"[""trial_ahead_box""]",,,,,,,,,,,,dinosaur4.jpg,space,1.417185,[-0.008506937883794308],[-0.3138888949528337],[1],[0],[0],[1.1562599999597296],"[""trial_ahead_box""]",0,99,99,37,1,dining_car.jpg,driveway4.jpg,driveway7.jpg,citystreet9.jpg,,
Image_List_3,,,,,,,,,,,,,,,,44218,2020-11-08_09h36.09.619,lingCatScenes,2020.1.3,Win32,60,,,,,,,,,,,,,,,,,,,,,,,,,,,,,,,,,,,space,35.48458
