image_list,key_resp_intructions.keys,key_resp_intructions.rt,key_resp_intructions_3.keys,key_resp_intructions_3.rt,PracticeComplete_2.keys,PracticeComplete_2.rt,PracticeComplete_3.keys,PracticeComplete_3.rt,demo_trials.thisRepN,demo_trials.thisTrialN,demo_trials.thisN,demo_trials.thisIndex,demo_trials.ran,demo_images,path_images,participant,date,expName,psychopyVersion,OS,frameRate,windowSize,drawing,numDrawings,drawingSizes,practice_complete.keys,practice_complete.rt,PracticeComplete.keys,PracticeComplete.rt,practice_trials.thisRepN,practice_trials.thisTrialN,practice_trials.thisN,practice_trials.thisIndex,practice_trials.ran,practice_images,feedback_images,key_resp_intructions_2.keys,key_resp_intructions_2.rt,Image_List_4,trial_complete.keys,trial_complete.rt,trials.thisRepN,trials.thisTrialN,trials.thisN,trials.thisIndex,trials.ran,Image_List_1,Image_List_2,Image_List_3,Image_List_5,key_resp.keys,key_resp.rt
Image_List_4,space,24.284,space,8.54,space,9.749,space,5.639,0,0,0,1,1,ahead_left.jpg,ahead_left_path.jpg,44238,2020-11-29_00h06.51.988,analogCatScenes,2020.1.3,MacIntel,60,,,,,,,,,,,,,,,,,,,,,,,,,,,,,,,
Image_List_4,,,,,space,10.638,space,2.85,0,1,1,6,1,right_left.jpg,right_left_path.jpg,44238,2020-11-29_00h06.51.988,analogCatScenes,2020.1.3,MacIntel,60,,,,,,,,,,,,,,,,,,,,,,,,,,,,,,,
Image_List_4,,,,,space,9.647,space,3.334,0,2,2,3,1,ahead_right_left.jpg,ahead_right_left_path.jpg,44238,2020-11-29_00h06.51.988,analogCatScenes,2020.1.3,MacIntel,60,,,,,,,,,,,,,,,,,,,,,,,,,,,,,,,
Image_List_4,,,,,space,3.894,space,1.623,0,3,3,0,1,ahead.jpg,ahead_path.jpg,44238,2020-11-29_00h06.51.988,analogCatScenes,2020.1.3,MacIntel,60,,,,,,,,,,,,,,,,,,,,,,,,,,,,,,,
Image_List_4,,,,,space,5.563,space,0.648,0,4,4,2,1,ahead_right.jpg,ahead_right_path.jpg,44238,2020-11-29_00h06.51.988,analogCatScenes,2020.1.3,MacIntel,60,,,,,,,,,,,,,,,,,,,,,,,,,,,,,,,
Image_List_4,,,,,space,3.782,space,1.496,0,5,5,4,1,left.jpg,left_path.jpg,44238,2020-11-29_00h06.51.988,analogCatScenes,2020.1.3,MacIntel,60,,,,,,,,,,,,,,,,,,,,,,,,,,,,,,,
Image_List_4,,,,,space,3.762,space,0.929,0,6,6,5,1,right.jpg,right_path.jpg,44238,2020-11-29_00h06.51.988,analogCatScenes,2020.1.3,MacIntel,60,,,,,,,,,,,,,,,,,,,,,,,,,,,,,,,
Image_List_4,,,,,,,,,,,,,,,,44238,2020-11-29_00h06.51.988,analogCatScenes,2020.1.3,MacIntel,60,"[1280,800]","[[[0.0025,-0.19625],[0.0025,-0.19625],[0.0025,-0.19625],[0.0025,-0.19625],[0.0025,-0.19625],[0.0025,-0.19625],[0.0025,-0.19625],[0.0025,-0.19625],[0.0025,-0.19625],[0.0025,-0.19625],[0.0025,-0.19625],[0.0025,-0.19625],[0.0025,-0.19625],[0.0025,-0.19625],[0.0025,-0.19625],[0.0025,-0.19625],[0.0025,-0.19625],[0.0025,-0.19625],[0.0025,-0.195],[0.0025,-0.19375],[0.0025,-0.19125],[0.0025,-0.19],[0.0025,-0.18875],[0.0025,-0.1875],[0.0025,-0.18625],[0.0025,-0.18375],[0.0025,-0.1825],[0.0025,-0.18125],[0.0025,-0.18],[0.0025,-0.17875],[0.0025,-0.17625],[0.0025,-0.175],[0.0025,-0.17125],[0.0025,-0.16875],[0.0025,-0.165],[0.0025,-0.16125],[0.0025,-0.15875],[0.0025,-0.155],[0.00375,-0.1525],[0.00375,-0.14875],[0.00375,-0.14625],[0.00375,-0.14375],[0.005,-0.14],[0.005,-0.13625],[0.00625,-0.13375],[0.00625,-0.13],[0.00625,-0.1275],[0.0075,-0.12375],[0.0075,-0.12125],[0.00875,-0.11875],[0.00875,-0.1175],[0.00875,-0.115],[0.01,-0.11125],[0.01,-0.10875],[0.01,-0.1075],[0.01125,-0.105],[0.01125,-0.1025],[0.01125,-0.1],[0.01125,-0.0975],[0.01125,-0.09375],[0.01125,-0.09],[0.01125,-0.08625],[0.01375,-0.0775],[0.01375,-0.07125],[0.01375,-0.065],[0.015,-0.06],[0.015,-0.055],[0.01625,-0.05125],[0.01625,-0.0475],[0.01625,-0.04375],[0.0175,-0.04125],[0.0175,-0.035],[0.01875,-0.03],[0.01875,-0.025],[0.01875,-0.02125],[0.02,-0.01625],[0.02,-0.0125],[0.02125,-0.0075],[0.02125,-0.0025],[0.0225,0.00375],[0.02375,0.01],[0.02625,0.01625],[0.02625,0.02125],[0.0275,0.02625],[0.0275,0.03125],[0.02875,0.03625],[0.02875,0.03875],[0.02875,0.04375],[0.03,0.0475],[0.03125,0.05375],[0.03125,0.05875],[0.03125,0.06375],[0.0325,0.06625],[0.0325,0.06875],[0.0325,0.0725],[0.0325,0.075],[0.0325,0.0775],[0.0325,0.0825],[0.03375,0.0875],[0.03375,0.09375],[0.03375,0.09625],[0.035,0.1],[0.035,0.1025],[0.035,0.105],[0.03625,0.10875],[0.03625,0.11125],[0.0375,0.11375],[0.03875,0.1175],[0.03875,0.12125],[0.04,0.125],[0.04,0.12875],[0.04,0.13],[0.04125,0.1325],[0.04125,0.13375],[0.04125,0.135],[0.04125,0.13625],[0.04125,0.1375],[0.0425,0.13875],[0.0425,0.1425],[0.0425,0.145],[0.04375,0.14625],[0.04375,0.15],[0.04375,0.1525],[0.04375,0.155],[0.04375,0.1575],[0.045,0.16],[0.045,0.16375],[0.045,0.16625],[0.04625,0.1725],[0.04625,0.175],[0.0475,0.1775],[0.0475,0.17875],[0.0475,0.18],[0.0475,0.18125],[0.0475,0.1825],[0.0475,0.1825],[0.0475,0.1825],[0.04875,0.18375],[0.04875,0.18375],[0.04875,0.18375],[0.04875,0.18375],[0.04875,0.18375],[0.04875,0.18375],[0.04875,0.18375],[0.04875,0.18375],[0.04875,0.18375],[0.04875,0.18375],[0.04875,0.18375],[0.04875,0.18375],[0.04875,0.18375],[0.04875,0.18375],[0.04875,0.18375],[0.04875,0.18375],[0.04875,0.18375],[0.04875,0.18375],[0.04875,0.18375],[0.04875,0.185],[0.04875,0.18625],[0.04875,0.18625],[0.04875,0.1875],[0.04875,0.1875],[0.04875,0.19],[0.04875,0.1925],[0.05,0.1975],[0.05125,0.20375],[0.05125,0.205],[0.05125,0.20625],[0.05125,0.20625],[0.05125,0.20625],[0.05125,0.20625],[0.05125,0.20625],[0.05125,0.20625],[0.05125,0.20625],[0.05125,0.20625]]]",1,[174],space,22.853,space,6.537,0,0,0,1,1,ahead_left_2.jpg,ahead_left_2_path.jpg,,,,,,,,,,,,,,,,
Image_List_4,,,,,,,,,,,,,,,,44238,2020-11-29_00h06.51.988,analogCatScenes,2020.1.3,MacIntel,60,"[1280,800]","[[[0.0025,-0.19],[0.0025,-0.19],[0.0025,-0.19],[0.0025,-0.19],[0.0025,-0.19],[0.0025,-0.19],[0.0025,-0.19],[0.0025,-0.19],[0.0025,-0.19],[0.0025,-0.19],[0.0025,-0.19],[0.0025,-0.19],[0.0025,-0.19],[0.0025,-0.19],[0.0025,-0.19],[0.0025,-0.19],[0.0025,-0.19],[0.0025,-0.19],[0.0025,-0.19],[0.0025,-0.19],[0.0025,-0.19],[0.0025,-0.19],[0.0025,-0.18875],[0.0025,-0.18875],[0.0025,-0.18875],[0.0025,-0.1875],[0.0025,-0.1875],[0.0025,-0.18625],[0.0025,-0.18625],[0.0025,-0.18625],[0.0025,-0.185],[0.0025,-0.185],[0.00125,-0.18375],[0.00125,-0.1825],[0.00125,-0.1825],[0.00125,-0.18125],[0.00125,-0.18],[0,-0.18],[0,-0.1775],[0,-0.17625],[-0.00125,-0.175],[-0.00125,-0.17375],[-0.0025,-0.1725],[-0.0025,-0.17],[-0.0025,-0.16875],[-0.00375,-0.1675],[-0.00375,-0.165],[-0.005,-0.16375],[-0.00625,-0.16125],[-0.00625,-0.15875],[-0.00875,-0.155],[-0.01,-0.15125],[-0.01,-0.14875],[-0.01125,-0.14625],[-0.01125,-0.14375],[-0.0125,-0.14125],[-0.0125,-0.13875],[-0.01375,-0.1375],[-0.015,-0.135],[-0.01625,-0.1325],[-0.01625,-0.13],[-0.0175,-0.12875],[-0.0175,-0.125],[-0.01875,-0.1225],[-0.02,-0.12],[-0.02,-0.1175],[-0.02,-0.115],[-0.02125,-0.1125],[-0.0225,-0.11],[-0.0225,-0.10625],[-0.02375,-0.10375],[-0.025,-0.10125],[-0.02625,-0.0975],[-0.0275,-0.095],[-0.02875,-0.0925],[-0.03,-0.09],[-0.03,-0.0875],[-0.03125,-0.085],[-0.0325,-0.08375],[-0.03375,-0.08],[-0.03375,-0.07875],[-0.035,-0.07625],[-0.035,-0.075],[-0.035,-0.0725],[-0.03625,-0.07125],[-0.03625,-0.06875],[-0.0375,-0.0675],[-0.03875,-0.065],[-0.04,-0.0625],[-0.04,-0.06125],[-0.04125,-0.06],[-0.04125,-0.0575],[-0.0425,-0.05625],[-0.0425,-0.055],[-0.04375,-0.05375],[-0.04375,-0.05125],[-0.045,-0.05],[-0.045,-0.04875],[-0.04625,-0.04625],[-0.04625,-0.045],[-0.0475,-0.04375],[-0.04875,-0.04125],[-0.04875,-0.04],[-0.05,-0.0375],[-0.05,-0.035],[-0.05125,-0.03375],[-0.0525,-0.03125],[-0.0525,-0.02875],[-0.05375,-0.02625],[-0.055,-0.02375],[-0.055,-0.0225],[-0.05625,-0.02],[-0.0575,-0.0175],[-0.0575,-0.01625],[-0.05875,-0.01375],[-0.06,-0.01125],[-0.06125,-0.00875],[-0.06125,-0.0075],[-0.0625,-0.005],[-0.06375,-0.0025],[-0.06375,-0.00125],[-0.06625,0.00125],[-0.06625,0.005],[-0.06875,0.0075],[-0.06875,0.01],[-0.07125,0.01375],[-0.0725,0.0175],[-0.07375,0.02],[-0.075,0.0225],[-0.07625,0.02375],[-0.0775,0.02625],[-0.07875,0.02875],[-0.08,0.03],[-0.08125,0.0325],[-0.0825,0.035],[-0.085,0.03875],[-0.08625,0.04125],[-0.0875,0.045],[-0.09,0.0475],[-0.09,0.05],[-0.0925,0.0525],[-0.09375,0.055],[-0.095,0.05875],[-0.09625,0.06],[-0.0975,0.0625],[-0.09875,0.06375],[-0.1,0.06625],[-0.10125,0.0675],[-0.1025,0.07],[-0.10375,0.0725],[-0.105,0.075],[-0.10625,0.07625],[-0.1075,0.0775],[-0.10875,0.08125],[-0.11,0.0825],[-0.11125,0.085],[-0.1125,0.0875],[-0.11375,0.08875],[-0.11625,0.09125],[-0.1175,0.09375],[-0.11875,0.095],[-0.11875,0.09625],[-0.12125,0.09875],[-0.12375,0.10125],[-0.125,0.1025],[-0.12625,0.10375],[-0.1275,0.10375],[-0.1275,0.105],[-0.12875,0.10625],[-0.13125,0.1075],[-0.1325,0.11125],[-0.135,0.11375],[-0.1375,0.11875],[-0.14,0.12125],[-0.1425,0.12375],[-0.14375,0.12625],[-0.145,0.1275],[-0.14625,0.12875],[-0.14875,0.13],[-0.15,0.13125],[-0.15125,0.1325],[-0.1525,0.13375],[-0.155,0.135],[-0.15625,0.13625],[-0.1575,0.1375],[-0.16,0.13875],[-0.16125,0.13875],[-0.1625,0.14125],[-0.16375,0.14125],[-0.16375,0.1425],[-0.165,0.14375],[-0.165,0.14625],[-0.16625,0.1475],[-0.16625,0.14875],[-0.1675,0.15],[-0.1675,0.1525],[-0.16875,0.155],[-0.17,0.15625],[-0.17,0.15875],[-0.1725,0.16125],[-0.1725,0.16375],[-0.17375,0.165],[-0.17625,0.1675],[-0.1775,0.17125],[-0.18,0.175],[-0.1825,0.17875],[-0.18375,0.18125],[-0.185,0.1825],[-0.185,0.185],[-0.18625,0.18625],[-0.18625,0.18625],[-0.18625,0.1875],[-0.18625,0.1875],[-0.18625,0.18875],[-0.18625,0.19125],[-0.18625,0.1925],[-0.18625,0.19375],[-0.18625,0.195],[-0.18625,0.19625],[-0.18625,0.19625],[-0.18625,0.1975],[-0.18625,0.19875],[-0.185,0.19875],[-0.185,0.2],[-0.185,0.20125],[-0.185,0.20125],[-0.185,0.20125],[-0.185,0.20125],[-0.185,0.20125],[-0.185,0.20125],[-0.185,0.20125],[-0.185,0.20125],[-0.185,0.20125],[-0.185,0.20125],[-0.18625,0.20125],[-0.18625,0.20125]],[[0.005,-0.2],[0.005,-0.2],[0.005,-0.2],[0.005,-0.2],[0.005,-0.2],[0.005,-0.2],[0.005,-0.2],[0.005,-0.2],[0.005,-0.2],[0.005,-0.2],[0.005,-0.2],[0.005,-0.2],[0.005,-0.2],[0.005,-0.2],[0.005,-0.1975],[0.005,-0.19375],[0.005,-0.19],[0.005,-0.185],[0.005,-0.17875],[0.00625,-0.17625],[0.0075,-0.1725],[0.00875,-0.17],[0.01125,-0.16625],[0.0125,-0.16125],[0.01375,-0.15875],[0.015,-0.15375],[0.01625,-0.15],[0.0175,-0.145],[0.02125,-0.135],[0.0225,-0.13],[0.025,-0.1225],[0.0275,-0.115],[0.03,-0.1075],[0.0325,-0.10125],[0.03375,-0.09375],[0.03625,-0.0875],[0.03875,-0.0825],[0.04125,-0.07375],[0.04375,-0.06875],[0.045,-0.0625],[0.04625,-0.0575],[0.0475,-0.0525],[0.05,-0.04625],[0.0525,-0.04],[0.055,-0.0325],[0.0575,-0.02625],[0.06125,-0.01875],[0.0625,-0.01375],[0.065,-0.01],[0.06625,-0.00625],[0.0675,-0.00375],[0.06875,0.00125],[0.07125,0.00625],[0.0725,0.01125],[0.075,0.01625],[0.07625,0.0225],[0.07875,0.02625],[0.08,0.03],[0.08125,0.03375],[0.0825,0.03625],[0.08375,0.03875],[0.085,0.04125],[0.08625,0.04375],[0.0875,0.0475],[0.08875,0.05125],[0.09,0.055],[0.09125,0.05875],[0.0925,0.06375],[0.095,0.06875],[0.0975,0.075],[0.10125,0.08125],[0.10375,0.0875],[0.10625,0.0925],[0.10875,0.0975],[0.11125,0.10125],[0.11375,0.10625],[0.11625,0.11],[0.11875,0.1125],[0.12,0.115],[0.1225,0.11875],[0.12375,0.12125],[0.12625,0.125],[0.12875,0.1275],[0.13125,0.1325],[0.13375,0.13625],[0.13625,0.13875],[0.13875,0.14125],[0.14,0.14375],[0.14125,0.145],[0.1425,0.14625],[0.145,0.1475],[0.145,0.14875],[0.14625,0.15],[0.14875,0.15125],[0.15,0.1525],[0.15,0.15375],[0.15125,0.155],[0.1525,0.15625],[0.155,0.1575],[0.15625,0.15875],[0.1575,0.16],[0.15875,0.1625],[0.16,0.16375],[0.16125,0.165],[0.1625,0.16625],[0.16375,0.1675],[0.165,0.16875],[0.16625,0.17],[0.1675,0.17125],[0.16875,0.1725],[0.17,0.17375],[0.17125,0.17625],[0.1725,0.17625],[0.1725,0.1775],[0.17375,0.17875],[0.17375,0.17875],[0.175,0.17875],[0.175,0.17875],[0.175,0.17875],[0.175,0.17875],[0.175,0.17875],[0.175,0.17875],[0.175,0.17875],[0.175,0.17875],[0.175,0.17875],[0.175,0.17875],[0.175,0.17875],[0.175,0.17875],[0.175,0.17875],[0.175,0.17875]]]",2,"[236,130]",space,13.023,space,3.11,0,1,1,6,1,right_left_2.jpg,right_left_2_path.jpg,,,,,,,,,,,,,,,,
Image_List_4,,,,,,,,,,,,,,,,44238,2020-11-29_00h06.51.988,analogCatScenes,2020.1.3,MacIntel,60,"[1280,800]","[[[0.00125,-0.195],[0.00125,-0.195],[0.00125,-0.195],[0.00125,-0.195],[0.00125,-0.195],[0.00125,-0.195],[0.00125,-0.195],[0.00125,-0.195],[0.00125,-0.195],[0.00125,-0.195],[0.00125,-0.195],[0.00125,-0.195],[0.00125,-0.195],[0.00125,-0.1925],[0.00125,-0.19],[0.00125,-0.185],[0.00125,-0.17375],[0.00125,-0.16875],[0.00125,-0.1625],[0.00125,-0.155],[0.00125,-0.15],[0.00125,-0.14375],[0.00125,-0.14],[0,-0.13375],[0,-0.12875],[0,-0.12375],[-0.00125,-0.11375],[-0.0025,-0.1075],[-0.0025,-0.1],[-0.0025,-0.0925],[-0.0025,-0.085],[-0.0025,-0.07625],[-0.0025,-0.07125],[-0.0025,-0.06625],[-0.0025,-0.06125],[-0.0025,-0.055],[-0.00375,-0.05125],[-0.00375,-0.0475],[-0.00375,-0.0425],[-0.005,-0.03875],[-0.005,-0.0325],[-0.00625,-0.0275],[-0.00625,-0.0225],[-0.0075,-0.0175],[-0.0075,-0.01125],[-0.0075,-0.0075],[-0.00875,-0.0025],[-0.00875,0.0025],[-0.01,0.00625],[-0.01,0.01],[-0.01,0.01375],[-0.01125,0.01625],[-0.01125,0.02],[-0.01125,0.02375],[-0.0125,0.02625],[-0.0125,0.03125],[-0.01375,0.035],[-0.01375,0.03875],[-0.01375,0.04375],[-0.015,0.04625],[-0.015,0.05],[-0.01625,0.05375],[-0.01625,0.0575],[-0.0175,0.06125],[-0.0175,0.06375],[-0.01875,0.06625],[-0.01875,0.06875],[-0.02,0.07125],[-0.02,0.07375],[-0.02,0.075],[-0.02,0.0775],[-0.02125,0.07875],[-0.02125,0.08],[-0.02125,0.08125],[-0.02125,0.08375],[-0.02125,0.085],[-0.02125,0.0875],[-0.02125,0.08875],[-0.02125,0.09125],[-0.02125,0.09125],[-0.02125,0.0925],[-0.0225,0.0925],[-0.0225,0.09375],[-0.0225,0.095],[-0.0225,0.095],[-0.0225,0.09625],[-0.0225,0.09625],[-0.0225,0.09625],[-0.0225,0.0975],[-0.0225,0.0975],[-0.0225,0.0975],[-0.02375,0.0975],[-0.02375,0.0975],[-0.02375,0.0975]],[[0.00625,-0.19375],[0.00625,-0.19375],[0.00625,-0.19375],[0.00625,-0.19375],[0.00625,-0.19375],[0.00625,-0.19375],[0.00625,-0.19375],[0.00625,-0.19375],[0.00625,-0.19375],[0.00625,-0.19375],[0.00625,-0.19375],[0.00625,-0.19375],[0.00625,-0.19375],[0.00625,-0.1925],[0.00625,-0.1925],[0.00625,-0.19125],[0.00625,-0.18875],[0.00625,-0.18625],[0.00625,-0.1825],[0.00625,-0.17625],[0.005,-0.17375],[0.005,-0.17],[0.005,-0.1675],[0.005,-0.165],[0.005,-0.16125],[0.005,-0.15875],[0.005,-0.155],[0.005,-0.1525],[0.00375,-0.14875],[0.00375,-0.14625],[0.00375,-0.145],[0.00375,-0.1425],[0.00375,-0.14125],[0.00375,-0.14],[0.00375,-0.13875],[0.00375,-0.1375],[0.00375,-0.13625],[0.00375,-0.135],[0.00375,-0.13375],[0.00375,-0.1325],[0.00375,-0.13125],[0.00375,-0.13],[0.00375,-0.1275],[0.00375,-0.1275],[0.00375,-0.12625],[0.00375,-0.12625],[0.005,-0.125],[0.005,-0.125],[0.00625,-0.125],[0.0075,-0.125],[0.00875,-0.125],[0.01,-0.12375],[0.01125,-0.12375],[0.015,-0.1225],[0.02,-0.12125],[0.02375,-0.12],[0.03375,-0.11875],[0.03875,-0.1175],[0.045,-0.115],[0.0525,-0.11375],[0.0575,-0.1125],[0.065,-0.11],[0.07375,-0.11],[0.08125,-0.1075],[0.09,-0.10625],[0.0975,-0.105],[0.1075,-0.1025],[0.11625,-0.10125],[0.1225,-0.1],[0.13,-0.0975],[0.14,-0.095],[0.1475,-0.09375],[0.1575,-0.09125],[0.165,-0.09],[0.1725,-0.0875],[0.185,-0.085],[0.19375,-0.08375],[0.20125,-0.08375],[0.21125,-0.0825],[0.22125,-0.08125],[0.2325,-0.08125],[0.24375,-0.08125],[0.2575,-0.08125],[0.27875,-0.08125],[0.285,-0.08125],[0.295,-0.08125],[0.30125,-0.08125],[0.30625,-0.08125],[0.31,-0.08125],[0.3125,-0.08125],[0.31625,-0.08125],[0.31875,-0.08125],[0.32,-0.08125],[0.32125,-0.08125],[0.32375,-0.08125],[0.32375,-0.08125],[0.32375,-0.08125],[0.32375,-0.08125]]]",2,"[94,98]",space,9.887,space,1.761,0,2,2,2,1,ahead_right_2.jpg,ahead_right_2_path.jpg,,,,,,,,,,,,,,,,
Image_List_4,,,,,,,,,,,,,,,,44238,2020-11-29_00h06.51.988,analogCatScenes,2020.1.3,MacIntel,60,"[1280,800]","[[[0.0025,-0.19625],[0.0025,-0.19625],[0.0025,-0.19625],[0.0025,-0.19625],[0.0025,-0.19625],[0.0025,-0.19625],[0.0025,-0.19625],[0.0025,-0.19625],[0.0025,-0.19625],[0.0025,-0.19625],[0.0025,-0.19625],[0.0025,-0.19625],[0.0025,-0.19625],[0.0025,-0.19625],[0.0025,-0.19625],[0.0025,-0.19625],[0.0025,-0.19625],[0.0025,-0.19625],[0.0025,-0.19625],[0.0025,-0.19625],[0.0025,-0.195],[0.0025,-0.195],[0.0025,-0.19375],[0.0025,-0.1925],[0.0025,-0.19125],[0.0025,-0.19],[0.0025,-0.18875],[0.0025,-0.1875],[0.0025,-0.185],[0.00125,-0.18375],[0.00125,-0.18],[0.00125,-0.1775],[0,-0.1725],[0,-0.1675],[-0.00125,-0.1625],[-0.0025,-0.15625],[-0.00375,-0.15],[-0.005,-0.1425],[-0.00625,-0.13625],[-0.0075,-0.12875],[-0.00875,-0.12125],[-0.01125,-0.115],[-0.0125,-0.10375],[-0.015,-0.095],[-0.0175,-0.0875],[-0.02,-0.07875],[-0.02125,-0.0725],[-0.02375,-0.06625],[-0.02625,-0.05875],[-0.02875,-0.0525],[-0.0325,-0.0475],[-0.03625,-0.0375],[-0.04,-0.0325],[-0.0425,-0.02875],[-0.04625,-0.02375],[-0.05,-0.01875],[-0.05375,-0.015],[-0.0575,-0.0125],[-0.0625,-0.0075],[-0.0675,-0.0025],[-0.07375,0.00375],[-0.0775,0.00875],[-0.08125,0.0125],[-0.085,0.0175],[-0.08875,0.02],[-0.0925,0.02375],[-0.09625,0.02625],[-0.1,0.03],[-0.10375,0.0325],[-0.1075,0.035],[-0.11375,0.04],[-0.1175,0.0425],[-0.12,0.04375],[-0.1225,0.04625],[-0.12625,0.05],[-0.1275,0.05125],[-0.13,0.05375],[-0.1325,0.05625],[-0.135,0.06],[-0.14,0.06375],[-0.14375,0.06625],[-0.1475,0.06875],[-0.15,0.07],[-0.15375,0.07125],[-0.15625,0.07375],[-0.15875,0.075],[-0.16,0.07625],[-0.1625,0.0775],[-0.16375,0.07875],[-0.1675,0.08125],[-0.16875,0.0825],[-0.17125,0.08375],[-0.17375,0.08625],[-0.17625,0.0875],[-0.17875,0.09],[-0.1825,0.09125],[-0.18625,0.09375],[-0.19,0.09625],[-0.19625,0.1],[-0.2,0.1025],[-0.20375,0.10375],[-0.20625,0.10625],[-0.21,0.1075],[-0.215,0.11],[-0.21875,0.1125],[-0.22375,0.11625],[-0.22875,0.11875],[-0.235,0.1225],[-0.24375,0.1275],[-0.2475,0.13],[-0.25,0.13],[-0.25125,0.13125],[-0.2525,0.1325],[-0.25375,0.1325],[-0.255,0.13375],[-0.255,0.13375],[-0.25625,0.13375],[-0.25625,0.135],[-0.25625,0.135],[-0.25625,0.135],[-0.25625,0.135],[-0.2575,0.135],[-0.2575,0.135],[-0.2575,0.135],[-0.2575,0.135]],[[0.0075,-0.18875],[0.0075,-0.18875],[0.0075,-0.18875],[0.0075,-0.18875],[0.0075,-0.18875],[0.0075,-0.18875],[0.0075,-0.18875],[0.0075,-0.18875],[0.0075,-0.18875],[0.0075,-0.18875],[0.0075,-0.18875],[0.0075,-0.18875],[0.0075,-0.18875],[0.0075,-0.18875],[0.0075,-0.18875],[0.0075,-0.18875],[0.0075,-0.18875],[0.0075,-0.1875],[0.00875,-0.185],[0.01,-0.1825],[0.0125,-0.17875],[0.01375,-0.17625],[0.01625,-0.17375],[0.02,-0.17],[0.0225,-0.1675],[0.025,-0.165],[0.0275,-0.16375],[0.03,-0.16125],[0.0325,-0.15875],[0.035,-0.1575],[0.03875,-0.15375],[0.0425,-0.1525],[0.045,-0.15125],[0.0475,-0.15],[0.05,-0.14875],[0.0525,-0.1475],[0.055,-0.14625],[0.05875,-0.145],[0.065,-0.14375],[0.07,-0.1425],[0.07625,-0.14125],[0.08125,-0.14],[0.08625,-0.13875],[0.09375,-0.13875],[0.09875,-0.1375],[0.10375,-0.1375],[0.11125,-0.1375],[0.1175,-0.1375],[0.13,-0.1375],[0.1375,-0.1375],[0.14375,-0.1375],[0.15125,-0.13875],[0.15625,-0.13875],[0.16125,-0.14],[0.1675,-0.14125],[0.1725,-0.1425],[0.1775,-0.14375],[0.18625,-0.14625],[0.19625,-0.15125],[0.20375,-0.1525],[0.21,-0.155],[0.215,-0.1575],[0.22125,-0.16],[0.2275,-0.16375],[0.23375,-0.1675],[0.2425,-0.17125],[0.25,-0.17625],[0.26125,-0.1825],[0.26125,-0.1825],[0.27,-0.18875],[0.2725,-0.19],[0.275,-0.19125],[0.27625,-0.1925],[0.2775,-0.19375],[0.27875,-0.19375],[0.27875,-0.195],[0.28,-0.195],[0.28,-0.195],[0.28,-0.195],[0.28,-0.195],[0.28,-0.195],[0.28,-0.195],[0.28,-0.195],[0.28125,-0.195],[0.28125,-0.195],[0.28125,-0.195],[0.28125,-0.19625],[0.28125,-0.1975],[0.28125,-0.1975],[0.2825,-0.19875],[0.285,-0.2],[0.28625,-0.2025],[0.28875,-0.20375],[0.29125,-0.205],[0.2925,-0.20625],[0.29375,-0.20625],[0.295,-0.2075],[0.295,-0.2075],[0.29625,-0.2075],[0.29625,-0.2075],[0.29625,-0.2075],[0.29625,-0.2075],[0.29625,-0.2075],[0.29625,-0.2075],[0.29625,-0.2075],[0.29625,-0.2075]]]",2,"[125,106]",space,8.683,space,2.457,0,3,3,4,1,left_2.jpg,left_2_path.jpg,,,,,,,,,,,,,,,,
Image_List_4,,,,,,,,,,,,,,,,44238,2020-11-29_00h06.51.988,analogCatScenes,2020.1.3,MacIntel,60,"[1280,800]","[[[-0.00375,-0.1925],[-0.00375,-0.1925],[-0.00375,-0.1925],[-0.00375,-0.1925],[-0.00375,-0.1925],[-0.00375,-0.1925],[-0.00375,-0.1925],[-0.00375,-0.1925],[-0.00375,-0.1925],[-0.00375,-0.1925],[-0.00375,-0.1925],[-0.00375,-0.1925],[-0.00375,-0.1925],[-0.00375,-0.1925],[-0.00375,-0.1925],[-0.00375,-0.19125],[-0.00375,-0.18875],[-0.00375,-0.185],[-0.00375,-0.18],[-0.00375,-0.17375],[-0.00375,-0.1675],[-0.00375,-0.16],[-0.00375,-0.15],[-0.00375,-0.1425],[-0.00375,-0.1375],[-0.00375,-0.13],[-0.00375,-0.125],[-0.00375,-0.11875],[-0.00375,-0.115],[-0.00375,-0.11],[-0.00375,-0.1075],[-0.00375,-0.10375],[-0.00375,-0.09875],[-0.00375,-0.09625],[-0.00375,-0.09125],[-0.00375,-0.08625],[-0.00375,-0.0825],[-0.00375,-0.075],[-0.00375,-0.07],[-0.00375,-0.06375],[-0.00375,-0.05375],[-0.00375,-0.04875],[-0.00375,-0.0425],[-0.00375,-0.03625],[-0.00375,-0.02875],[-0.00375,-0.02125],[-0.00125,-0.01375],[-0.00125,-0.00875],[0,-0.00125],[0,0.00375],[0.00125,0.00875],[0.00125,0.01625],[0.0025,0.02125],[0.00375,0.025],[0.00375,0.03125],[0.005,0.03625],[0.00625,0.04],[0.00625,0.045],[0.00625,0.05],[0.0075,0.0525],[0.0075,0.06],[0.00875,0.065],[0.00875,0.07],[0.01,0.075],[0.01125,0.08375],[0.0125,0.09125],[0.01375,0.09875],[0.015,0.1075],[0.01625,0.115],[0.01875,0.12625],[0.02,0.1325],[0.02125,0.13875],[0.02375,0.14625],[0.02625,0.15375],[0.0275,0.16],[0.03,0.1675],[0.03125,0.1725],[0.0325,0.175],[0.0325,0.17875],[0.0325,0.18125],[0.0325,0.18125],[0.0325,0.1825],[0.0325,0.1825],[0.0325,0.1825],[0.0325,0.1825],[0.0325,0.1825],[0.0325,0.1825],[0.0325,0.1825],[0.0325,0.1825],[0.0325,0.18125],[0.0325,0.18125],[0.03125,0.18125],[0.03125,0.18125],[0.03125,0.18125],[0.03125,0.18125],[0.03125,0.18125]]]",1,[96],space,3.981,space,1.361,0,4,4,0,1,ahead_2.jpg,ahead_2_path.jpg,,,,,,,,,,,,,,,,
Image_List_4,,,,,,,,,,,,,,,,44238,2020-11-29_00h06.51.988,analogCatScenes,2020.1.3,MacIntel,60,"[1280,800]","[[[0.00125,-0.20375],[0.00125,-0.20375],[0.00125,-0.20375],[0.00125,-0.20375],[0.00125,-0.20375],[0.00125,-0.20375],[0.00125,-0.20375],[0.00125,-0.20375],[0.00125,-0.20375],[0.00125,-0.20375],[0.00125,-0.20375],[0.00125,-0.20375],[0.00125,-0.20375],[0.00125,-0.20375],[0.00125,-0.20375],[0.00125,-0.20375],[0.00125,-0.20375],[0.00125,-0.20375],[0.00125,-0.20375],[0.00125,-0.20375],[0.00125,-0.2025],[0.00125,-0.20125],[0.00125,-0.2],[0.00125,-0.2],[0.00125,-0.19875],[0.00125,-0.19875],[0.00125,-0.1975],[0.00125,-0.1975],[0.00125,-0.19625],[0.00125,-0.195],[0.00125,-0.19375],[0.00125,-0.19125],[0.00125,-0.19125],[0.00125,-0.19],[0.00125,-0.18875],[0.00125,-0.1875],[0.00125,-0.18625],[0.00125,-0.185],[0.00125,-0.18375],[0.00125,-0.1825],[0.00125,-0.18],[0.00125,-0.17875],[0.00125,-0.1775],[0.0025,-0.17625],[0.0025,-0.17375],[0.0025,-0.17375],[0.0025,-0.1725],[0.0025,-0.17125],[0.0025,-0.17],[0.0025,-0.1675],[0.0025,-0.16625],[0.0025,-0.165],[0.00375,-0.16375],[0.00375,-0.16125],[0.00375,-0.16],[0.00375,-0.15875],[0.005,-0.15625],[0.005,-0.155],[0.00625,-0.1525],[0.00625,-0.14875],[0.0075,-0.145],[0.0075,-0.14125],[0.00875,-0.13875],[0.00875,-0.135],[0.01,-0.13375],[0.01,-0.13125],[0.01,-0.13],[0.01125,-0.1275],[0.01125,-0.125],[0.01125,-0.12375],[0.01125,-0.1225],[0.0125,-0.12],[0.0125,-0.11875],[0.0125,-0.1175],[0.0125,-0.115],[0.01375,-0.11375],[0.01375,-0.1125],[0.01375,-0.11125],[0.01375,-0.1075],[0.01375,-0.10625],[0.01375,-0.10375],[0.015,-0.1025],[0.015,-0.10125],[0.015,-0.09875],[0.01625,-0.09625],[0.01625,-0.095],[0.01625,-0.09125],[0.0175,-0.08875],[0.0175,-0.0875],[0.01875,-0.08625],[0.01875,-0.085],[0.01875,-0.08375],[0.01875,-0.08125],[0.02,-0.08],[0.02,-0.07875],[0.02,-0.07875],[0.02125,-0.07625],[0.02125,-0.075],[0.02125,-0.07375],[0.02125,-0.0725],[0.0225,-0.07125],[0.0225,-0.07],[0.0225,-0.06875],[0.0225,-0.06875],[0.02375,-0.065],[0.02375,-0.06125],[0.025,-0.0575],[0.025,-0.05625],[0.025,-0.05375],[0.025,-0.0525],[0.025,-0.05],[0.025,-0.04875],[0.025,-0.0475],[0.025,-0.045],[0.025,-0.045],[0.025,-0.0425],[0.025,-0.0425],[0.025,-0.0425],[0.025,-0.04125],[0.025,-0.04125],[0.025,-0.04125],[0.025,-0.04125],[0.025,-0.04],[0.025,-0.03875],[0.025,-0.03875],[0.025,-0.0375],[0.025,-0.03625],[0.025,-0.03625],[0.025,-0.035],[0.025,-0.03375],[0.025,-0.0325],[0.025,-0.0325],[0.025,-0.0325]],[[-0.00125,-0.2025],[-0.00125,-0.2025],[-0.00125,-0.2025],[-0.00125,-0.2025],[-0.00125,-0.2025],[-0.00125,-0.2025],[-0.00125,-0.2025],[-0.00125,-0.2025],[-0.00125,-0.2025],[-0.00125,-0.2025],[-0.00125,-0.2025],[-0.00125,-0.2025],[-0.00125,-0.2025],[-0.00125,-0.2025],[-0.00125,-0.2025],[-0.00125,-0.2],[0,-0.19875],[0.0025,-0.195],[0.01,-0.18625],[0.015,-0.18],[0.02125,-0.1725],[0.0275,-0.16625],[0.0325,-0.16125],[0.0375,-0.15625],[0.04125,-0.15375],[0.045,-0.1525],[0.0475,-0.15],[0.05125,-0.14625],[0.05625,-0.1425],[0.06,-0.13875],[0.06625,-0.135],[0.07,-0.13125],[0.07375,-0.12875],[0.07625,-0.1275],[0.0775,-0.12625],[0.07875,-0.12625],[0.08125,-0.125],[0.0825,-0.12375],[0.08375,-0.1225],[0.085,-0.1225],[0.08625,-0.12125],[0.08875,-0.12],[0.09,-0.11875],[0.0925,-0.11625],[0.095,-0.115],[0.0975,-0.11375],[0.10125,-0.11125],[0.10375,-0.11],[0.10625,-0.1075],[0.11,-0.10625],[0.1125,-0.105],[0.115,-0.10375],[0.1175,-0.1025],[0.12,-0.10125],[0.1225,-0.1],[0.12625,-0.09875],[0.12875,-0.0975],[0.13,-0.09625],[0.1325,-0.095],[0.13375,-0.09375],[0.13625,-0.09125],[0.14,-0.09],[0.1425,-0.0875],[0.145,-0.08625],[0.14875,-0.08375],[0.1525,-0.08125],[0.15625,-0.08],[0.16,-0.0775],[0.1625,-0.07625],[0.16625,-0.07625],[0.16875,-0.075],[0.17125,-0.07375],[0.1725,-0.07375],[0.17625,-0.0725],[0.17875,-0.0725],[0.18125,-0.0725],[0.18375,-0.0725],[0.185,-0.07125],[0.1875,-0.07125],[0.19,-0.07125],[0.1925,-0.07],[0.1925,-0.07],[0.195,-0.06875],[0.19625,-0.06875],[0.19625,-0.06875],[0.1975,-0.06875],[0.1975,-0.06875],[0.1975,-0.06875]]]",2,"[133,88]",space,11.929,space,3.701,0,5,5,3,1,ahead_right_left_2.jpg,ahead_right_left_2_path.jpg,,,,,,,,,,,,,,,,
Image_List_4,,,,,,,,,,,,,,,,44238,2020-11-29_00h06.51.988,analogCatScenes,2020.1.3,MacIntel,60,"[1280,800]","[[[-0.0025,-0.205],[-0.0025,-0.205],[-0.0025,-0.205],[-0.0025,-0.205],[-0.0025,-0.205],[-0.0025,-0.205],[-0.0025,-0.205],[-0.0025,-0.205],[-0.0025,-0.205],[-0.0025,-0.205],[-0.0025,-0.205],[-0.0025,-0.205],[-0.0025,-0.205],[-0.0025,-0.205],[-0.0025,-0.205],[-0.0025,-0.2025],[0,-0.19875],[0.00375,-0.19375],[0.0125,-0.185],[0.02125,-0.17625],[0.0275,-0.17],[0.03625,-0.1625],[0.0425,-0.1575],[0.0475,-0.1525],[0.05125,-0.14875],[0.05625,-0.145],[0.05875,-0.1425],[0.0625,-0.14],[0.065,-0.13625],[0.06875,-0.1325],[0.07125,-0.13],[0.075,-0.1275],[0.0775,-0.12625],[0.08125,-0.12125],[0.08375,-0.12],[0.08625,-0.1175],[0.0875,-0.11625],[0.09,-0.11375],[0.09125,-0.1125],[0.09375,-0.11],[0.09625,-0.10875],[0.09875,-0.1075],[0.1025,-0.105],[0.1075,-0.10125],[0.1125,-0.09875],[0.1175,-0.09625],[0.12125,-0.09375],[0.125,-0.09],[0.13,-0.0875],[0.135,-0.08375],[0.1375,-0.0825],[0.14125,-0.08],[0.145,-0.0775],[0.15125,-0.0725],[0.1575,-0.07],[0.1625,-0.0675],[0.1675,-0.06375],[0.175,-0.0625],[0.18,-0.05875],[0.185,-0.0575],[0.19,-0.055],[0.19375,-0.05375],[0.1975,-0.05125],[0.19875,-0.05125],[0.20125,-0.04875],[0.2025,-0.04875],[0.205,-0.04625],[0.2075,-0.045],[0.21,-0.04375],[0.2125,-0.0425],[0.215,-0.04125],[0.22,-0.0375],[0.22375,-0.03625],[0.2275,-0.03375],[0.23125,-0.03125],[0.235,-0.02875],[0.23875,-0.025],[0.245,-0.0225],[0.24875,-0.02],[0.255,-0.0175],[0.2625,-0.01375],[0.26875,-0.0125],[0.2725,-0.01125],[0.27625,-0.01],[0.28125,-0.00875],[0.28375,-0.0075],[0.28625,-0.00625],[0.29,-0.005],[0.2925,-0.00375],[0.2975,-0.00125],[0.30125,-0.00125],[0.30375,0],[0.3075,0.00125],[0.31,0.0025],[0.3125,0.0025],[0.31375,0.00375],[0.31625,0.00375],[0.3175,0.00375],[0.31875,0.005],[0.31875,0.005],[0.32,0.005],[0.32,0.005],[0.32,0.005]]]",1,[103],space,4.757,space,1.525,0,6,6,5,1,right_2.jpg,right_2_path.jpg,,,,,,,,,,,,,,,,
Image_List_4,,,,,,,,,,,,,,,,44238,2020-11-29_00h06.51.988,analogCatScenes,2020.1.3,MacIntel,60,"[1280,800]","[[[0.005,-0.19625],[0.005,-0.19625],[0.005,-0.19625],[0.005,-0.19625],[0.005,-0.19625],[0.005,-0.19625],[0.005,-0.19625],[0.005,-0.19625],[0.005,-0.19625],[0.005,-0.19625],[0.005,-0.19625],[0.005,-0.19625],[0.005,-0.19625],[0.005,-0.19625],[0.005,-0.19625],[0.005,-0.19625],[0.005,-0.19625],[0.005,-0.19625],[0.005,-0.19625],[0.00375,-0.19625],[0.00375,-0.19625],[0.00125,-0.19625],[0,-0.19625],[-0.00125,-0.19625],[-0.00375,-0.19625],[-0.00625,-0.19625],[-0.0075,-0.19625],[-0.01,-0.19625],[-0.01125,-0.19625],[-0.015,-0.19625],[-0.0175,-0.19625],[-0.02,-0.19625],[-0.0225,-0.19625],[-0.0275,-0.195],[-0.0325,-0.195],[-0.03625,-0.195],[-0.0425,-0.19375],[-0.04625,-0.19375],[-0.05125,-0.1925],[-0.055,-0.1925],[-0.05875,-0.1925],[-0.0625,-0.1925],[-0.06875,-0.19125],[-0.0725,-0.19125],[-0.07625,-0.19125],[-0.08125,-0.19],[-0.085,-0.19],[-0.09,-0.18875],[-0.09375,-0.18875],[-0.0975,-0.1875],[-0.1025,-0.18625],[-0.105,-0.18625],[-0.11125,-0.18375],[-0.11375,-0.1825],[-0.1175,-0.18125],[-0.12125,-0.18],[-0.12625,-0.17875],[-0.13,-0.1775],[-0.13375,-0.17625],[-0.13625,-0.175],[-0.13875,-0.17375],[-0.14125,-0.17375],[-0.14375,-0.1725],[-0.145,-0.17125],[-0.14625,-0.17],[-0.1475,-0.17],[-0.14875,-0.1675],[-0.15,-0.16625],[-0.15125,-0.16375],[-0.15375,-0.16125],[-0.155,-0.1575],[-0.1575,-0.155],[-0.16,-0.15125],[-0.16125,-0.15],[-0.1625,-0.1475],[-0.16375,-0.14625],[-0.16375,-0.14375],[-0.165,-0.14125],[-0.165,-0.14],[-0.16625,-0.1375],[-0.16625,-0.13625],[-0.1675,-0.13375],[-0.1675,-0.1325],[-0.1675,-0.13],[-0.16875,-0.1275],[-0.16875,-0.125],[-0.16875,-0.1225],[-0.17,-0.12],[-0.17,-0.11875],[-0.17,-0.115],[-0.17125,-0.1125],[-0.17125,-0.11],[-0.17125,-0.10625],[-0.17125,-0.10375],[-0.1725,-0.1025],[-0.1725,-0.1],[-0.1725,-0.09875],[-0.1725,-0.0975],[-0.1725,-0.095],[-0.1725,-0.09125],[-0.1725,-0.09],[-0.1725,-0.0875],[-0.1725,-0.08625],[-0.1725,-0.08375],[-0.1725,-0.0825],[-0.1725,-0.08],[-0.1725,-0.0775],[-0.1725,-0.075],[-0.1725,-0.0725],[-0.1725,-0.07125],[-0.1725,-0.06875],[-0.1725,-0.0675],[-0.1725,-0.06625],[-0.1725,-0.06375],[-0.1725,-0.0625],[-0.1725,-0.0625],[-0.1725,-0.06125],[-0.1725,-0.05875],[-0.1725,-0.0575],[-0.17125,-0.05625],[-0.17125,-0.055],[-0.17125,-0.05375],[-0.17,-0.0525],[-0.17,-0.05],[-0.17,-0.04875],[-0.16875,-0.0475],[-0.16875,-0.04625],[-0.1675,-0.045],[-0.1675,-0.045],[-0.16625,-0.04375],[-0.16625,-0.0425],[-0.165,-0.0425],[-0.165,-0.04125],[-0.16375,-0.04],[-0.1625,-0.03875],[-0.1625,-0.0375],[-0.16,-0.035],[-0.15875,-0.035],[-0.15875,-0.03375],[-0.1575,-0.0325],[-0.15625,-0.0325],[-0.15625,-0.03125],[-0.155,-0.03],[-0.155,-0.02875],[-0.15375,-0.02875],[-0.15375,-0.0275],[-0.1525,-0.02625],[-0.1525,-0.02625],[-0.1525,-0.025],[-0.15125,-0.025],[-0.15125,-0.02375],[-0.15,-0.0225],[-0.15,-0.02125],[-0.14875,-0.02],[-0.1475,-0.01875],[-0.14625,-0.01625],[-0.145,-0.015],[-0.14375,-0.01375],[-0.1425,-0.0125],[-0.14125,-0.01125],[-0.14,-0.01],[-0.13875,-0.00875],[-0.1375,-0.00625],[-0.13625,-0.005],[-0.135,-0.0025],[-0.13375,-0.00125],[-0.1325,0],[-0.13125,0.0025],[-0.13,0.00375],[-0.13,0.005],[-0.12875,0.00625],[-0.1275,0.0075],[-0.1275,0.00875],[-0.1275,0.01],[-0.12625,0.01125],[-0.12625,0.0125],[-0.12625,0.01375],[-0.12625,0.015],[-0.12625,0.0175],[-0.125,0.01875],[-0.125,0.02],[-0.125,0.02125],[-0.125,0.0225],[-0.125,0.02625],[-0.12375,0.0275],[-0.12375,0.03],[-0.12375,0.0325],[-0.12375,0.03375],[-0.12375,0.0375],[-0.12375,0.04],[-0.12375,0.0425],[-0.12375,0.045],[-0.12375,0.04875],[-0.12375,0.05],[-0.12375,0.0525],[-0.12375,0.055],[-0.12375,0.0575],[-0.12375,0.06],[-0.125,0.06125],[-0.125,0.06375],[-0.125,0.065],[-0.125,0.0675],[-0.125,0.06875],[-0.125,0.07],[-0.12625,0.07],[-0.12625,0.07125],[-0.12625,0.07125],[-0.1275,0.0725],[-0.1275,0.0725],[-0.12875,0.07375],[-0.12875,0.07375],[-0.13,0.075],[-0.13125,0.075],[-0.13125,0.075],[-0.1325,0.075],[-0.135,0.07625],[-0.1375,0.07625],[-0.14125,0.07625],[-0.14375,0.07625],[-0.145,0.07625],[-0.14625,0.075],[-0.14625,0.075],[-0.14625,0.075],[-0.14625,0.075],[-0.14625,0.075],[-0.14625,0.075],[-0.14625,0.075],[-0.14625,0.075],[-0.14625,0.075],[-0.14625,0.075],[-0.14625,0.075],[-0.14625,0.075],[-0.14625,0.075],[-0.14625,0.075],[-0.14625,0.075],[-0.14625,0.075],[-0.145,0.075],[-0.145,0.075],[-0.145,0.075],[-0.145,0.075],[-0.145,0.075],[-0.145,0.075],[-0.145,0.075],[-0.145,0.075],[-0.145,0.075],[-0.145,0.075],[-0.145,0.07625],[-0.145,0.0775]],[[0.00125,-0.2],[0.00125,-0.2],[0.00125,-0.2],[0.00125,-0.2],[0.00125,-0.2],[0.00125,-0.2],[0.00125,-0.2],[0.00125,-0.2],[0.00125,-0.2],[0.00125,-0.2],[0.00125,-0.2],[0.00125,-0.2],[0.00125,-0.2],[0.00125,-0.2],[0.00125,-0.2],[0.00125,-0.2],[0.00125,-0.2],[0.00125,-0.2],[0.00375,-0.2],[0.005,-0.2],[0.0075,-0.19875],[0.00875,-0.19875],[0.01,-0.1975],[0.0125,-0.1975],[0.01375,-0.19625],[0.015,-0.19625],[0.01625,-0.195],[0.0175,-0.195],[0.02,-0.19375],[0.02125,-0.19375],[0.02375,-0.19375],[0.025,-0.1925],[0.02625,-0.1925],[0.02875,-0.1925],[0.03,-0.19125],[0.0325,-0.19125],[0.035,-0.19],[0.0375,-0.19],[0.04,-0.18875],[0.0425,-0.18875],[0.04375,-0.18875],[0.0475,-0.1875],[0.05,-0.1875],[0.0525,-0.1875],[0.055,-0.1875],[0.0575,-0.1875],[0.06,-0.18625],[0.06125,-0.18625],[0.06375,-0.18625],[0.065,-0.185],[0.0675,-0.185],[0.06875,-0.185],[0.07125,-0.185],[0.0725,-0.185],[0.07625,-0.18375],[0.07875,-0.18375],[0.08125,-0.18375],[0.08375,-0.18375],[0.08625,-0.18375],[0.08875,-0.18375],[0.09125,-0.18375],[0.09375,-0.18375],[0.09625,-0.18375],[0.09875,-0.18375],[0.1025,-0.18375],[0.105,-0.18375],[0.1075,-0.18375],[0.11,-0.18375],[0.1125,-0.18375],[0.11375,-0.18375],[0.11625,-0.18375],[0.1175,-0.18375],[0.12,-0.18375],[0.1225,-0.18375],[0.12625,-0.18375],[0.1275,-0.18375],[0.13,-0.1825],[0.13125,-0.1825],[0.13375,-0.1825],[0.13625,-0.1825],[0.1375,-0.18125],[0.14125,-0.18125],[0.14375,-0.18125],[0.1475,-0.18125],[0.15,-0.18125],[0.1525,-0.18125],[0.15375,-0.18125],[0.15625,-0.18],[0.15625,-0.18],[0.1575,-0.18],[0.1575,-0.18],[0.15875,-0.17875],[0.15875,-0.17875],[0.15875,-0.1775],[0.15875,-0.17625],[0.15875,-0.175],[0.15875,-0.17375],[0.16,-0.1725],[0.16,-0.17125],[0.16,-0.17125],[0.16,-0.17],[0.16,-0.16875],[0.16,-0.1675],[0.16125,-0.16625],[0.16125,-0.165],[0.16125,-0.16375],[0.1625,-0.16375],[0.1625,-0.1625],[0.16375,-0.16125],[0.16375,-0.16125],[0.165,-0.16],[0.16625,-0.1575],[0.1675,-0.15625],[0.16875,-0.155],[0.16875,-0.15375],[0.17,-0.1525],[0.17125,-0.15125],[0.17125,-0.14875],[0.1725,-0.1475],[0.1725,-0.14625],[0.1725,-0.14375],[0.1725,-0.1425],[0.1725,-0.14],[0.1725,-0.13875],[0.1725,-0.135],[0.17375,-0.1325],[0.17375,-0.13],[0.17375,-0.12625],[0.17375,-0.12375],[0.175,-0.12],[0.175,-0.11875],[0.175,-0.11625],[0.17625,-0.11375],[0.17625,-0.11125],[0.17625,-0.1075],[0.17625,-0.105],[0.17625,-0.10125],[0.1775,-0.09875],[0.17875,-0.095],[0.17875,-0.08875],[0.18,-0.085],[0.18125,-0.08125],[0.18125,-0.07875],[0.1825,-0.075],[0.18375,-0.0725],[0.185,-0.06875],[0.185,-0.065],[0.18625,-0.06125],[0.1875,-0.0575],[0.18875,-0.05125],[0.19,-0.04625],[0.19125,-0.04125],[0.1925,-0.03625],[0.19375,-0.02875],[0.19625,-0.025],[0.19875,-0.02],[0.2,-0.01625],[0.20125,-0.01375],[0.20375,-0.01125],[0.205,-0.01],[0.205,-0.0075],[0.20625,-0.0075],[0.2075,-0.00625],[0.20875,-0.005],[0.21125,-0.00375],[0.2125,-0.0025],[0.215,0.00125],[0.2175,0.0025],[0.22,0.005],[0.2225,0.00625],[0.22375,0.00875],[0.22625,0.01],[0.22875,0.01125],[0.23,0.0125],[0.23125,0.01375],[0.2325,0.01375],[0.235,0.015],[0.235,0.015],[0.23625,0.01625],[0.23625,0.01625],[0.23625,0.01625],[0.23625,0.01625],[0.23625,0.01625]]]",2,"[248,183]",,,,,,,,,,,,space,4.824,cemetery.jpg,space,13.844,0,0,0,22,1,bowlingalley5.jpg,church6.jpg,cargo5.jpg,bistrooutdoor6.jpg,,
Image_List_4,,,,,,,,,,,,,,,,44238,2020-11-29_00h06.51.988,analogCatScenes,2020.1.3,MacIntel,60,"[1280,800]","[[[0,-0.2025],[0,-0.2025],[0,-0.2025],[0,-0.2025],[0,-0.2025],[0,-0.2025],[0,-0.2025],[0,-0.2025],[0,-0.2025],[0,-0.2025],[0,-0.2025],[0,-0.2025],[0,-0.2025],[0,-0.2025],[0,-0.2],[0,-0.195],[0,-0.18875],[0,-0.18],[0,-0.17],[0,-0.15875],[0,-0.1475],[0,-0.13875],[0,-0.13],[0,-0.1175],[0,-0.10875],[0,-0.10125],[0,-0.09375],[0,-0.0875],[0,-0.08],[0,-0.07375],[0,-0.0675],[0,-0.06125],[0,-0.055],[0,-0.05125],[0,-0.0475],[0,-0.04375],[0,-0.04],[0,-0.0375],[0,-0.03375],[0,-0.03125],[-0.00125,-0.02875],[-0.00125,-0.025],[-0.00125,-0.02125],[-0.00125,-0.01875],[-0.00125,-0.015],[-0.00125,-0.01],[-0.00125,-0.0075],[-0.00125,-0.00375],[-0.00125,0],[-0.00125,0.00375],[-0.00125,0.00625],[-0.00125,0.0125],[-0.00125,0.01625],[-0.00125,0.02],[-0.00125,0.02375],[-0.00125,0.02625],[-0.00125,0.02875],[-0.00125,0.03125],[-0.00125,0.03375],[-0.00125,0.03625],[-0.00125,0.03875],[-0.00125,0.0425],[-0.00125,0.045],[-0.00125,0.04875],[-0.00125,0.04875],[-0.00125,0.0525],[-0.00125,0.055],[-0.00125,0.05625],[-0.00125,0.05625],[-0.00125,0.0575],[-0.0025,0.0575],[-0.0025,0.0575],[-0.00375,0.0575]]]",1,[73],,,,,,,,,,,,,,readingroom4.jpg,space,3.466,0,1,1,82,1,publicrestroom2.jpg,sandDunes_desert_outdoor9.jpg,promenadeDeck3.jpg,postoffice4.jpg,,
Image_List_4,,,,,,,,,,,,,,,,44238,2020-11-29_00h06.51.988,analogCatScenes,2020.1.3,MacIntel,60,"[1280,800]","[[[-0.00125,-0.2025],[-0.00125,-0.2025],[-0.00125,-0.2025],[-0.00125,-0.2025],[-0.00125,-0.2025],[-0.00125,-0.2025],[-0.00125,-0.2025],[-0.00125,-0.2025],[-0.00125,-0.2025],[-0.00125,-0.2025],[-0.00125,-0.2025],[-0.00125,-0.2025],[-0.00125,-0.2025],[-0.00125,-0.2025],[-0.00125,-0.2025],[-0.00125,-0.2025],[-0.00125,-0.1975],[-0.0025,-0.19375],[-0.00625,-0.18625],[-0.00875,-0.18125],[-0.01125,-0.17625],[-0.015,-0.1725],[-0.0175,-0.17],[-0.02,-0.1675],[-0.025,-0.165],[-0.02625,-0.16375],[-0.0325,-0.16125],[-0.0375,-0.15875],[-0.0425,-0.15625],[-0.05,-0.15375],[-0.0575,-0.15],[-0.06625,-0.14625],[-0.07875,-0.14125],[-0.0875,-0.1375],[-0.1025,-0.1325],[-0.11125,-0.13125],[-0.11875,-0.12875],[-0.125,-0.12625],[-0.13125,-0.125],[-0.14,-0.1225],[-0.1475,-0.12125],[-0.155,-0.12],[-0.165,-0.11625],[-0.1725,-0.115],[-0.185,-0.1125],[-0.1925,-0.11125],[-0.20125,-0.10875],[-0.21,-0.1075],[-0.2175,-0.1075],[-0.2225,-0.1075],[-0.23,-0.10625],[-0.23375,-0.10625],[-0.23875,-0.10625],[-0.2425,-0.10625],[-0.25125,-0.10625],[-0.25625,-0.10625],[-0.2625,-0.10625],[-0.2675,-0.10625],[-0.2725,-0.10625],[-0.27625,-0.10625],[-0.27875,-0.105],[-0.28125,-0.105],[-0.28375,-0.10375],[-0.285,-0.1025],[-0.285,-0.1025],[-0.285,-0.10125],[-0.2875,-0.10125]],[[0,-0.19625],[0,-0.19625],[0,-0.19625],[0,-0.19625],[0,-0.19625],[0,-0.19625],[0,-0.19625],[0,-0.19625],[0,-0.19625],[0,-0.19625],[0,-0.19625],[0,-0.19625],[0,-0.19625],[0,-0.19625],[0,-0.19375],[0.0025,-0.18875],[0.00625,-0.185],[0.01125,-0.18],[0.0175,-0.175],[0.0225,-0.17],[0.0275,-0.1675],[0.0325,-0.165],[0.0375,-0.1625],[0.04,-0.16125],[0.04625,-0.1575],[0.05,-0.15625],[0.05375,-0.155],[0.05625,-0.15375],[0.05875,-0.1525],[0.06125,-0.15125],[0.06375,-0.15],[0.0675,-0.14875],[0.0725,-0.1475],[0.08125,-0.14375],[0.0875,-0.14125],[0.09625,-0.1375],[0.10625,-0.135],[0.11875,-0.13],[0.13125,-0.12625],[0.145,-0.12375],[0.155,-0.12125],[0.16375,-0.11875],[0.17375,-0.11625],[0.18125,-0.115],[0.19125,-0.1125],[0.19625,-0.11125],[0.2025,-0.10875],[0.20875,-0.1075],[0.215,-0.10625],[0.22,-0.10625],[0.2275,-0.10375],[0.2325,-0.1025],[0.24125,-0.10125],[0.24375,-0.1],[0.24875,-0.09875],[0.25375,-0.0975],[0.26,-0.09625],[0.26375,-0.095],[0.27,-0.0925],[0.27375,-0.09125],[0.2775,-0.09],[0.28125,-0.08875],[0.285,-0.0875],[0.2875,-0.08625],[0.29,-0.085],[0.29125,-0.08375],[0.29375,-0.08125],[0.295,-0.08],[0.2975,-0.07875],[0.29875,-0.07625],[0.3,-0.07375],[0.30125,-0.07125],[0.3025,-0.06875],[0.30375,-0.0675],[0.305,-0.0625],[0.3075,-0.05875],[0.31125,-0.05375],[0.315,-0.0475],[0.3175,-0.04125],[0.31875,-0.03875],[0.32125,-0.0325],[0.3225,-0.03],[0.32375,-0.02625],[0.32375,-0.02375],[0.325,-0.0225],[0.325,-0.02],[0.32625,-0.0175],[0.32625,-0.01375],[0.32625,-0.01125],[0.32625,-0.0075],[0.32625,-0.005],[0.32625,-0.0025],[0.32625,-0.00125],[0.32625,0],[0.32625,0],[0.32625,0],[0.32625,0.00125],[0.32625,0.00125],[0.32625,0.00125],[0.32625,0.00125],[0.32625,0.00125],[0.32625,0.00125],[0.32625,0.00125],[0.325,0.00125]]]",2,"[67,104]",,,,,,,,,,,,,,baggageClaim3.jpg,space,6.33,0,2,2,7,1,attic2.jpg,banquetHall4.jpg,backstage1.jpg,applestore2.jpg,,
Image_List_4,,,,,,,,,,,,,,,,44238,2020-11-29_00h06.51.988,analogCatScenes,2020.1.3,MacIntel,60,"[1280,800]","[[[-0.00375,-0.20625],[-0.00375,-0.20625],[-0.00375,-0.20625],[-0.00375,-0.20625],[-0.00375,-0.20625],[-0.00375,-0.20625],[-0.00375,-0.20625],[-0.00375,-0.20625],[-0.00375,-0.20625],[-0.00375,-0.20625],[-0.00375,-0.20625],[-0.00375,-0.20625],[-0.00375,-0.20625],[-0.00375,-0.20625],[-0.00375,-0.20625],[-0.00125,-0.20625],[0.0075,-0.20625],[0.01875,-0.20625],[0.02875,-0.205],[0.04125,-0.20375],[0.05375,-0.20125],[0.06875,-0.195],[0.07875,-0.19],[0.08625,-0.18625],[0.09375,-0.18125],[0.09875,-0.1775],[0.1025,-0.17375],[0.10625,-0.16875],[0.11,-0.16375],[0.11625,-0.155],[0.12875,-0.14],[0.14125,-0.12375],[0.15625,-0.10625],[0.17,-0.09125],[0.18125,-0.0775],[0.19,-0.06625],[0.19875,-0.0525],[0.20625,-0.0425],[0.2125,-0.0325],[0.2175,-0.025],[0.22625,-0.0125],[0.23125,-0.00625],[0.23625,0],[0.24125,0.0075],[0.245,0.01625],[0.25,0.02375],[0.25375,0.03125],[0.25625,0.04],[0.2625,0.05125],[0.265,0.05875],[0.2675,0.065],[0.27,0.06875],[0.2725,0.07375],[0.27625,0.07875],[0.27875,0.0825],[0.2825,0.0875],[0.28625,0.0925],[0.29,0.09625],[0.295,0.10125],[0.2975,0.10375],[0.3,0.10625],[0.30125,0.1075],[0.3025,0.10875],[0.30375,0.11],[0.30375,0.11],[0.305,0.11125],[0.305,0.11125],[0.30625,0.1125],[0.30625,0.1125],[0.30625,0.1125],[0.30625,0.11375],[0.30625,0.11375],[0.30625,0.11375],[0.30625,0.11375],[0.3075,0.11375],[0.3075,0.11375],[0.3075,0.11375],[0.3075,0.11375],[0.3075,0.115],[0.3075,0.115],[0.3075,0.115],[0.3075,0.115]]]",1,[82],,,,,,,,,,,,,,copyroom2.jpg,space,6.215,0,3,3,30,1,courthouse1.jpg,desertvegetation3.jpg,clothingstore2.jpg,bus_shelter3.jpg,,
Image_List_4,,,,,,,,,,,,,,,,44238,2020-11-29_00h06.51.988,analogCatScenes,2020.1.3,MacIntel,60,"[1280,800]","[[[0,-0.19375],[0,-0.19375],[0,-0.19375],[0,-0.19375],[0,-0.19375],[0,-0.19375],[0,-0.19375],[0,-0.19375],[0,-0.19375],[0,-0.19375],[0,-0.19375],[0,-0.19375],[0,-0.19375],[0,-0.19375],[0,-0.19375],[0,-0.19375],[0,-0.19375],[0,-0.19375],[0,-0.19375],[0,-0.19375],[0,-0.19375],[0,-0.19375],[0,-0.19375],[0,-0.19375],[0,-0.19375],[0,-0.19375],[0,-0.19375],[0,-0.19375],[0,-0.19375],[0,-0.19375],[0,-0.19375],[0,-0.19375],[0,-0.19375],[-0.00125,-0.19375],[-0.00125,-0.19375],[-0.00125,-0.19375],[-0.00125,-0.19375],[-0.00125,-0.19375],[-0.00125,-0.19375],[-0.00125,-0.19375],[-0.00125,-0.19375],[-0.00125,-0.19375],[-0.00125,-0.19375],[-0.00125,-0.19375],[-0.00125,-0.19375],[-0.00125,-0.19375],[-0.00125,-0.19375],[-0.00125,-0.19375],[-0.00125,-0.19375],[-0.00125,-0.19375],[-0.00125,-0.19375],[-0.00125,-0.19375],[-0.00125,-0.19375],[-0.00125,-0.19375],[-0.00125,-0.19375],[-0.00125,-0.19375],[-0.00125,-0.19375],[-0.00125,-0.19375],[-0.00125,-0.19375],[-0.00125,-0.19375],[-0.00125,-0.19375],[-0.00125,-0.19375],[-0.00125,-0.19375],[-0.00125,-0.19375],[-0.00125,-0.19375],[-0.00125,-0.19375],[-0.00125,-0.19375],[-0.00125,-0.19375],[-0.00125,-0.19375],[-0.00125,-0.19375],[-0.00125,-0.19375],[-0.00125,-0.19375],[-0.00125,-0.19375],[-0.00125,-0.19375],[-0.00125,-0.19375],[-0.00125,-0.19375],[-0.00125,-0.19375],[-0.00125,-0.19375],[-0.00125,-0.19375],[-0.00125,-0.19375],[-0.00125,-0.19375],[-0.00125,-0.19375],[-0.00125,-0.19375],[-0.00125,-0.19375],[-0.00125,-0.19375],[-0.0025,-0.19375],[-0.0025,-0.19375],[-0.0025,-0.19375],[-0.0025,-0.19375],[-0.0025,-0.195],[-0.00375,-0.195],[-0.00375,-0.19625],[-0.005,-0.19625],[-0.005,-0.1975],[-0.00625,-0.1975],[-0.00625,-0.1975],[-0.00625,-0.19875],[-0.0075,-0.19875],[-0.0075,-0.2],[-0.00875,-0.2],[-0.00875,-0.20125],[-0.01,-0.2025],[-0.01,-0.2025],[-0.01125,-0.20375],[-0.0125,-0.205],[-0.0125,-0.205],[-0.01375,-0.20625],[-0.015,-0.2075],[-0.01625,-0.2075],[-0.0175,-0.20875],[-0.02,-0.21],[-0.0225,-0.21],[-0.02625,-0.21],[-0.02875,-0.21125],[-0.03375,-0.21125],[-0.0375,-0.2125],[-0.04125,-0.2125],[-0.0475,-0.21375],[-0.0525,-0.21375],[-0.06,-0.215],[-0.06625,-0.215],[-0.07,-0.215],[-0.075,-0.21625],[-0.08,-0.21625],[-0.0825,-0.21625],[-0.08625,-0.21625],[-0.08875,-0.21625],[-0.0925,-0.21625],[-0.09625,-0.21625],[-0.10125,-0.21625],[-0.105,-0.21625],[-0.11,-0.21625],[-0.115,-0.21625],[-0.1175,-0.215],[-0.1225,-0.21375],[-0.125,-0.21375],[-0.12875,-0.2125],[-0.1325,-0.21125],[-0.13625,-0.21125],[-0.13875,-0.21125],[-0.14125,-0.21],[-0.14375,-0.21],[-0.1475,-0.21],[-0.15,-0.20875],[-0.155,-0.2075],[-0.16,-0.20625],[-0.165,-0.20375],[-0.17125,-0.2025],[-0.175,-0.20125],[-0.1775,-0.20125],[-0.18,-0.2],[-0.18375,-0.19875],[-0.18625,-0.1975],[-0.19,-0.1975],[-0.19375,-0.19625],[-0.19625,-0.195],[-0.2,-0.19375],[-0.2025,-0.1925],[-0.20625,-0.19],[-0.21,-0.1875],[-0.215,-0.18375],[-0.22,-0.18125],[-0.22375,-0.1775],[-0.2275,-0.175],[-0.23,-0.1725],[-0.23375,-0.17125],[-0.2375,-0.1675],[-0.24,-0.16625],[-0.2425,-0.165],[-0.24375,-0.16375],[-0.24625,-0.16125],[-0.24875,-0.16],[-0.25,-0.15875],[-0.2525,-0.15625],[-0.25375,-0.155],[-0.25625,-0.15375],[-0.2575,-0.1525],[-0.26,-0.15125],[-0.26125,-0.15],[-0.2625,-0.14875],[-0.2625,-0.1475],[-0.26375,-0.1475],[-0.265,-0.1475],[-0.265,-0.14625],[-0.26625,-0.14625],[-0.2675,-0.145],[-0.26875,-0.14375],[-0.27,-0.1425],[-0.27,-0.14125],[-0.27125,-0.14],[-0.2725,-0.13875],[-0.2725,-0.13875],[-0.27375,-0.13875],[-0.275,-0.1375],[-0.275,-0.1375],[-0.27625,-0.13625],[-0.2775,-0.135],[-0.27875,-0.135],[-0.28,-0.13375],[-0.28125,-0.13375],[-0.28125,-0.13375],[-0.2825,-0.1325],[-0.2825,-0.1325],[-0.28375,-0.13125],[-0.285,-0.13],[-0.28625,-0.12875],[-0.2875,-0.1275],[-0.28875,-0.12625],[-0.29,-0.125],[-0.29125,-0.1225],[-0.2925,-0.12125],[-0.295,-0.12],[-0.29625,-0.11625],[-0.2975,-0.115],[-0.29875,-0.1125],[-0.30125,-0.11],[-0.3025,-0.10875],[-0.3025,-0.1075],[-0.30375,-0.10625],[-0.305,-0.105],[-0.305,-0.105],[-0.305,-0.105],[-0.30625,-0.10375],[-0.30625,-0.10375],[-0.30625,-0.10375],[-0.30625,-0.10375],[-0.30625,-0.10375],[-0.30625,-0.10375],[-0.30625,-0.10375],[-0.30625,-0.10375],[-0.30625,-0.1025],[-0.3075,-0.1025],[-0.3075,-0.10125],[-0.3075,-0.10125],[-0.3075,-0.1],[-0.30875,-0.1],[-0.30875,-0.1],[-0.30875,-0.1],[-0.30875,-0.1],[-0.30875,-0.1],[-0.30875,-0.1],[-0.30875,-0.1],[-0.30875,-0.1],[-0.30875,-0.1],[-0.30875,-0.1],[-0.30875,-0.1],[-0.30875,-0.1],[-0.30875,-0.1],[-0.30875,-0.1],[-0.30875,-0.1],[-0.30875,-0.1],[-0.30875,-0.1],[-0.30875,-0.1],[-0.30875,-0.1],[-0.30875,-0.1],[-0.30875,-0.1],[-0.30875,-0.1],[-0.30875,-0.09875],[-0.30875,-0.09875],[-0.30875,-0.09875],[-0.30875,-0.0975],[-0.30875,-0.0975],[-0.30875,-0.0975],[-0.30875,-0.0975],[-0.30875,-0.0975],[-0.30875,-0.09625],[-0.30875,-0.09625],[-0.30875,-0.09625],[-0.30875,-0.09625],[-0.30875,-0.09625],[-0.30875,-0.09625],[-0.30875,-0.09625],[-0.30875,-0.09625],[-0.30875,-0.09625],[-0.30875,-0.09625],[-0.30875,-0.09625],[-0.30875,-0.09625],[-0.30875,-0.095],[-0.31,-0.095],[-0.31,-0.09375],[-0.31,-0.0925],[-0.31,-0.09125],[-0.31,-0.09],[-0.31,-0.09],[-0.31,-0.0875],[-0.31,-0.0875],[-0.31,-0.08625],[-0.30875,-0.08625],[-0.305,-0.085],[-0.3025,-0.085],[-0.29875,-0.085],[-0.29625,-0.085],[-0.29375,-0.08375],[-0.29125,-0.08375],[-0.28875,-0.0825],[-0.2875,-0.0825],[-0.285,-0.08125],[-0.2825,-0.08],[-0.2775,-0.0775],[-0.2725,-0.075],[-0.27,-0.0725],[-0.26625,-0.07],[-0.2625,-0.0675],[-0.26,-0.065],[-0.25625,-0.0625],[-0.25375,-0.06],[-0.25,-0.0575],[-0.24625,-0.055],[-0.2425,-0.0525],[-0.23875,-0.04875],[-0.2325,-0.04375],[-0.22875,-0.04125],[-0.225,-0.0375],[-0.22125,-0.03375],[-0.21625,-0.03125],[-0.21125,-0.02625],[-0.20375,-0.0225],[-0.20125,-0.02],[-0.19875,-0.0175],[-0.1975,-0.015],[-0.195,-0.01375],[-0.19375,-0.0125],[-0.19125,-0.01125],[-0.19,-0.01],[-0.18875,-0.00875],[-0.185,-0.00625],[-0.18375,-0.005],[-0.1825,-0.005],[-0.18125,-0.0025],[-0.18,-0.0025],[-0.17875,-0.00125],[-0.17625,-0.00125],[-0.175,0],[-0.17375,0],[-0.17125,0.00125],[-0.1675,0.0025],[-0.165,0.00375],[-0.16125,0.005],[-0.15875,0.00625],[-0.15625,0.0075],[-0.1525,0.00875],[-0.14875,0.01],[-0.14625,0.01],[-0.1425,0.01125],[-0.13625,0.01375],[-0.1325,0.015],[-0.12875,0.01625],[-0.12625,0.0175],[-0.1225,0.01875],[-0.11875,0.02],[-0.115,0.02125],[-0.11125,0.02375],[-0.105,0.025],[-0.0975,0.0275],[-0.085,0.03],[-0.08,0.0325],[-0.075,0.03375],[-0.07125,0.035],[-0.0675,0.03625],[-0.06375,0.0375],[-0.06,0.03875],[-0.0575,0.03875],[-0.0525,0.03875],[-0.04875,0.04],[-0.04625,0.04],[-0.0425,0.04],[-0.0375,0.04125],[-0.03375,0.0425],[-0.02875,0.04375],[-0.025,0.045],[-0.0175,0.0475],[-0.01,0.05],[0.0075,0.055],[0.01875,0.0575],[0.0325,0.06],[0.04875,0.06375],[0.065,0.06875],[0.08125,0.0725],[0.0925,0.0775],[0.105,0.08125],[0.115,0.085],[0.125,0.0875],[0.12875,0.09],[0.13375,0.0925],[0.13625,0.0925],[0.14,0.09375],[0.14125,0.095],[0.14375,0.095],[0.145,0.095],[0.14625,0.095],[0.1475,0.09625],[0.15125,0.09625],[0.15375,0.0975],[0.1575,0.1],[0.1625,0.10125],[0.1675,0.1025],[0.17625,0.105],[0.18375,0.1075],[0.19625,0.11375],[0.20625,0.11875],[0.21875,0.1275],[0.22875,0.13375],[0.23625,0.14],[0.2425,0.145],[0.25,0.15],[0.25625,0.15375],[0.26,0.15625],[0.265,0.1575],[0.26875,0.15875],[0.27,0.16],[0.27125,0.16],[0.2725,0.16],[0.2725,0.16],[0.2725,0.16]]]",1,[414],,,,,,,,,,,,,,bleachers7.jpg,space,10.978,0,4,4,12,1,baggageClaim4.jpg,bedroom6.jpg,bambooforest5.jpg,backyard5.jpg,,
Image_List_4,,,,,,,,,,,,,,,,44238,2020-11-29_00h06.51.988,analogCatScenes,2020.1.3,MacIntel,60,"[1280,800]","[[[-0.00875,-0.1975],[-0.00875,-0.1975],[-0.00875,-0.1975],[-0.00875,-0.1975],[-0.00875,-0.1975],[-0.00875,-0.1975],[-0.00875,-0.1975],[-0.00875,-0.1975],[-0.00875,-0.1975],[-0.00875,-0.1975],[-0.00875,-0.1975],[-0.00875,-0.1975],[-0.00875,-0.1975],[-0.00875,-0.1975],[-0.00875,-0.1975],[-0.01,-0.1975],[-0.01375,-0.1975],[-0.02375,-0.1975],[-0.03,-0.19875],[-0.0475,-0.2025],[-0.05875,-0.20375],[-0.06875,-0.20625],[-0.0775,-0.2075],[-0.085,-0.20875],[-0.09375,-0.21],[-0.10125,-0.21],[-0.1075,-0.21125],[-0.11625,-0.21125],[-0.12125,-0.21125],[-0.12625,-0.2125],[-0.13,-0.2125],[-0.13625,-0.2125],[-0.1425,-0.2125],[-0.14875,-0.2125],[-0.15625,-0.2125],[-0.1625,-0.2125],[-0.1675,-0.21375],[-0.17375,-0.21375],[-0.1775,-0.21375],[-0.18125,-0.21375],[-0.185,-0.21375],[-0.18875,-0.21375],[-0.19375,-0.21375],[-0.1975,-0.21375],[-0.2025,-0.21375],[-0.2075,-0.21375],[-0.21625,-0.21375],[-0.22,-0.21375],[-0.225,-0.21375],[-0.22875,-0.21375],[-0.2325,-0.2125],[-0.235,-0.21],[-0.23875,-0.20625],[-0.2425,-0.20375],[-0.2475,-0.2],[-0.25125,-0.19625],[-0.2575,-0.18875],[-0.2625,-0.18375],[-0.265,-0.1775],[-0.2675,-0.1725],[-0.27,-0.16625],[-0.27125,-0.16125],[-0.2725,-0.15625],[-0.27375,-0.15375],[-0.275,-0.15],[-0.27625,-0.145],[-0.2775,-0.1425],[-0.2775,-0.13875],[-0.27875,-0.13625],[-0.27875,-0.1325],[-0.28,-0.12875],[-0.28125,-0.12625],[-0.28125,-0.1225],[-0.2825,-0.11875],[-0.28375,-0.115],[-0.285,-0.11125],[-0.28625,-0.10875],[-0.28625,-0.10625],[-0.2875,-0.10375],[-0.28875,-0.1025],[-0.29,-0.10125],[-0.29,-0.09875],[-0.29125,-0.0975],[-0.29125,-0.095],[-0.29125,-0.0925],[-0.2925,-0.09125],[-0.2925,-0.09],[-0.2925,-0.08875],[-0.2925,-0.0875],[-0.2925,-0.08625],[-0.2925,-0.08625],[-0.2925,-0.085],[-0.2925,-0.08375],[-0.2925,-0.08375],[-0.2925,-0.0825],[-0.29125,-0.0825],[-0.29,-0.08125],[-0.29,-0.08125],[-0.28875,-0.08125],[-0.2875,-0.08125],[-0.28625,-0.08],[-0.285,-0.08],[-0.28125,-0.07875],[-0.28,-0.07875],[-0.2775,-0.0775],[-0.275,-0.0775],[-0.27125,-0.07625],[-0.26875,-0.07625],[-0.26625,-0.075],[-0.2625,-0.07375],[-0.26,-0.07375],[-0.2575,-0.0725],[-0.25375,-0.07125],[-0.2525,-0.07125],[-0.25,-0.07],[-0.2475,-0.07],[-0.245,-0.06875],[-0.24125,-0.06875],[-0.24,-0.0675],[-0.2375,-0.0675],[-0.23625,-0.0675],[-0.235,-0.0675],[-0.235,-0.0675],[-0.23375,-0.0675],[-0.23375,-0.0675],[-0.23375,-0.0675],[-0.23375,-0.0675],[-0.23375,-0.0675],[-0.23375,-0.0675]]]",1,[129],,,,,,,,,,,,,,bar.jpg,space,5.117,0,5,5,8,1,attic3.jpg,banquetHall6.jpg,balconyIN.jpg,applestore4.jpg,,
Image_List_4,,,,,,,,,,,,,,,,44238,2020-11-29_00h06.51.988,analogCatScenes,2020.1.3,MacIntel,60,"[1280,800]","[[[0.00375,-0.1975],[0.00375,-0.1975],[0.00375,-0.1975],[0.00375,-0.1975],[0.00375,-0.1975],[0.00375,-0.1975],[0.00375,-0.1975],[0.00375,-0.1975],[0.00375,-0.1975],[0.00375,-0.1975],[0.00375,-0.1975],[0.00375,-0.1975],[0.00375,-0.19625],[0.00375,-0.19],[0.00375,-0.17875],[0.00375,-0.165],[0.00375,-0.14875],[0.00375,-0.13375],[0.00375,-0.1175],[0.00375,-0.1],[0.00375,-0.0775],[0.00625,-0.05875],[0.00625,-0.045],[0.00875,-0.02625],[0.01,-0.01375],[0.01,-0.00375],[0.01125,0.00625],[0.0125,0.0175],[0.01375,0.03125],[0.015,0.0475],[0.01625,0.055],[0.01625,0.0625],[0.0175,0.06625],[0.0175,0.07125],[0.0175,0.075],[0.0175,0.0775],[0.0175,0.07875],[0.0175,0.08],[0.0175,0.08125],[0.0175,0.08125],[0.0175,0.08125],[0.0175,0.08125],[0.0175,0.08125],[0.0175,0.08125]]]",1,[44],,,,,,,,,,,,,,homegarage3.jpg,space,2.91,0,6,6,53,1,gazebo3.jpg,homeoffice.jpg,frontLawn3.jpg,fountain.jpg,,
Image_List_4,,,,,,,,,,,,,,,,44238,2020-11-29_00h06.51.988,analogCatScenes,2020.1.3,MacIntel,60,"[1280,800]","[[[0.00125,-0.2025],[0.00125,-0.2025],[0.00125,-0.2025],[0.00125,-0.2025],[0.00125,-0.2025],[0.00125,-0.2025],[0.00125,-0.2025],[0.00125,-0.2025],[0.00125,-0.2025],[0.00125,-0.2025],[0.00125,-0.2025],[0.00125,-0.2025],[0.00125,-0.2025],[0.00125,-0.2025],[0.00125,-0.2025],[0.0025,-0.2025],[0.00625,-0.2025],[0.0125,-0.2025],[0.01875,-0.2025],[0.02625,-0.2025],[0.03375,-0.2025],[0.04375,-0.2025],[0.05625,-0.2025],[0.0675,-0.2025],[0.07625,-0.2025],[0.09125,-0.2025],[0.0975,-0.2025],[0.10375,-0.20375],[0.10875,-0.20375],[0.11125,-0.20375],[0.11375,-0.20375],[0.11625,-0.20375],[0.11875,-0.20375],[0.12,-0.20375],[0.1225,-0.20375],[0.125,-0.20125],[0.1275,-0.2],[0.13,-0.19625],[0.135,-0.19375],[0.14,-0.18875],[0.14375,-0.185],[0.14875,-0.1825],[0.15375,-0.17875],[0.16,-0.17375],[0.16625,-0.16875],[0.17625,-0.1625],[0.1825,-0.15875],[0.1875,-0.155],[0.19125,-0.15125],[0.195,-0.1475],[0.19875,-0.14375],[0.20125,-0.1425],[0.205,-0.14],[0.2075,-0.1375],[0.2125,-0.13375],[0.21625,-0.13125],[0.22,-0.12875],[0.2225,-0.12625],[0.2275,-0.12375],[0.23125,-0.1225],[0.235,-0.12],[0.2375,-0.11875],[0.24125,-0.11625],[0.2425,-0.115],[0.245,-0.11375],[0.24625,-0.1125],[0.2475,-0.11125],[0.24875,-0.10875],[0.25,-0.1075],[0.2525,-0.105],[0.25375,-0.1025],[0.25625,-0.10125],[0.25875,-0.0975],[0.26125,-0.09625],[0.2625,-0.09375],[0.26375,-0.0925],[0.26625,-0.09125],[0.26625,-0.09125],[0.2675,-0.09],[0.26875,-0.08875],[0.27,-0.0875],[0.27375,-0.085],[0.275,-0.08375],[0.2775,-0.0825],[0.27875,-0.08125],[0.28125,-0.08],[0.2825,-0.07875],[0.28375,-0.0775],[0.285,-0.07625],[0.28625,-0.07625],[0.28875,-0.075],[0.29,-0.07375],[0.29375,-0.07125],[0.29625,-0.06875],[0.2975,-0.0675],[0.3,-0.06625],[0.30125,-0.06625],[0.30375,-0.065],[0.30375,-0.065],[0.305,-0.06375],[0.305,-0.06375],[0.30625,-0.06375],[0.30625,-0.0625],[0.30625,-0.0625],[0.3075,-0.0625],[0.3075,-0.06125],[0.30875,-0.06],[0.31,-0.05875],[0.31125,-0.0575],[0.3125,-0.0575],[0.31375,-0.05625],[0.31375,-0.05625],[0.31375,-0.05625],[0.31375,-0.05625],[0.31375,-0.05625]]]",1,[115],,,,,,,,,,,,,,dentist4.jpg,space,4.41,0,7,7,32,1,dancestudio6.jpg,diner12.jpg,constructionSite2.jpg,cabin4.jpg,,
Image_List_4,,,,,,,,,,,,,,,,44238,2020-11-29_00h06.51.988,analogCatScenes,2020.1.3,MacIntel,60,"[1280,800]","[[[-0.00625,-0.20375],[-0.00625,-0.20375],[-0.00625,-0.20375],[-0.00625,-0.20375],[-0.00625,-0.20375],[-0.00625,-0.20375],[-0.00625,-0.20375],[-0.00625,-0.20375],[-0.00625,-0.20375],[-0.00625,-0.20375],[-0.00625,-0.20375],[-0.00625,-0.20375],[-0.00625,-0.20375],[-0.00625,-0.20375],[-0.00625,-0.20375],[-0.005,-0.20375],[-0.00125,-0.20375],[0.00625,-0.20375],[0.01125,-0.20625],[0.01875,-0.20875],[0.02625,-0.21125],[0.03125,-0.2125],[0.0375,-0.21375],[0.04125,-0.215],[0.0475,-0.215],[0.05,-0.215],[0.05625,-0.215],[0.05875,-0.215],[0.0625,-0.215],[0.065,-0.21375],[0.06875,-0.2125],[0.07125,-0.21],[0.07375,-0.20625],[0.08,-0.20125],[0.085,-0.19625],[0.09,-0.19],[0.09375,-0.1825],[0.0975,-0.17875],[0.1,-0.17375],[0.10375,-0.16875],[0.10625,-0.16375],[0.11,-0.15875],[0.11375,-0.1525],[0.11875,-0.14625],[0.125,-0.13875],[0.13375,-0.1275],[0.13875,-0.1225],[0.1425,-0.1175],[0.145,-0.1125],[0.15,-0.1075],[0.155,-0.09875],[0.15875,-0.0925],[0.1625,-0.08625],[0.1675,-0.07875],[0.1725,-0.07],[0.18125,-0.0575],[0.1875,-0.04875],[0.1925,-0.0425],[0.19625,-0.0375],[0.19875,-0.03375],[0.2025,-0.0275],[0.205,-0.0225],[0.20875,-0.01625],[0.2125,-0.00875],[0.21375,-0.005],[0.22,0.00375],[0.22375,0.01],[0.22625,0.01375],[0.22875,0.0175],[0.23125,0.02125],[0.2325,0.0225],[0.23375,0.02625],[0.235,0.0275],[0.2375,0.03],[0.2375,0.03125],[0.23875,0.0325],[0.24,0.03375],[0.24,0.035],[0.24125,0.035],[0.24125,0.03625],[0.24125,0.03625],[0.2425,0.0375],[0.2425,0.0375],[0.2425,0.0375],[0.2425,0.0375]]]",1,[85],,,,,,,,,,,,,,restaurant8.jpg,space,3.233,0,8,8,83,1,readingroom1.jpg,sculpturegarden1.jpg,promenadeDeck6.jpg,readingroom2.jpg,,
Image_List_4,,,,,,,,,,,,,,,,44238,2020-11-29_00h06.51.988,analogCatScenes,2020.1.3,MacIntel,60,"[1280,800]","[[[0.00375,-0.195],[0.00375,-0.195],[0.00375,-0.195],[0.00375,-0.195],[0.00375,-0.195],[0.00375,-0.195],[0.00375,-0.195],[0.00375,-0.195],[0.00375,-0.195],[0.00375,-0.195],[0.00375,-0.195],[0.00375,-0.19375],[0.00375,-0.1875],[0.00375,-0.17875],[0.00375,-0.1725],[0.00375,-0.15875],[0.00125,-0.14625],[-0.00125,-0.12625],[-0.00375,-0.1025],[-0.00625,-0.08],[-0.0075,-0.0675],[-0.01,-0.05375],[-0.0125,-0.0375],[-0.01375,-0.03],[-0.015,-0.0225],[-0.0175,-0.01625],[-0.02,-0.01125],[-0.02125,-0.0075],[-0.02375,-0.00125],[-0.025,0.00375],[-0.0275,0.01125],[-0.02875,0.015],[-0.03,0.01875],[-0.03125,0.02125],[-0.0325,0.02375],[-0.0325,0.0275],[-0.0325,0.02875],[-0.0325,0.03],[-0.0325,0.03125],[-0.0325,0.03125],[-0.0325,0.03125],[-0.03375,0.03125],[-0.03375,0.03125]]]",1,[43],,,,,,,,,,,,,,churchInside3.jpg,space,3.419,0,9,9,26,1,campusquad2.jpg,cornfield4.jpg,church4.jpg,botanicalGarden7.jpg,,
Image_List_4,,,,,,,,,,,,,,,,44238,2020-11-29_00h06.51.988,analogCatScenes,2020.1.3,MacIntel,60,"[1280,800]","[[[0.00375,-0.19],[0.00375,-0.19],[0.00375,-0.19],[0.00375,-0.19],[0.00375,-0.19],[0.00375,-0.19],[0.00375,-0.19],[0.00375,-0.19],[0.00375,-0.19],[0.00375,-0.19],[0.00375,-0.19],[0.00375,-0.19],[0.00375,-0.19],[0.00375,-0.19],[0.00375,-0.18875],[0.00375,-0.1875],[0.00625,-0.185],[0.0125,-0.1775],[0.0175,-0.17375],[0.03,-0.165],[0.04125,-0.15625],[0.06375,-0.14],[0.08,-0.1275],[0.09875,-0.11375],[0.115,-0.10125],[0.13125,-0.08875],[0.14875,-0.07625],[0.16625,-0.065],[0.1825,-0.055],[0.19625,-0.045],[0.21875,-0.0325],[0.23375,-0.02375],[0.2475,-0.01625],[0.25625,-0.01125],[0.26375,-0.00625],[0.27125,-0.0025],[0.27625,0],[0.28,0.00125],[0.2825,0.0025],[0.28375,0.0025],[0.285,0.0025],[0.285,0.0025],[0.285,0.0025],[0.285,0.0025],[0.285,0.0025],[0.285,0.0025],[0.285,0.0025],[0.285,0.0025],[0.285,0.0025],[0.285,0.0025]],[[0.00125,-0.18875],[0.00125,-0.18875],[0.00125,-0.18875],[0.00125,-0.18875],[0.00125,-0.18875],[0.00125,-0.18875],[0.00125,-0.18875],[0.00125,-0.18875],[0.00125,-0.18875],[0.00125,-0.18875],[0.00125,-0.18875],[0.00125,-0.18875],[0.00125,-0.18875],[0.00125,-0.18875],[-0.00125,-0.18875],[-0.0075,-0.18875],[-0.01625,-0.18875],[-0.02375,-0.18875],[-0.03375,-0.1925],[-0.0475,-0.19625],[-0.05875,-0.19875],[-0.0675,-0.20125],[-0.0775,-0.20375],[-0.09,-0.2075],[-0.0975,-0.20875],[-0.10375,-0.21],[-0.11375,-0.21125],[-0.1225,-0.21375],[-0.13,-0.21625],[-0.13625,-0.2175],[-0.14,-0.21875],[-0.14375,-0.22125],[-0.14625,-0.2225],[-0.1475,-0.2225],[-0.1475,-0.2225],[-0.14875,-0.2225],[-0.14875,-0.2225],[-0.14875,-0.2225],[-0.14875,-0.2225]]]",2,"[50,39]",,,,,,,,,,,,,,airportTerminal3.jpg,space,5.263,0,10,10,1,1,airportTerminal4.jpg,apartmentBuilding1.jpg,applestore1.jpg,airportTerminal2.jpg,,
Image_List_4,,,,,,,,,,,,,,,,44238,2020-11-29_00h06.51.988,analogCatScenes,2020.1.3,MacIntel,60,"[1280,800]","[[[-0.0075,-0.1975],[-0.0075,-0.1975],[-0.0075,-0.1975],[-0.0075,-0.1975],[-0.0075,-0.1975],[-0.0075,-0.1975],[-0.0075,-0.1975],[-0.0075,-0.1975],[-0.0075,-0.1975],[-0.0075,-0.1975],[-0.0075,-0.1975],[-0.0075,-0.1975],[-0.00875,-0.1975],[-0.01125,-0.1975],[-0.01625,-0.1975],[-0.02125,-0.1975],[-0.0325,-0.1975],[-0.04125,-0.1975],[-0.05375,-0.19875],[-0.07,-0.2025],[-0.085,-0.20375],[-0.09625,-0.20375],[-0.10625,-0.20375],[-0.11375,-0.20375],[-0.12375,-0.20375],[-0.13125,-0.20375],[-0.14125,-0.20375],[-0.15,-0.2025],[-0.16,-0.2025],[-0.17125,-0.2],[-0.17875,-0.19875],[-0.18625,-0.1975],[-0.1925,-0.195],[-0.1975,-0.1925],[-0.2025,-0.18875],[-0.20625,-0.18625],[-0.2075,-0.1825],[-0.20875,-0.18],[-0.20875,-0.175],[-0.20875,-0.17375],[-0.2075,-0.1725],[-0.2075,-0.17],[-0.205,-0.16875],[-0.20375,-0.1675],[-0.20375,-0.1675],[-0.2025,-0.16625],[-0.20125,-0.16625],[-0.20125,-0.16625],[-0.2,-0.165],[-0.2,-0.165],[-0.2,-0.16375],[-0.2,-0.16375],[-0.19875,-0.16375],[-0.19875,-0.1625],[-0.19875,-0.1625],[-0.19875,-0.16125],[-0.1975,-0.16125],[-0.19625,-0.16125],[-0.19625,-0.16125],[-0.19625,-0.16],[-0.195,-0.16],[-0.19375,-0.16],[-0.19375,-0.16],[-0.1925,-0.15875],[-0.19125,-0.15875],[-0.18875,-0.15875],[-0.18625,-0.15875],[-0.1825,-0.1575],[-0.17875,-0.1575],[-0.1725,-0.15625],[-0.1675,-0.15625],[-0.16125,-0.155],[-0.1575,-0.155],[-0.1525,-0.15375],[-0.14625,-0.1525],[-0.14375,-0.1525],[-0.14,-0.1525],[-0.1375,-0.1525],[-0.13375,-0.1525],[-0.13,-0.1525],[-0.12625,-0.1525],[-0.1225,-0.15125],[-0.1175,-0.15125],[-0.115,-0.15],[-0.10875,-0.14875],[-0.10625,-0.14875],[-0.10375,-0.1475],[-0.10125,-0.14625],[-0.0975,-0.14625],[-0.095,-0.145],[-0.09125,-0.14375],[-0.0875,-0.1425],[-0.0825,-0.1425],[-0.07875,-0.14125],[-0.0725,-0.14],[-0.0675,-0.13875],[-0.06375,-0.13875],[-0.0575,-0.13875],[-0.0525,-0.13625],[-0.04625,-0.13625],[-0.0375,-0.135],[-0.03125,-0.13375],[-0.02375,-0.1325],[-0.01,-0.13125],[-0.0025,-0.13],[0.00625,-0.13],[0.01375,-0.12875],[0.02,-0.12875],[0.02625,-0.1275],[0.035,-0.12625],[0.04125,-0.12625],[0.0475,-0.12625],[0.0575,-0.125],[0.0625,-0.125],[0.0675,-0.125],[0.07125,-0.125],[0.075,-0.125],[0.07625,-0.125],[0.07875,-0.12375],[0.08,-0.12375],[0.0825,-0.12375],[0.085,-0.1225],[0.0925,-0.12125],[0.10375,-0.12125],[0.11,-0.12],[0.12,-0.12],[0.1275,-0.12],[0.13375,-0.11875],[0.14,-0.1175],[0.14375,-0.1175],[0.14625,-0.1175],[0.1475,-0.1175],[0.1475,-0.1175],[0.14875,-0.1175],[0.14875,-0.1175],[0.14875,-0.1175],[0.14875,-0.1175],[0.14875,-0.1175],[0.14875,-0.1175],[0.14875,-0.1175],[0.14875,-0.1175],[0.14875,-0.1175]],[[0,-0.20125],[0,-0.20125],[0,-0.20125],[0,-0.20125],[0,-0.20125],[0,-0.20125],[0,-0.20125],[0,-0.20125],[0,-0.20125],[0,-0.20125],[0,-0.20125],[0,-0.20125],[0,-0.20125],[0,-0.20125],[0,-0.20125],[0,-0.20125],[0.00125,-0.20125],[0.0025,-0.20125],[0.005,-0.20125],[0.0075,-0.20125],[0.0125,-0.2025],[0.015,-0.20375],[0.01875,-0.205],[0.0225,-0.20625],[0.02625,-0.2075],[0.03125,-0.20875],[0.03625,-0.21],[0.04125,-0.21125],[0.04625,-0.2125],[0.0525,-0.21375],[0.05625,-0.215],[0.05875,-0.21625],[0.0625,-0.2175],[0.0675,-0.2175],[0.07125,-0.21875],[0.07625,-0.21875],[0.08125,-0.21875],[0.09,-0.22],[0.1,-0.22],[0.10625,-0.22],[0.11375,-0.22],[0.12125,-0.22],[0.1325,-0.22],[0.14,-0.22],[0.15375,-0.22],[0.165,-0.22],[0.175,-0.22],[0.1875,-0.22],[0.195,-0.21875],[0.2025,-0.2175],[0.20875,-0.2175],[0.215,-0.21625],[0.2225,-0.21625],[0.2275,-0.215],[0.23125,-0.215],[0.23625,-0.21375],[0.24375,-0.21375],[0.2475,-0.2125],[0.2525,-0.21125],[0.25625,-0.21],[0.2625,-0.20875],[0.26625,-0.2075],[0.27125,-0.20625],[0.275,-0.205],[0.28,-0.20375],[0.285,-0.2025],[0.2875,-0.2025],[0.29125,-0.20125],[0.29375,-0.2],[0.295,-0.2],[0.29625,-0.2],[0.2975,-0.2],[0.2975,-0.2],[0.29875,-0.19875],[0.3,-0.19875],[0.3,-0.19875],[0.30125,-0.19875],[0.30125,-0.19875],[0.3025,-0.19875],[0.3025,-0.19875],[0.3025,-0.19875]]]",2,"[142,81]",,,,,,,,,,,,,,greenhouse.jpg,space,7.684,0,11,11,49,1,frontDoor3.jpg,greenhouse5.jpg,flowershop3.jpg,farm2.jpg,,
Image_List_4,,,,,,,,,,,,,,,,44238,2020-11-29_00h06.51.988,analogCatScenes,2020.1.3,MacIntel,60,"[1280,800]","[[[-0.00625,-0.205],[-0.00625,-0.205],[-0.00625,-0.205],[-0.00625,-0.205],[-0.00625,-0.205],[-0.00625,-0.205],[-0.00625,-0.205],[-0.00625,-0.205],[-0.00625,-0.205],[-0.00625,-0.205],[-0.00625,-0.205],[-0.00625,-0.205],[-0.00625,-0.205],[-0.00625,-0.205],[-0.00625,-0.20125],[-0.00625,-0.19375],[-0.00625,-0.18875],[-0.0075,-0.1825],[-0.01,-0.1775],[-0.01125,-0.16875],[-0.01375,-0.16125],[-0.015,-0.155],[-0.01625,-0.1475],[-0.0175,-0.14375],[-0.0175,-0.1375],[-0.0175,-0.13375],[-0.01875,-0.13125],[-0.01875,-0.1275],[-0.02,-0.125],[-0.02125,-0.12125],[-0.0225,-0.1175],[-0.0225,-0.115],[-0.02375,-0.11],[-0.02625,-0.10375],[-0.02625,-0.1],[-0.0275,-0.09625],[-0.03,-0.0925],[-0.03125,-0.08875],[-0.03375,-0.085],[-0.035,-0.0825],[-0.03625,-0.07875],[-0.0375,-0.07625],[-0.03875,-0.0725],[-0.04,-0.0675],[-0.04,-0.065],[-0.04125,-0.0625],[-0.0425,-0.0575],[-0.0425,-0.0525],[-0.04375,-0.05],[-0.045,-0.04625],[-0.045,-0.0425],[-0.04625,-0.04],[-0.04625,-0.03625],[-0.0475,-0.03375],[-0.04875,-0.03],[-0.05,-0.02625],[-0.05,-0.02375],[-0.05125,-0.0175],[-0.05125,-0.01375],[-0.0525,-0.0075],[-0.05375,-0.0025],[-0.05375,0.00125],[-0.05375,0.005],[-0.05375,0.0075],[-0.05375,0.0075],[-0.05375,0.00875],[-0.05375,0.01],[-0.055,0.01],[-0.055,0.01125],[-0.055,0.01125],[-0.055,0.01125],[-0.055,0.01125],[-0.055,0.01125],[-0.055,0.01125],[-0.055,0.0125],[-0.055,0.0125],[-0.055,0.0125],[-0.055,0.01375],[-0.055,0.01375],[-0.055,0.015],[-0.055,0.01625],[-0.055,0.0175],[-0.055,0.01875],[-0.055,0.01875],[-0.055,0.02],[-0.055,0.02125],[-0.055,0.0225],[-0.055,0.0225],[-0.055,0.02375],[-0.055,0.02375],[-0.05625,0.025],[-0.05625,0.025],[-0.05875,0.02625]],[[0.00625,-0.2],[0.00625,-0.2],[0.00625,-0.2],[0.00625,-0.2],[0.00625,-0.2],[0.00625,-0.2],[0.00625,-0.2],[0.00625,-0.2],[0.00625,-0.2],[0.00625,-0.2],[-0.00375,-0.2],[-0.015,-0.2],[-0.02875,-0.2],[-0.045,-0.2],[-0.0625,-0.2],[-0.0825,-0.2],[-0.1025,-0.2],[-0.12375,-0.2],[-0.14375,-0.2],[-0.1775,-0.2],[-0.1975,-0.2],[-0.21,-0.19875],[-0.23,-0.19625],[-0.2475,-0.19375],[-0.2575,-0.1925],[-0.2675,-0.19125],[-0.2775,-0.19],[-0.28375,-0.18875],[-0.2925,-0.18625],[-0.29625,-0.185],[-0.30125,-0.18375],[-0.305,-0.18375],[-0.30625,-0.18375],[-0.30875,-0.1825],[-0.31,-0.18125],[-0.31125,-0.18125],[-0.31375,-0.18],[-0.31625,-0.18],[-0.3175,-0.17875],[-0.31875,-0.17875],[-0.32125,-0.1775],[-0.3225,-0.17625],[-0.32375,-0.175],[-0.325,-0.1725],[-0.32625,-0.17125],[-0.32625,-0.1675],[-0.32625,-0.165],[-0.32625,-0.16125],[-0.32625,-0.1575],[-0.325,-0.155],[-0.32375,-0.15375],[-0.3225,-0.1525],[-0.3225,-0.15],[-0.32125,-0.14875],[-0.32125,-0.14625],[-0.32125,-0.14],[-0.32125,-0.1375],[-0.32125,-0.12625],[-0.32125,-0.11875],[-0.32125,-0.10875],[-0.32125,-0.10125],[-0.32125,-0.09375],[-0.32,-0.08375],[-0.31625,-0.07625],[-0.31375,-0.06625],[-0.3125,-0.06],[-0.31,-0.0525],[-0.30875,-0.04875],[-0.30875,-0.04625],[-0.30875,-0.045],[-0.3075,-0.04375],[-0.3075,-0.0425],[-0.3075,-0.04125],[-0.3075,-0.04125],[-0.3075,-0.04],[-0.3075,-0.04],[-0.30875,-0.04],[-0.31125,-0.04]]]",2,"[93,78]",,,,,,,,,,,,,,homegarage4.jpg,space,6.48,0,12,12,54,1,greenhouse2.jpg,horsebarn11.jpg,gazebo2.jpg,frontFoyer.jpg,,
Image_List_4,,,,,,,,,,,,,,,,44238,2020-11-29_00h06.51.988,analogCatScenes,2020.1.3,MacIntel,60,"[1280,800]","[[[-0.00875,-0.19125],[-0.00875,-0.19125],[-0.00875,-0.19125],[-0.00875,-0.19125],[-0.00875,-0.19125],[-0.00875,-0.19125],[-0.00875,-0.19125],[-0.00875,-0.19125],[-0.00875,-0.19125],[-0.00875,-0.19125],[-0.00875,-0.19125],[-0.00875,-0.19125],[-0.00875,-0.19125],[-0.00875,-0.19125],[-0.00875,-0.19125],[-0.00875,-0.19125],[-0.00875,-0.19125],[-0.00875,-0.19125],[-0.0075,-0.19125],[-0.00625,-0.19125],[-0.00375,-0.19125],[0.00125,-0.19125],[0.00875,-0.19125],[0.01625,-0.19125],[0.0225,-0.19125],[0.0275,-0.19125],[0.03375,-0.19125],[0.03875,-0.19125],[0.045,-0.19125],[0.05,-0.19125],[0.055,-0.19125],[0.06625,-0.19],[0.07625,-0.19],[0.085,-0.19],[0.095,-0.1875],[0.105,-0.18625],[0.1175,-0.18625],[0.12625,-0.18375],[0.1375,-0.1825],[0.145,-0.18125],[0.15625,-0.18],[0.16,-0.18],[0.165,-0.17875],[0.16875,-0.1775],[0.17125,-0.1775],[0.17375,-0.17625],[0.1775,-0.175],[0.18125,-0.17375],[0.185,-0.17125],[0.19,-0.17],[0.2,-0.16625],[0.205,-0.165],[0.2075,-0.165],[0.21,-0.16375],[0.21125,-0.1625],[0.21375,-0.1625],[0.215,-0.16125],[0.2175,-0.16],[0.22,-0.16],[0.2225,-0.16],[0.225,-0.15875],[0.22875,-0.1575],[0.23125,-0.1575],[0.23375,-0.15625],[0.2375,-0.155],[0.24125,-0.15375],[0.245,-0.1525],[0.24875,-0.15125],[0.25125,-0.15],[0.255,-0.14875],[0.2575,-0.1475],[0.25875,-0.1475],[0.25875,-0.14625],[0.26,-0.14625],[0.26125,-0.145],[0.2625,-0.14375],[0.26375,-0.1425],[0.2675,-0.14125],[0.26875,-0.14125],[0.27125,-0.14],[0.2725,-0.13875],[0.27375,-0.13875],[0.27625,-0.1375],[0.2775,-0.1375],[0.28,-0.13625],[0.28125,-0.13625],[0.2825,-0.135],[0.285,-0.13375],[0.28875,-0.1325],[0.29,-0.1325],[0.29125,-0.13125],[0.2925,-0.13125],[0.295,-0.13],[0.29625,-0.12875],[0.2975,-0.12875],[0.29875,-0.1275],[0.3,-0.1275],[0.3025,-0.12625],[0.30375,-0.12625],[0.305,-0.125],[0.30625,-0.125],[0.3075,-0.125],[0.30875,-0.12375],[0.30875,-0.12375],[0.30875,-0.12375],[0.31,-0.1225],[0.31125,-0.1225],[0.31125,-0.12125],[0.3125,-0.12],[0.31375,-0.11875],[0.315,-0.1175],[0.31625,-0.11625],[0.3175,-0.115],[0.31875,-0.11375],[0.32,-0.1125],[0.32125,-0.1125],[0.3225,-0.11125],[0.3225,-0.11],[0.32375,-0.10875],[0.32375,-0.10875],[0.325,-0.1075],[0.325,-0.10625],[0.32625,-0.10625],[0.32625,-0.10625],[0.32625,-0.105],[0.32625,-0.10375],[0.32625,-0.10375],[0.32625,-0.1025],[0.32625,-0.1025],[0.32625,-0.10125],[0.32625,-0.1],[0.32625,-0.09875],[0.32625,-0.0975],[0.32625,-0.09625],[0.32625,-0.09375],[0.32625,-0.0925],[0.32625,-0.09125],[0.32625,-0.09],[0.32625,-0.0875],[0.325,-0.08625],[0.325,-0.08375],[0.32375,-0.0825],[0.3225,-0.08125],[0.3225,-0.08125],[0.32,-0.07875],[0.31875,-0.07875],[0.31625,-0.07625],[0.31375,-0.07625],[0.3125,-0.07375],[0.31,-0.07375],[0.3075,-0.07125],[0.30375,-0.07125],[0.30125,-0.06875],[0.3,-0.06875],[0.29625,-0.06625],[0.29375,-0.06625],[0.29125,-0.065],[0.28875,-0.06375],[0.28625,-0.0625],[0.28375,-0.06125],[0.2825,-0.06],[0.28125,-0.05875],[0.27875,-0.0575],[0.275,-0.05625],[0.27375,-0.055],[0.27125,-0.055],[0.27,-0.05375],[0.26875,-0.05375],[0.2675,-0.05375],[0.26625,-0.0525],[0.26375,-0.0525],[0.2625,-0.0525],[0.26,-0.05125],[0.2575,-0.05125],[0.25625,-0.05125],[0.255,-0.05125],[0.25375,-0.05125],[0.25125,-0.05],[0.25125,-0.05],[0.25,-0.05],[0.24875,-0.05],[0.2475,-0.05],[0.2475,-0.05],[0.24625,-0.04875],[0.24625,-0.04875],[0.245,-0.04875],[0.24375,-0.04875],[0.24375,-0.04875],[0.2425,-0.04875],[0.24125,-0.04875],[0.24,-0.0475],[0.24,-0.0475],[0.23875,-0.0475],[0.2375,-0.0475],[0.23625,-0.0475],[0.235,-0.0475],[0.23375,-0.0475],[0.2325,-0.0475],[0.23125,-0.0475],[0.23125,-0.0475],[0.23,-0.0475],[0.23,-0.0475],[0.23,-0.0475],[0.23,-0.0475],[0.22875,-0.0475],[0.22875,-0.0475],[0.22875,-0.0475],[0.2275,-0.0475],[0.2275,-0.04625],[0.22625,-0.045],[0.225,-0.04]],[[-0.005,-0.1925],[-0.005,-0.1925],[-0.005,-0.1925],[-0.005,-0.1925],[-0.005,-0.1925],[-0.005,-0.1925],[-0.005,-0.1925],[-0.005,-0.1925],[-0.005,-0.1925],[-0.005,-0.1925],[-0.005,-0.1925],[-0.005,-0.1925],[-0.005,-0.1925],[-0.005,-0.1925],[-0.00625,-0.1925],[-0.01,-0.1925],[-0.02,-0.1925],[-0.0325,-0.1925],[-0.055,-0.1925],[-0.0725,-0.1925],[-0.09,-0.19125],[-0.10875,-0.19125],[-0.12625,-0.18875],[-0.13625,-0.18875],[-0.14875,-0.18625],[-0.16,-0.185],[-0.1675,-0.18375],[-0.17875,-0.18125],[-0.185,-0.18],[-0.1925,-0.1775],[-0.2025,-0.17625],[-0.21125,-0.175],[-0.22,-0.17375],[-0.22625,-0.1725],[-0.23125,-0.17125],[-0.23625,-0.17],[-0.24,-0.16875],[-0.24375,-0.1675],[-0.245,-0.16625],[-0.2475,-0.16375],[-0.25,-0.1625],[-0.25375,-0.16],[-0.2575,-0.15875],[-0.26125,-0.1575],[-0.265,-0.155],[-0.27,-0.1525],[-0.2725,-0.15],[-0.27625,-0.14875],[-0.2775,-0.1475],[-0.28125,-0.145],[-0.28375,-0.14375],[-0.28625,-0.14125],[-0.29,-0.13875],[-0.29375,-0.1375],[-0.2975,-0.135],[-0.29875,-0.1325],[-0.30125,-0.13125],[-0.3025,-0.12875],[-0.30375,-0.1275],[-0.30625,-0.12625],[-0.3075,-0.125],[-0.30875,-0.12375],[-0.30875,-0.1225],[-0.31,-0.12],[-0.31125,-0.11875],[-0.3125,-0.11625],[-0.31375,-0.11375],[-0.31375,-0.11125],[-0.315,-0.10875],[-0.315,-0.1075],[-0.315,-0.105],[-0.315,-0.10375],[-0.315,-0.1025],[-0.315,-0.10125],[-0.315,-0.09875],[-0.315,-0.09875],[-0.315,-0.09875],[-0.315,-0.0975],[-0.315,-0.0975],[-0.315,-0.09625],[-0.31375,-0.09625],[-0.31375,-0.09625],[-0.3125,-0.09625],[-0.31125,-0.095],[-0.31,-0.095],[-0.30875,-0.095],[-0.30875,-0.095],[-0.3075,-0.095],[-0.30625,-0.095],[-0.305,-0.09375],[-0.3025,-0.09375],[-0.30125,-0.0925],[-0.2975,-0.0925],[-0.295,-0.09125],[-0.29125,-0.09],[-0.28875,-0.08875],[-0.285,-0.0875],[-0.28125,-0.08625],[-0.27875,-0.08375],[-0.27625,-0.0825],[-0.2725,-0.08125],[-0.26875,-0.08125],[-0.2625,-0.08],[-0.25875,-0.07875],[-0.25625,-0.07875],[-0.25375,-0.07875],[-0.25125,-0.0775],[-0.25,-0.0775],[-0.24875,-0.0775],[-0.2475,-0.0775],[-0.24625,-0.0775],[-0.245,-0.0775],[-0.245,-0.0775],[-0.24375,-0.07625],[-0.2425,-0.07625],[-0.24,-0.07625],[-0.23875,-0.07625],[-0.2375,-0.075],[-0.23625,-0.075],[-0.235,-0.075],[-0.23375,-0.075],[-0.23375,-0.075],[-0.23375,-0.075],[-0.23375,-0.07375],[-0.23375,-0.07375],[-0.23375,-0.07375],[-0.2325,-0.07375],[-0.2325,-0.07375],[-0.2325,-0.07375],[-0.23125,-0.07375],[-0.23,-0.0725],[-0.23,-0.0725],[-0.22875,-0.0725],[-0.22875,-0.0725],[-0.22875,-0.0725],[-0.22875,-0.0725],[-0.22875,-0.0725]]]",2,"[211,137]",,,,,,,,,,,,,,sculpturegarden2.jpg,space,10.848,0,13,13,87,1,restaurantkitchen2.jpg,theater2.jpg,savanna.jpg,RVinside2.jpg,,
Image_List_4,,,,,,,,,,,,,,,,44238,2020-11-29_00h06.51.988,analogCatScenes,2020.1.3,MacIntel,60,"[1280,800]","[[[0.0025,-0.195],[0.0025,-0.195],[0.0025,-0.195],[0.0025,-0.195],[0.0025,-0.195],[0.0025,-0.195],[0.0025,-0.195],[0.0025,-0.195],[0.0025,-0.195],[0.0025,-0.195],[0.0025,-0.195],[0.0025,-0.195],[0.0025,-0.195],[0.0025,-0.195],[0.0025,-0.195],[0.00375,-0.19375],[0.00625,-0.1925],[0.01,-0.19],[0.015,-0.18625],[0.02125,-0.18125],[0.0275,-0.17625],[0.03375,-0.1725],[0.04,-0.16875],[0.045,-0.165],[0.05375,-0.16],[0.065,-0.15375],[0.07125,-0.15125],[0.075,-0.14875],[0.08,-0.14625],[0.08375,-0.14375],[0.0875,-0.1425],[0.09125,-0.14],[0.095,-0.1375],[0.09875,-0.135],[0.1025,-0.1325],[0.1075,-0.13],[0.11,-0.1275],[0.11625,-0.12375],[0.12125,-0.12],[0.1275,-0.11625],[0.1325,-0.11125],[0.13875,-0.10625],[0.145,-0.10125],[0.155,-0.095],[0.1625,-0.09],[0.17,-0.08625],[0.17625,-0.08125],[0.1825,-0.0775],[0.1875,-0.07375],[0.1925,-0.07125],[0.19625,-0.0675],[0.19875,-0.065],[0.205,-0.06],[0.21,-0.05625],[0.21375,-0.0525],[0.22,-0.04875],[0.225,-0.045],[0.23125,-0.04125],[0.2375,-0.0375],[0.245,-0.035],[0.2525,-0.03],[0.265,-0.025],[0.27,-0.02125],[0.27625,-0.0175],[0.28,-0.01375],[0.28375,-0.01],[0.2875,-0.005],[0.29,0],[0.29125,0.005],[0.29375,0.00875],[0.295,0.01375],[0.29625,0.01625],[0.2975,0.01875],[0.29875,0.02125],[0.29875,0.0225],[0.29875,0.02375],[0.29875,0.02375],[0.29875,0.025],[0.29875,0.025],[0.29875,0.025],[0.29875,0.025],[0.29875,0.025],[0.29875,0.025],[0.29875,0.025],[0.29875,0.025],[0.29875,0.025],[0.29875,0.025],[0.29875,0.025],[0.29875,0.025],[0.29875,0.025],[0.29875,0.025],[0.29875,0.025],[0.29875,0.025],[0.29875,0.025],[0.29875,0.025],[0.29875,0.025],[0.29875,0.025],[0.29875,0.025],[0.29875,0.025],[0.29875,0.025],[0.29875,0.025],[0.29875,0.02625],[0.29875,0.02625],[0.29875,0.02625]],[[-0.00625,-0.19375],[-0.00625,-0.19375],[-0.00625,-0.19375],[-0.00625,-0.19375],[-0.00625,-0.19375],[-0.00625,-0.19375],[-0.00625,-0.19375],[-0.00625,-0.19375],[-0.00625,-0.19375],[-0.00625,-0.19375],[-0.00625,-0.19375],[-0.00625,-0.19375],[-0.00625,-0.19375],[-0.00625,-0.19375],[-0.00625,-0.19375],[-0.0075,-0.19375],[-0.00875,-0.19375],[-0.01125,-0.19375],[-0.015,-0.19375],[-0.01875,-0.19375],[-0.02375,-0.19375],[-0.02625,-0.19375],[-0.03,-0.19375],[-0.03375,-0.19375],[-0.0375,-0.19375],[-0.04,-0.195],[-0.045,-0.19625],[-0.04875,-0.19625],[-0.0525,-0.19625],[-0.05625,-0.19625],[-0.06125,-0.19625],[-0.06875,-0.19625],[-0.075,-0.19625],[-0.08125,-0.19625],[-0.09,-0.19625],[-0.09625,-0.19625],[-0.11,-0.19625],[-0.11875,-0.19625],[-0.12875,-0.19625],[-0.13625,-0.19625],[-0.14375,-0.19625],[-0.15125,-0.19625],[-0.15625,-0.195],[-0.16,-0.19375],[-0.16375,-0.1925],[-0.1675,-0.19],[-0.16875,-0.18875],[-0.16875,-0.18625],[-0.16875,-0.18375],[-0.16875,-0.18],[-0.16875,-0.17625],[-0.16875,-0.17125],[-0.1675,-0.16625],[-0.16625,-0.1625],[-0.16625,-0.15875],[-0.16375,-0.1525],[-0.1625,-0.1425],[-0.16,-0.13375],[-0.15875,-0.125],[-0.15625,-0.11625],[-0.155,-0.1075],[-0.15375,-0.09875],[-0.15,-0.08875],[-0.14875,-0.08],[-0.14625,-0.06625],[-0.145,-0.05625],[-0.1425,-0.04875],[-0.14125,-0.03875],[-0.13875,-0.0225],[-0.135,-0.01125],[-0.13125,0.0025],[-0.12625,0.01625],[-0.12125,0.0325],[-0.11125,0.06125],[-0.1025,0.08125],[-0.09625,0.09875],[-0.09125,0.11],[-0.08375,0.1275],[-0.07875,0.14],[-0.07375,0.155],[-0.07,0.16375],[-0.065,0.17375],[-0.0575,0.19],[-0.0525,0.19875],[-0.04625,0.2075],[-0.0425,0.21375],[-0.03875,0.21875],[-0.03625,0.22375],[-0.035,0.22625],[-0.03375,0.22875],[-0.0325,0.22875],[-0.0325,0.23],[-0.03125,0.23],[-0.03,0.23],[-0.03,0.23],[-0.03,0.23125],[-0.03,0.23125],[-0.02875,0.23125],[-0.02875,0.2325],[-0.02875,0.2325],[-0.02875,0.2325],[-0.02875,0.23375],[-0.02875,0.23375],[-0.02875,0.23375],[-0.02875,0.23375],[-0.02875,0.23375],[-0.02875,0.23375],[-0.02875,0.23375],[-0.02875,0.23375],[-0.02875,0.23375]]]",2,"[104,110]",,,,,,,,,,,,,,dugout1.jpg,space,47.797,0,14,14,40,1,drycleaners4.jpg,farm1.jpg,drymountains.jpg,clothingstore3.jpg,,
Image_List_4,,,,,,,,,,,,,,,,44238,2020-11-29_00h06.51.988,analogCatScenes,2020.1.3,MacIntel,60,"[1280,800]","[[[-0.00375,-0.195],[-0.00375,-0.195],[-0.00375,-0.195],[-0.00375,-0.195],[-0.00375,-0.195],[-0.00375,-0.195],[-0.00375,-0.195],[-0.00375,-0.195],[-0.00375,-0.195],[-0.00375,-0.1925],[-0.00375,-0.1875],[-0.00375,-0.1825],[-0.00375,-0.17125],[-0.00375,-0.15375],[-0.00375,-0.13875],[-0.00375,-0.11125],[-0.00375,-0.10125],[-0.00375,-0.07875],[-0.00375,-0.055],[-0.00375,-0.035],[-0.00375,-0.01625],[-0.00375,0.0025],[-0.00375,0.02125],[-0.00375,0.03875],[-0.00375,0.05],[-0.00125,0.06375],[-0.00125,0.07625],[-0.00125,0.085],[-0.00125,0.1025],[-0.00125,0.11375],[-0.00125,0.12625],[0,0.13375],[0.00125,0.14125],[0.00125,0.145],[0.00125,0.14625],[0.00125,0.1475],[0.00125,0.1475],[0.00125,0.1475],[0.00125,0.1475],[0.00125,0.1475],[0.00125,0.1475],[0.00125,0.14625]]]",1,[42],,,,,,,,,,,,,,fabricstore1.jpg,space,2.433,0,15,15,41,1,dugout4.jpg,farm3.jpg,drymountains3.jpg,dentist2.jpg,,
Image_List_4,,,,,,,,,,,,,,,,44238,2020-11-29_00h06.51.988,analogCatScenes,2020.1.3,MacIntel,60,"[1280,800]","[[[0.0025,-0.1975],[0.0025,-0.1975],[0.0025,-0.1975],[0.0025,-0.1975],[0.0025,-0.1975],[0.0025,-0.1975],[0.0025,-0.1975],[0.0025,-0.1975],[0.0025,-0.1975],[0.0025,-0.1975],[0.0025,-0.1975],[0.0025,-0.1975],[0.0025,-0.1975],[0.0025,-0.1975],[0,-0.1975],[-0.0025,-0.1975],[-0.00625,-0.19625],[-0.01375,-0.195],[-0.02,-0.19125],[-0.03,-0.18625],[-0.04375,-0.17875],[-0.05125,-0.175],[-0.05875,-0.17],[-0.065,-0.165],[-0.0725,-0.16125],[-0.08125,-0.15375],[-0.08875,-0.14625],[-0.09875,-0.13875],[-0.10875,-0.13125],[-0.1175,-0.125],[-0.12375,-0.12],[-0.1325,-0.11125],[-0.14,-0.105],[-0.15,-0.095],[-0.16,-0.08375],[-0.17,-0.07125],[-0.18,-0.06125],[-0.19125,-0.0475],[-0.2025,-0.035],[-0.20875,-0.0275],[-0.215,-0.02],[-0.22,-0.0125],[-0.22375,-0.00625],[-0.22625,0.00125],[-0.23,0.00875],[-0.2325,0.015],[-0.235,0.0225],[-0.23625,0.02875],[-0.24,0.04],[-0.2425,0.05],[-0.245,0.0575],[-0.2475,0.065],[-0.24875,0.07125],[-0.25,0.0775],[-0.25125,0.08375],[-0.2525,0.08875],[-0.2525,0.1],[-0.255,0.11625],[-0.25625,0.13],[-0.25625,0.14],[-0.25625,0.15125],[-0.2575,0.16375],[-0.2575,0.1725],[-0.2575,0.17875],[-0.2575,0.185],[-0.2575,0.18875],[-0.2575,0.19625],[-0.2575,0.19875],[-0.2575,0.20125],[-0.2575,0.20375],[-0.2575,0.20375],[-0.2575,0.205],[-0.2575,0.205],[-0.2575,0.205],[-0.2575,0.20375]],[[0.0025,-0.195],[0.0025,-0.195],[0.0025,-0.195],[0.0025,-0.195],[0.0025,-0.195],[0.0025,-0.195],[0.0025,-0.195],[0.0025,-0.195],[0.0025,-0.195],[0.0025,-0.195],[0.0025,-0.195],[0.0025,-0.195],[0.0025,-0.195],[0.0025,-0.195],[0.0025,-0.195],[0.00625,-0.19],[0.0125,-0.18375],[0.0225,-0.17375],[0.035,-0.1625],[0.04375,-0.155],[0.05375,-0.14625],[0.06125,-0.14],[0.07,-0.1325],[0.0775,-0.12625],[0.085,-0.12],[0.09375,-0.11125],[0.1025,-0.1025],[0.1075,-0.0975],[0.115,-0.09],[0.1225,-0.08375],[0.13,-0.07875],[0.13625,-0.07375],[0.14125,-0.06875],[0.14625,-0.065],[0.14875,-0.06375],[0.1525,-0.06],[0.155,-0.05875],[0.1575,-0.0575],[0.16125,-0.055],[0.16375,-0.05125],[0.1675,-0.04875],[0.17,-0.045],[0.1725,-0.04375],[0.175,-0.0425],[0.17625,-0.04125],[0.1775,-0.04125],[0.17875,-0.04],[0.17875,-0.04],[0.18,-0.03875],[0.18125,-0.03875],[0.18375,-0.0375],[0.1875,-0.035],[0.19125,-0.0325],[0.20125,-0.02625],[0.205,-0.0225],[0.2075,-0.02125],[0.20875,-0.01875],[0.20875,-0.01875],[0.21,-0.0175],[0.215,-0.015],[0.2225,-0.0075],[0.2375,0.00375],[0.245,0.00875],[0.25125,0.01125],[0.2525,0.0125],[0.2525,0.01375],[0.25375,0.01375],[0.25375,0.01375],[0.25375,0.01375],[0.25375,0.01375],[0.25375,0.01375],[0.25375,0.01375],[0.25375,0.01375],[0.25375,0.01375],[0.25375,0.01375],[0.25375,0.01375],[0.255,0.01375],[0.255,0.015],[0.25625,0.015],[0.25625,0.01625],[0.2575,0.0175],[0.25875,0.0175],[0.25875,0.0175],[0.26,0.01875],[0.26,0.01875],[0.26,0.01875],[0.26,0.01875],[0.26,0.01875],[0.26,0.01875],[0.26,0.01875],[0.26,0.02],[0.25875,0.02],[0.25625,0.02],[0.25375,0.02125],[0.24875,0.0225],[0.24375,0.02375],[0.23625,0.0275],[0.22625,0.03375],[0.21625,0.0425],[0.19625,0.06],[0.18125,0.075],[0.165,0.0875],[0.14875,0.1],[0.1325,0.115],[0.115,0.13],[0.0975,0.14625],[0.08,0.16],[0.06125,0.17375],[0.0375,0.19],[0.02125,0.20375],[0.00625,0.21625],[-0.0075,0.2275],[-0.0225,0.24],[-0.04,0.25625],[-0.05,0.265],[-0.0625,0.2775],[-0.0725,0.2875],[-0.08,0.295],[-0.085,0.3025],[-0.0875,0.30625],[-0.08875,0.30875],[-0.08875,0.31],[-0.08875,0.31],[-0.08875,0.31],[-0.08875,0.31],[-0.08875,0.31],[-0.08875,0.31],[-0.08875,0.31]]]",2,"[75,128]",,,,,,,,,,,,,,sandDunes_desert_outdoor3.jpg,space,7.497,0,16,16,85,1,recordingstudio4.jpg,sidewalk5.jpg,ruralroad2.jpg,rooftop3.jpg,,
Image_List_4,,,,,,,,,,,,,,,,44238,2020-11-29_00h06.51.988,analogCatScenes,2020.1.3,MacIntel,60,"[1280,800]","[[[0.00125,-0.2],[0.00125,-0.19875],[0.00125,-0.19875],[0.00125,-0.19875],[0.00125,-0.19875],[0.00125,-0.19875],[0.00125,-0.19875],[0.00125,-0.19875],[0.00125,-0.19875],[0.00125,-0.19875],[0.00125,-0.19875],[0.00125,-0.19875],[0.00125,-0.19875],[0.00125,-0.19875],[0.0025,-0.1975],[0.00625,-0.19375],[0.01,-0.19],[0.02,-0.1825],[0.03125,-0.17375],[0.0475,-0.16375],[0.065,-0.15],[0.07375,-0.1425],[0.08125,-0.13625],[0.08625,-0.1325],[0.09125,-0.1275],[0.09625,-0.12375],[0.1,-0.1225],[0.1025,-0.12],[0.105,-0.1175],[0.10625,-0.11625],[0.1075,-0.11625],[0.1075,-0.115],[0.10875,-0.115],[0.10875,-0.115],[0.10875,-0.115],[0.10875,-0.11375],[0.10875,-0.11375],[0.10875,-0.11375],[0.1075,-0.11375],[0.10625,-0.11375],[0.10375,-0.11375],[0.1025,-0.1125],[0.1,-0.1125],[0.0975,-0.1125],[0.09625,-0.1125],[0.09375,-0.1125],[0.0925,-0.11125],[0.09,-0.11125],[0.08625,-0.11],[0.08375,-0.10875],[0.08,-0.10875],[0.0775,-0.1075],[0.075,-0.10625],[0.07125,-0.105],[0.0675,-0.10375],[0.06375,-0.1025],[0.05875,-0.10125],[0.0525,-0.09875],[0.04875,-0.0975],[0.045,-0.095],[0.0425,-0.09375],[0.03875,-0.09125],[0.035,-0.09],[0.03125,-0.0875],[0.02875,-0.08625],[0.02625,-0.08625],[0.0225,-0.08375],[0.01875,-0.0825],[0.01625,-0.08125],[0.015,-0.07875],[0.0125,-0.0775],[0.01125,-0.0775],[0.01,-0.07625],[0.00875,-0.07625],[0.00875,-0.07625],[0.0075,-0.075],[0.00625,-0.075],[0.00625,-0.075],[0.00625,-0.075],[0.00625,-0.075],[0.00625,-0.075],[0.005,-0.075],[0.005,-0.075],[0.005,-0.075],[0.005,-0.075],[0.005,-0.07375],[0.00375,-0.07375],[0.00375,-0.07375],[0.00375,-0.07375],[0.0025,-0.07375],[0.0025,-0.0725],[0.0025,-0.0725],[0.00125,-0.0725],[0.00125,-0.0725],[0.00125,-0.0725],[0.00125,-0.07125]],[[-0.00875,-0.19],[-0.00875,-0.19],[-0.00875,-0.19],[-0.00875,-0.19],[-0.00875,-0.19],[-0.00875,-0.19],[-0.00875,-0.19],[-0.00875,-0.19],[-0.00875,-0.19],[-0.00875,-0.19],[-0.00875,-0.19],[-0.00875,-0.19],[-0.00875,-0.19],[-0.00875,-0.19],[-0.00875,-0.19],[-0.00875,-0.19],[-0.01125,-0.19],[-0.01375,-0.1925],[-0.02,-0.1975],[-0.02375,-0.20125],[-0.0275,-0.2025],[-0.02875,-0.20375],[-0.03125,-0.205],[-0.0325,-0.20625],[-0.035,-0.2075],[-0.03625,-0.20875],[-0.0375,-0.20875],[-0.03875,-0.21],[-0.04,-0.2125],[-0.0425,-0.215],[-0.04375,-0.21625],[-0.045,-0.2175],[-0.04625,-0.22],[-0.04875,-0.22125],[-0.05,-0.22125],[-0.05125,-0.2225],[-0.05125,-0.2225],[-0.0525,-0.22375],[-0.05375,-0.225],[-0.05375,-0.22625],[-0.055,-0.22625],[-0.055,-0.22625],[-0.05625,-0.22625],[-0.0575,-0.22625],[-0.0575,-0.22625],[-0.0575,-0.22625],[-0.05875,-0.22625],[-0.06,-0.22625],[-0.06,-0.22625],[-0.06,-0.22625],[-0.06125,-0.22625],[-0.0625,-0.22625],[-0.06375,-0.22625],[-0.065,-0.225],[-0.0675,-0.22375],[-0.0725,-0.2225],[-0.075,-0.22125],[-0.07875,-0.22125],[-0.0825,-0.22],[-0.0875,-0.21875],[-0.09125,-0.21875],[-0.095,-0.2175],[-0.1,-0.2175],[-0.10375,-0.21625],[-0.10875,-0.21625],[-0.11625,-0.215],[-0.1225,-0.215],[-0.1275,-0.21375],[-0.13375,-0.21375],[-0.14125,-0.21375],[-0.1475,-0.2125],[-0.15875,-0.21125],[-0.16875,-0.20875],[-0.18125,-0.205],[-0.19625,-0.2],[-0.2075,-0.1975],[-0.215,-0.195],[-0.22125,-0.19375],[-0.2275,-0.1925],[-0.2325,-0.19125],[-0.23625,-0.19],[-0.24,-0.18875],[-0.24375,-0.18875],[-0.24625,-0.18875],[-0.24875,-0.18875],[-0.25,-0.18875],[-0.25125,-0.18875],[-0.25125,-0.18875],[-0.2525,-0.18875],[-0.2525,-0.18875],[-0.2525,-0.18875],[-0.2525,-0.18875],[-0.2525,-0.18875],[-0.2525,-0.18875],[-0.2525,-0.1875],[-0.25375,-0.1875],[-0.25375,-0.18625],[-0.255,-0.18625],[-0.255,-0.18625],[-0.255,-0.18625],[-0.25625,-0.185],[-0.25625,-0.185],[-0.25625,-0.185],[-0.2575,-0.185],[-0.2575,-0.185],[-0.2575,-0.185],[-0.2575,-0.185],[-0.2575,-0.185],[-0.2575,-0.185],[-0.2575,-0.185],[-0.2575,-0.185],[-0.2575,-0.185],[-0.2575,-0.185],[-0.2575,-0.185],[-0.2575,-0.185],[-0.25875,-0.185],[-0.25875,-0.185],[-0.26,-0.185],[-0.26125,-0.185],[-0.2625,-0.18375],[-0.265,-0.18375],[-0.26625,-0.18375],[-0.26875,-0.1825],[-0.27125,-0.1825],[-0.2725,-0.18125],[-0.275,-0.18125],[-0.27625,-0.18],[-0.2775,-0.18],[-0.27875,-0.18],[-0.28,-0.17875],[-0.28125,-0.17875],[-0.28375,-0.1775],[-0.285,-0.1775],[-0.28625,-0.1775],[-0.2875,-0.17625],[-0.2875,-0.17625],[-0.28875,-0.17625],[-0.29,-0.17625],[-0.29125,-0.175],[-0.2925,-0.175],[-0.29375,-0.175],[-0.29625,-0.17375],[-0.2975,-0.17125],[-0.3,-0.17],[-0.3025,-0.16875],[-0.30375,-0.1675],[-0.305,-0.16625],[-0.30625,-0.16625],[-0.3075,-0.16625],[-0.3075,-0.16625],[-0.3075,-0.165],[-0.3075,-0.165],[-0.30875,-0.165],[-0.30875,-0.165]]]",2,"[96,154]",,,,,,,,,,,,,,operatingroom1.jpg,space,13.577,0,17,17,74,1,newsstand2.jpg,playground10.jpg,observatory4.jpeg,lightingstore2.jpg,,
Image_List_4,,,,,,,,,,,,,,,,44238,2020-11-29_00h06.51.988,analogCatScenes,2020.1.3,MacIntel,60,"[1280,800]","[[[-0.01,-0.19125],[-0.01,-0.19125],[-0.01,-0.19125],[-0.01,-0.19125],[-0.01,-0.19125],[-0.01,-0.19125],[-0.01,-0.19125],[-0.01,-0.19125],[-0.01,-0.19125],[-0.01,-0.19125],[-0.01,-0.19125],[-0.01,-0.19125],[-0.00875,-0.19125],[0.00875,-0.18],[0.02875,-0.16375],[0.05625,-0.14375],[0.0875,-0.1225],[0.11875,-0.1],[0.145,-0.08375],[0.165,-0.07],[0.1825,-0.05875],[0.19625,-0.05],[0.21,-0.04],[0.22875,-0.02875],[0.2375,-0.025],[0.24875,-0.02],[0.2575,-0.015],[0.2675,-0.01],[0.27625,-0.0075],[0.28375,-0.00375],[0.29125,-0.00125],[0.295,0],[0.29875,0.00125],[0.29875,0.00125],[0.29875,0.00125],[0.29875,0.00125],[0.29875,0.00125]],[[-0.005,-0.19375],[-0.005,-0.19375],[-0.005,-0.19375],[-0.005,-0.19375],[-0.005,-0.19375],[-0.005,-0.19375],[-0.005,-0.19375],[-0.005,-0.19375],[-0.0075,-0.19375],[-0.01875,-0.19375],[-0.035,-0.19375],[-0.05125,-0.19375],[-0.06875,-0.19375],[-0.095,-0.19375],[-0.11125,-0.19375],[-0.125,-0.19375],[-0.13375,-0.19375],[-0.14625,-0.19375],[-0.1575,-0.19375],[-0.165,-0.19375],[-0.17,-0.1925],[-0.175,-0.19125],[-0.17875,-0.19],[-0.18,-0.18875],[-0.18125,-0.18875],[-0.1825,-0.18875],[-0.1825,-0.18875],[-0.18375,-0.18875],[-0.18375,-0.18875],[-0.18375,-0.18875],[-0.18375,-0.1875],[-0.185,-0.1875],[-0.185,-0.18625],[-0.18625,-0.18625]]]",2,"[37,34]",,,,,,,,,,,,,,hayfield4.jpg,space,11.577,0,18,18,51,1,gasstation6.jpg,hallway5.jpg,frontDoor5.jpg,firestation5.jpg,,
Image_List_4,,,,,,,,,,,,,,,,44238,2020-11-29_00h06.51.988,analogCatScenes,2020.1.3,MacIntel,60,"[1280,800]","[[[0,-0.20125],[0,-0.20125],[0,-0.20125],[0,-0.20125],[0,-0.20125],[0,-0.20125],[0,-0.20125],[0,-0.20125],[0,-0.20125],[0,-0.20125],[0,-0.20125],[0,-0.20125],[0,-0.20125],[0,-0.20125],[0,-0.20125],[0,-0.20125],[0,-0.20125],[0,-0.20125],[0,-0.20125],[0,-0.20125],[0,-0.2],[0,-0.2],[0,-0.19875],[0,-0.1975],[0,-0.19625],[0.00125,-0.195],[0.00125,-0.19375],[0.00125,-0.1925],[0.0025,-0.19],[0.0025,-0.18875],[0.0025,-0.1875],[0.00375,-0.18625],[0.00375,-0.1825],[0.00375,-0.18],[0.005,-0.1775],[0.00625,-0.17125],[0.0075,-0.1675],[0.00875,-0.16125],[0.01,-0.15625],[0.01125,-0.1475],[0.0125,-0.13875],[0.015,-0.12875],[0.01625,-0.11875],[0.0175,-0.11125],[0.02,-0.09875],[0.02125,-0.09125],[0.02125,-0.08375],[0.02375,-0.0725],[0.02375,-0.06625],[0.02625,-0.05875],[0.02625,-0.05375],[0.0275,-0.0475],[0.0275,-0.04375],[0.02875,-0.04],[0.03,-0.03625],[0.03,-0.0325],[0.03,-0.02875],[0.03125,-0.02625],[0.03125,-0.02125],[0.03125,-0.01625],[0.0325,-0.01],[0.03375,-0.00375],[0.03375,0.0075],[0.035,0.015],[0.035,0.025],[0.03625,0.03375],[0.0375,0.04125],[0.03875,0.04375],[0.03875,0.04875],[0.04,0.05],[0.04,0.05],[0.04,0.05],[0.04,0.05],[0.04,0.05],[0.04,0.05],[0.04,0.05],[0.04,0.05],[0.04,0.05],[0.04,0.05],[0.04,0.05],[0.04,0.05],[0.04,0.05],[0.04,0.05],[0.03875,0.05],[0.03875,0.04875],[0.0375,0.04875],[0.03625,0.04875],[0.035,0.04875],[0.0325,0.04875],[0.03125,0.0475],[0.02875,0.0475],[0.02625,0.0475],[0.025,0.0475],[0.02125,0.0475],[0.01875,0.0475],[0.01625,0.0475],[0.01125,0.0475],[0.00625,0.0475],[0.0025,0.0475],[-0.00375,0.0475],[-0.01,0.0475],[-0.015,0.0475],[-0.01875,0.0475],[-0.0225,0.0475],[-0.0275,0.0475],[-0.03125,0.0475],[-0.0375,0.0475],[-0.0425,0.0475],[-0.0475,0.0475],[-0.05625,0.0475],[-0.06125,0.04875],[-0.0675,0.04875],[-0.0725,0.04875],[-0.0775,0.04875],[-0.085,0.04875],[-0.09,0.04875],[-0.09625,0.05],[-0.1025,0.05125],[-0.1075,0.0525],[-0.115,0.0525],[-0.12,0.05375],[-0.12375,0.05375],[-0.1275,0.055],[-0.1325,0.055],[-0.135,0.055],[-0.14,0.055],[-0.14375,0.05625],[-0.14875,0.05625],[-0.1575,0.0575],[-0.1625,0.0575],[-0.1675,0.05875],[-0.1725,0.05875],[-0.17625,0.05875],[-0.18,0.06],[-0.185,0.06],[-0.19,0.06],[-0.195,0.06125],[-0.2,0.06125],[-0.2075,0.06125],[-0.21125,0.06125],[-0.21625,0.06125],[-0.22125,0.06125],[-0.22375,0.06125],[-0.2275,0.06125],[-0.23125,0.06125],[-0.235,0.06125],[-0.2375,0.06125],[-0.24375,0.06125],[-0.24875,0.0625],[-0.2525,0.06375],[-0.25875,0.065],[-0.2625,0.06625],[-0.2675,0.06625],[-0.27125,0.06625],[-0.27375,0.06625],[-0.27875,0.06625],[-0.2875,0.06125],[-0.29375,0.0575],[-0.29875,0.055],[-0.305,0.05375],[-0.30875,0.05375],[-0.3125,0.05375],[-0.315,0.05375],[-0.3175,0.05375],[-0.31875,0.055],[-0.32,0.05625],[-0.3225,0.0575],[-0.3225,0.05875],[-0.32375,0.05875],[-0.32375,0.06],[-0.325,0.06],[-0.325,0.06],[-0.325,0.06],[-0.325,0.06125],[-0.325,0.06125],[-0.325,0.0625]],[[0,-0.1975],[0,-0.1975],[0,-0.1975],[0,-0.1975],[0,-0.1975],[0,-0.1975],[0,-0.1975],[0,-0.1975],[0,-0.1975],[0,-0.1975],[0,-0.1975],[0,-0.1975],[0,-0.19625],[0,-0.19625],[0,-0.195],[0,-0.19375],[0,-0.1925],[0,-0.19],[0,-0.18375],[0,-0.17875],[0,-0.17375],[0,-0.17125],[0.00125,-0.165],[0.0025,-0.16],[0.00375,-0.15375],[0.005,-0.1475],[0.00625,-0.14125],[0.00875,-0.1325],[0.00875,-0.12875],[0.00875,-0.12375],[0.01,-0.11875],[0.01,-0.115],[0.01,-0.11],[0.01125,-0.10375],[0.0125,-0.09875],[0.01375,-0.0925],[0.01625,-0.08375],[0.0175,-0.0775],[0.01875,-0.0725],[0.02,-0.06875],[0.02125,-0.06375],[0.0225,-0.05875],[0.0225,-0.0525],[0.02375,-0.04625],[0.02375,-0.04125],[0.025,-0.0325],[0.02625,-0.0275],[0.02625,-0.0225],[0.0275,-0.01875],[0.0275,-0.01625],[0.0275,-0.01375],[0.0275,-0.01125],[0.0275,-0.01],[0.0275,-0.00875],[0.02875,-0.0075],[0.02875,-0.005],[0.03,-0.00125],[0.03125,0.0025],[0.0325,0.00625],[0.03375,0.00875],[0.03375,0.0125],[0.035,0.015],[0.03625,0.0175],[0.0375,0.02375],[0.03875,0.02625],[0.03875,0.02875],[0.04,0.0325],[0.04,0.035],[0.04125,0.0375],[0.04125,0.04],[0.04125,0.0425],[0.04125,0.045],[0.04125,0.04625],[0.0425,0.04625],[0.0425,0.04625],[0.0425,0.0475],[0.0425,0.0475],[0.0425,0.0475],[0.0425,0.0475],[0.0425,0.04875],[0.0425,0.04875],[0.0425,0.04875],[0.0425,0.05],[0.0425,0.05],[0.0425,0.05125],[0.0425,0.05125],[0.0425,0.05125],[0.0425,0.05125],[0.0425,0.05125],[0.04375,0.05125],[0.04375,0.05125],[0.045,0.05125],[0.04625,0.0525],[0.04625,0.0525],[0.0475,0.05375],[0.04875,0.05375],[0.05125,0.05375],[0.0525,0.05375],[0.05375,0.05375],[0.055,0.05375],[0.0575,0.055],[0.06,0.055],[0.0625,0.05625],[0.065,0.05625],[0.06625,0.05625],[0.0675,0.0575],[0.06875,0.0575],[0.07125,0.0575],[0.0725,0.0575],[0.07375,0.0575],[0.075,0.0575],[0.0775,0.0575],[0.07875,0.0575],[0.08,0.0575],[0.08125,0.0575],[0.08125,0.0575],[0.0825,0.0575],[0.08375,0.0575],[0.085,0.0575],[0.08625,0.0575],[0.09,0.0575],[0.09125,0.0575],[0.09375,0.0575],[0.09625,0.0575],[0.0975,0.0575],[0.1,0.05625],[0.10125,0.05625],[0.10375,0.055],[0.1075,0.055],[0.11,0.055],[0.11375,0.05375],[0.1175,0.05375],[0.12125,0.05375],[0.12375,0.05375],[0.1275,0.05375],[0.13,0.05375],[0.13375,0.05375],[0.13625,0.0525],[0.13875,0.0525],[0.145,0.0525],[0.1475,0.05125],[0.15125,0.05125],[0.15625,0.05125],[0.16125,0.05125],[0.16625,0.05125],[0.1725,0.05125],[0.17625,0.05125],[0.18,0.05125],[0.18375,0.05125],[0.18625,0.05125],[0.18875,0.05125],[0.19,0.05125],[0.1925,0.05125],[0.195,0.05125],[0.1975,0.05125],[0.2,0.05125],[0.20375,0.05125],[0.21,0.05125],[0.21625,0.05125],[0.22125,0.05125],[0.22625,0.05125],[0.23125,0.05125],[0.23625,0.05],[0.24,0.05],[0.245,0.05],[0.24875,0.05],[0.25375,0.05],[0.25625,0.04875],[0.25875,0.04875],[0.26,0.04875],[0.26125,0.0475],[0.26375,0.0475],[0.265,0.0475],[0.26625,0.0475],[0.26875,0.0475],[0.27125,0.0475],[0.2775,0.04625],[0.28125,0.04625],[0.28625,0.04625],[0.29,0.045],[0.29625,0.045],[0.30375,0.045],[0.31,0.04375],[0.31625,0.0425],[0.32125,0.0425],[0.32625,0.04125],[0.3275,0.04125],[0.3275,0.04125],[0.3275,0.04125],[0.3275,0.04125],[0.3275,0.04125],[0.3275,0.04125]]]",2,"[176,192]",,,,,,,,,,,,,,park2.jpg,space,10.099,0,19,19,76,1,parkinggarage.jpg,playroom4.jpg,parkinggarage3.jpg,lookout4.jpg,,
Image_List_4,,,,,,,,,,,,,,,,44238,2020-11-29_00h06.51.988,analogCatScenes,2020.1.3,MacIntel,60,"[1280,800]","[[[-0.01,-0.2],[-0.01,-0.2],[-0.01,-0.2],[-0.01,-0.2],[-0.01,-0.2],[-0.01,-0.2],[-0.01,-0.2],[-0.01,-0.2],[-0.01,-0.2],[-0.01,-0.2],[-0.01,-0.2],[-0.01,-0.2],[-0.0125,-0.2],[-0.01625,-0.2],[-0.01875,-0.2],[-0.02375,-0.2],[-0.02625,-0.2],[-0.03125,-0.2],[-0.035,-0.2],[-0.04,-0.2],[-0.0475,-0.19875],[-0.05125,-0.19875],[-0.0575,-0.1975],[-0.06,-0.19625],[-0.06375,-0.19625],[-0.06625,-0.195],[-0.0675,-0.19375],[-0.06875,-0.1925],[-0.07,-0.19125],[-0.07125,-0.18875],[-0.07125,-0.18625],[-0.07125,-0.185],[-0.07125,-0.1825],[-0.07125,-0.18],[-0.07125,-0.17875],[-0.07,-0.175],[-0.06875,-0.1725],[-0.0675,-0.17125],[-0.0675,-0.17],[-0.065,-0.16875],[-0.065,-0.1675],[-0.06375,-0.1675],[-0.06375,-0.16625],[-0.0625,-0.16625],[-0.06125,-0.165],[-0.06125,-0.165],[-0.06,-0.16375],[-0.06,-0.1625],[-0.05875,-0.16125],[-0.0575,-0.16],[-0.0575,-0.16],[-0.0575,-0.16],[-0.0575,-0.16],[-0.0575,-0.16],[-0.0575,-0.16],[-0.0575,-0.16],[-0.05875,-0.16]]]",1,[57],,,,,,,,,,,,,,castle2.jpg,space,3.666,0,20,20,18,1,bleachers5.jpg,casino1.jpg,brewery4.jpg,basement6.jpg,,
Image_List_4,,,,,,,,,,,,,,,,44238,2020-11-29_00h06.51.988,analogCatScenes,2020.1.3,MacIntel,60,"[1280,800]","[[[0.0025,-0.19375],[0.0025,-0.19375],[0.0025,-0.19375],[0.0025,-0.19375],[0.0025,-0.19375],[0.0025,-0.19375],[0.0025,-0.19375],[0.0025,-0.19375],[0.0025,-0.19375],[0.0025,-0.19375],[0.0025,-0.19375],[0.0025,-0.19375],[0.0025,-0.19375],[0.0025,-0.19375],[0.0025,-0.19375],[0.00625,-0.19375],[0.01125,-0.19375],[0.01625,-0.19375],[0.02375,-0.19375],[0.03,-0.19375],[0.03625,-0.19375],[0.0425,-0.19375],[0.0475,-0.1925],[0.05125,-0.1925],[0.055,-0.19125],[0.0625,-0.19],[0.06875,-0.18875],[0.07625,-0.18625],[0.08375,-0.1825],[0.09,-0.18],[0.095,-0.1775],[0.0975,-0.17625],[0.09875,-0.17375],[0.1,-0.1725],[0.10125,-0.1675],[0.1025,-0.1625],[0.10375,-0.15125],[0.105,-0.13875],[0.1075,-0.12875],[0.10875,-0.11625],[0.11125,-0.105],[0.11125,-0.095],[0.11125,-0.08625],[0.11125,-0.075],[0.11125,-0.06375],[0.11125,-0.0475],[0.11125,-0.0375],[0.11,-0.0275],[0.1075,-0.01875],[0.105,-0.0075],[0.1025,0],[0.1,0.01125],[0.09875,0.02375],[0.095,0.0425],[0.0925,0.05875],[0.09,0.07125],[0.08625,0.08375],[0.08375,0.09375],[0.0825,0.1],[0.08125,0.105],[0.08125,0.1075],[0.08,0.11],[0.08,0.1125],[0.07875,0.11375],[0.07875,0.11375],[0.07875,0.115],[0.0775,0.115],[0.0775,0.115],[0.07625,0.115],[0.07625,0.11625],[0.07625,0.11625],[0.075,0.11625],[0.075,0.11625],[0.075,0.11625],[0.075,0.11625],[0.07375,0.11625]]]",1,[76],,,,,,,,,,,,,,attic4.jpg,space,2.904,0,21,21,5,1,artStudio3.jpg,bambooforest.jpg,auto_showroom4.jpg,amusement3.jpg,,
