image_list,key_resp_intructions.keys,key_resp_intructions.rt,key_resp_intructions_3.keys,key_resp_intructions_3.rt,PracticeComplete_2.keys,PracticeComplete_2.rt,PracticeComplete_3.keys,PracticeComplete_3.rt,demo_trials.thisRepN,demo_trials.thisTrialN,demo_trials.thisN,demo_trials.thisIndex,demo_trials.ran,demo_images,path_images,participant,date,expName,psychopyVersion,OS,frameRate,windowSize,drawing,numDrawings,drawingSizes,practice_complete.keys,practice_complete.rt,PracticeComplete.keys,PracticeComplete.rt,practice_trials.thisRepN,practice_trials.thisTrialN,practice_trials.thisN,practice_trials.thisIndex,practice_trials.ran,practice_images,feedback_images,key_resp_intructions_2.keys,key_resp_intructions_2.rt,Image_List_3,trial_complete.keys,trial_complete.rt,trials.thisRepN,trials.thisTrialN,trials.thisN,trials.thisIndex,trials.ran,Image_List_1,Image_List_2,Image_List_4,Image_List_5,key_resp.keys,key_resp.rt
Image_List_3,space,12.67872,space,5.849245,space,7.207385,space,3.778305,0,0,0,3,1,ahead_right_left.jpg,ahead_right_left_path.jpg,44235,2020-11-23_10h40.03.259,analogCatScenes,2020.1.3,MacIntel,60,,,,,,,,,,,,,,,,,,,,,,,,,,,,,,,
Image_List_3,,,,,space,0.83432,space,0.851755,0,1,1,6,1,right_left.jpg,right_left_path.jpg,44235,2020-11-23_10h40.03.259,analogCatScenes,2020.1.3,MacIntel,60,,,,,,,,,,,,,,,,,,,,,,,,,,,,,,,
Image_List_3,,,,,space,0.527685,space,0.780665,0,2,2,1,1,ahead_left.jpg,ahead_left_path.jpg,44235,2020-11-23_10h40.03.259,analogCatScenes,2020.1.3,MacIntel,60,,,,,,,,,,,,,,,,,,,,,,,,,,,,,,,
Image_List_3,,,,,space,0.72349,space,1.11246,0,3,3,0,1,ahead.jpg,ahead_path.jpg,44235,2020-11-23_10h40.03.259,analogCatScenes,2020.1.3,MacIntel,60,,,,,,,,,,,,,,,,,,,,,,,,,,,,,,,
Image_List_3,,,,,space,1.347925,space,0.44935,0,4,4,4,1,left.jpg,left_path.jpg,44235,2020-11-23_10h40.03.259,analogCatScenes,2020.1.3,MacIntel,60,,,,,,,,,,,,,,,,,,,,,,,,,,,,,,,
Image_List_3,,,,,space,0.523495,space,0.535165,0,5,5,2,1,ahead_right.jpg,ahead_right_path.jpg,44235,2020-11-23_10h40.03.259,analogCatScenes,2020.1.3,MacIntel,60,,,,,,,,,,,,,,,,,,,,,,,,,,,,,,,
Image_List_3,,,,,space,0.462405,space,0.92918,0,6,6,5,1,right.jpg,right_path.jpg,44235,2020-11-23_10h40.03.259,analogCatScenes,2020.1.3,MacIntel,60,,,,,,,,,,,,,,,,,,,,,,,,,,,,,,,
Image_List_3,,,,,,,,,,,,,,,,44235,2020-11-23_10h40.03.259,analogCatScenes,2020.1.3,MacIntel,60,"[1440,900]","[[[0.0024696180555555556,-0.1987717013888889],[0.0024696180555555556,-0.1987717013888889],[0.0024696180555555556,-0.1987717013888889],[0.0024696180555555556,-0.1987717013888889],[0.0024696180555555556,-0.1987717013888889],[0.0024696180555555556,-0.1987717013888889],[0.0024696180555555556,-0.1987717013888889],[0.0024696180555555556,-0.1987717013888889],[0.0024696180555555556,-0.1987717013888889],[0.0024696180555555556,-0.1987717013888889],[0.0024696180555555556,-0.1987717013888889],[0.0024696180555555556,-0.1987717013888889],[0.0024696180555555556,-0.1987717013888889],[0.0024696180555555556,-0.1987717013888889],[0.001579861111111111,-0.1987717013888889],[-0.0016927083333333334,-0.19631510416666667],[-0.007881944444444445,-0.18957899305555556],[-0.014652777777777778,-0.18125868055555555],[-0.025611979166666667,-0.16477430555555556],[-0.03278645833333333,-0.15278211805555555],[-0.04274739583333333,-0.13753038194444445],[-0.052087673611111114,-0.12507378472222222],[-0.06715277777777778,-0.10487847222222223],[-0.07355902777777777,-0.09457899305555556],[-0.08102864583333333,-0.08088541666666667],[-0.0885546875,-0.06708333333333333],[-0.09614583333333333,-0.053875868055555554],[-0.10309895833333334,-0.0428515625],[-0.10931423611111112,-0.03268663194444445],[-0.11771701388888889,-0.017760416666666667],[-0.12349392361111111,-0.007335069444444444],[-0.13186631944444444,0.006809895833333334],[-0.14190104166666667,0.01935329861111111],[-0.15231770833333333,0.030963541666666667],[-0.163515625,0.04153211805555555],[-0.1731206597222222,0.051740451388888886],[-0.18231336805555556,0.06275173611111111],[-0.18835069444444444,0.0720703125],[-0.1918402777777778,0.07838541666666667],[-0.19457899305555557,0.08432725694444444],[-0.19634114583333334,0.08959635416666667],[-0.19747395833333334,0.09260850694444445],[-0.19782118055555556,0.09516493055555555],[-0.19782118055555556,0.09608940972222223],[-0.19782118055555556,0.097421875],[-0.19782118055555556,0.0976953125],[-0.19782118055555556,0.09796875],[-0.19782118055555556,0.09853298611111111],[-0.19782118055555556,0.09880642361111111],[-0.19782118055555556,0.09907986111111111],[-0.19782118055555556,0.09935329861111111],[-0.19782118055555556,0.09962673611111111],[-0.19782118055555556,0.09990017361111111],[-0.19782118055555556,0.10019097222222222],[-0.19782118055555556,0.10075520833333333],[-0.19782118055555556,0.10133680555555556],[-0.19782118055555556,0.10161024305555555],[-0.19782118055555556,0.10161024305555555],[-0.19782118055555556,0.10187934027777777],[-0.19782118055555556,0.10215277777777777],[-0.19782118055555556,0.10271701388888889],[-0.19782118055555556,0.10299045138888889],[-0.19782118055555556,0.10326388888888889],[-0.19782118055555556,0.1035546875],[-0.19782118055555556,0.103828125],[-0.19782118055555556,0.103828125],[-0.19782118055555556,0.103828125],[-0.19837239583333333,0.103828125]],[[-0.0002951388888888889,-0.20199652777777777],[-0.0002951388888888889,-0.20199652777777777],[-0.0002951388888888889,-0.20199652777777777],[-0.0002951388888888889,-0.20199652777777777],[-0.0002951388888888889,-0.20199652777777777],[-0.0002951388888888889,-0.20199652777777777],[-0.0002951388888888889,-0.20199652777777777],[-0.0002951388888888889,-0.20199652777777777],[-0.0002951388888888889,-0.20199652777777777],[-0.0002951388888888889,-0.20199652777777777],[-0.0002951388888888889,-0.20121961805555555],[-0.0002951388888888889,-0.19752604166666668],[-0.0002951388888888889,-0.1921657986111111],[0.0032769097222222223,-0.17898871527777777],[0.008042534722222222,-0.16587239583333332],[0.012886284722222223,-0.15262586805555556],[0.018680555555555554,-0.13720052083333334],[0.023159722222222224,-0.12734375],[0.02961371527777778,-0.11244791666666666],[0.03312065972222222,-0.10441840277777778],[0.03710069444444444,-0.09694444444444444],[0.041245659722222223,-0.0881076388888889],[0.04457899305555556,-0.08131510416666667],[0.04798611111111111,-0.07401475694444444],[0.05012152777777778,-0.06931857638888889],[0.05169704861111111,-0.06574652777777777],[0.053198784722222225,-0.06272569444444444],[0.05476996527777778,-0.05915364583333333],[0.05595486111111111,-0.055611979166666665],[0.05670572916666667,-0.05259114583333333],[0.057456597222222225,-0.04950086805555556],[0.05820746527777778,-0.046475694444444444],[0.05896267361111111,-0.0434375],[0.060186631944444444,-0.039361979166666665],[0.06232204861111111,-0.03229600694444444],[0.06370225694444444,-0.026749131944444445],[0.06616319444444445,-0.01935763888888889],[0.06850694444444444,-0.012769097222222222],[0.07201388888888889,-0.0052430555555555555],[0.07615885416666666,0.00359375],[0.07894097222222222,0.012183159722222222],[0.08029079861111112,0.01754340277777778],[0.08276475694444445,0.024982638888888888],[0.08540364583333333,0.03027777777777778],[0.08859809027777778,0.035729166666666666],[0.09171440972222222,0.040616319444444444],[0.0948046875,0.04546875],[0.09733940972222223,0.050143229166666664],[0.09930121527777777,0.05368055555555556],[0.101875,0.0579296875],[0.10337239583333334,0.0609375],[0.10580295138888889,0.06460069444444444],[0.10736979166666667,0.06815538194444444],[0.1083984375,0.07023003472222222],[0.10946180555555556,0.07278211805555555],[0.11102864583333333,0.07633246527777778],[0.11253472222222222,0.07935763888888889],[0.11499131944444445,0.08345920138888889],[0.11770399305555555,0.08810329861111112],[0.11874131944444444,0.09019097222222222],[0.11940104166666667,0.09186631944444444],[0.1204123263888889,0.09355034722222222],[0.12180121527777778,0.09564236111111112],[0.12372395833333333,0.09833333333333333],[0.125234375,0.10137152777777778],[0.12674479166666666,0.10440538194444444],[0.12746527777777777,0.10696180555555555],[0.12819010416666668,0.10952690972222222],[0.1288498263888889,0.11119791666666666],[0.1288498263888889,0.11212239583333333],[0.12913628472222222,0.11241319444444445],[0.12913628472222222,0.11241319444444445],[0.12913628472222222,0.11241319444444445],[0.12913628472222222,0.11241319444444445]]]",2,"[68,74]",space,13.01624,space,1.54823,0,0,0,6,1,right_left_2.jpg,right_left_2_path.jpg,,,,,,,,,,,,,,,,
Image_List_3,,,,,,,,,,,,,,,,44235,2020-11-23_10h40.03.259,analogCatScenes,2020.1.3,MacIntel,60,"[1440,900]","[[[0.001775173611111111,-0.1922873263888889],[0.001775173611111111,-0.1922873263888889],[0.001775173611111111,-0.1922873263888889],[0.001775173611111111,-0.1922873263888889],[0.001775173611111111,-0.1922873263888889],[0.001775173611111111,-0.1922873263888889],[0.001775173611111111,-0.1922873263888889],[0.001775173611111111,-0.1922873263888889],[0.001775173611111111,-0.1922873263888889],[0.001775173611111111,-0.1922873263888889],[0.001775173611111111,-0.1922873263888889],[0.001775173611111111,-0.19177083333333333],[0.001775173611111111,-0.18819878472222223],[0.001775173611111111,-0.1834982638888889],[0.001775173611111111,-0.17741753472222221],[0.001775173611111111,-0.1700824652777778],[0.001775173611111111,-0.16274739583333334],[0.001775173611111111,-0.1539105902777778],[0.001775173611111111,-0.14585503472222222],[0.001775173611111111,-0.13977430555555556],[0.001775173611111111,-0.131171875],[0.001775173611111111,-0.12912760416666666],[0.001775173611111111,-0.12224826388888889],[0.001775173611111111,-0.11754774305555556],[0.001775173611111111,-0.11021267361111112],[0.001775173611111111,-0.10413194444444444],[0.001775173611111111,-0.09757378472222222],[0.00265625,-0.09161892361111111],[0.004162326388888889,-0.08416232638888889],[0.0059244791666666664,-0.07880208333333333],[0.006740451388888889,-0.07463541666666666],[0.007586805555555556,-0.06993489583333333],[0.008372395833333334,-0.06636284722222222],[0.009157986111111112,-0.06279079861111111],[0.009943576388888889,-0.05921875],[0.010729166666666666,-0.055646701388888886],[0.011514756944444444,-0.05207465277777778],[0.012300347222222223,-0.048502604166666664],[0.013081597222222222,-0.044939236111111114],[0.0138671875,-0.0413671875],[0.01424045138888889,-0.03834201388888889],[0.0149609375,-0.03578125],[0.0149609375,-0.033706597222222225],[0.0152734375,-0.03202690972222222],[0.0152734375,-0.030347222222222223],[0.0152734375,-0.029075520833333333],[0.015559895833333334,-0.02814670138888889],[0.015559895833333334,-0.027569444444444445],[0.015846354166666667,-0.026987847222222222],[0.015846354166666667,-0.025772569444444445],[0.0161328125,-0.024848090277777776],[0.01644965277777778,-0.02357204861111111],[0.016766493055555557,-0.022643229166666667],[0.01705295138888889,-0.021714409722222223],[0.017339409722222223,-0.021076388888888888],[0.017339409722222223,-0.020785590277777776],[0.017608506944444446,-0.02051215277777778],[0.017608506944444446,-0.02051215277777778],[0.017608506944444446,-0.02051215277777778],[0.01786892361111111,-0.02051215277777778],[0.018133680555555556,-0.02051215277777778],[0.018133680555555556,-0.02051215277777778],[0.018133680555555556,-0.020247395833333334],[0.018133680555555556,-0.01966579861111111],[0.018133680555555556,-0.01939236111111111],[0.018133680555555556,-0.0191015625],[0.018133680555555556,-0.0191015625],[0.018133680555555556,-0.0191015625],[0.018133680555555556,-0.018836805555555555],[0.018133680555555556,-0.018836805555555555],[0.017235243055555554,-0.018836805555555555]]]",1,[71],space,18.13454,space,1.921805,0,1,1,3,1,ahead_right_left_2.jpg,ahead_right_left_2_path.jpg,,,,,,,,,,,,,,,,
Image_List_3,,,,,,,,,,,,,,,,44235,2020-11-23_10h40.03.259,analogCatScenes,2020.1.3,MacIntel,60,"[1440,900]","[[[-0.004661458333333333,-0.19569444444444445],[-0.004661458333333333,-0.19569444444444445],[-0.004661458333333333,-0.19569444444444445],[-0.004661458333333333,-0.19569444444444445],[-0.004661458333333333,-0.19569444444444445],[-0.004661458333333333,-0.19569444444444445],[-0.004661458333333333,-0.19569444444444445],[-0.004661458333333333,-0.19569444444444445],[-0.004661458333333333,-0.19569444444444445],[-0.004661458333333333,-0.19569444444444445],[-0.004661458333333333,-0.19569444444444445],[-0.004661458333333333,-0.19569444444444445],[-0.004661458333333333,-0.19413194444444445],[-0.004661458333333333,-0.18996527777777777],[-0.004661458333333333,-0.1853298611111111],[-0.006501736111111111,-0.1803125],[-0.0087109375,-0.1750173611111111],[-0.013133680555555555,-0.16516493055555556],[-0.017348090277777777,-0.1556076388888889],[-0.02355902777777778,-0.14194444444444446],[-0.030347222222222223,-0.12835069444444444],[-0.036705729166666666,-0.11737847222222222],[-0.042816840277777775,-0.10791232638888888],[-0.05103298611111111,-0.09363715277777777],[-0.058576388888888886,-0.08322048611111112],[-0.06631944444444444,-0.07192708333333334],[-0.07464409722222222,-0.061228298611111114],[-0.08036458333333334,-0.05450520833333333],[-0.08702690972222223,-0.047000868055555554],[-0.0937890625,-0.04023871527777778],[-0.09845486111111111,-0.03463541666666667],[-0.10317708333333334,-0.02896701388888889],[-0.10819878472222222,-0.02193576388888889],[-0.11390190972222222,-0.014691840277777778],[-0.1194357638888889,-0.008602430555555556],[-0.124140625,-0.002955729166666667],[-0.12884114583333334,0.0026866319444444446],[-0.1330815972222222,0.008337673611111112],[-0.1377951388888889,0.013997395833333334],[-0.1424652777777778,0.019140625],[-0.14715711805555556,0.024769965277777778],[-0.15246961805555556,0.029670138888888888],[-0.15780381944444444,0.03459201388888889],[-0.16249131944444445,0.03927951388888889],[-0.16713975694444444,0.04438802083333333],[-0.1718185763888889,0.04953125],[-0.1770876736111111,0.05525173611111111],[-0.18080729166666668,0.06037760416666667],[-0.18611111111111112,0.06706597222222223],[-0.18845052083333333,0.0698046875],[-0.1897873263888889,0.07148871527777778],[-0.19147135416666666,0.07250868055555555],[-0.1931467013888889,0.07352430555555556],[-0.19523871527777778,0.07422743055555556],[-0.1973220486111111,0.0752734375],[-0.19825086805555556,0.07588541666666666],[-0.1988888888888889,0.07620659722222223],[-0.1991623263888889,0.07648003472222223],[-0.1991623263888889,0.07675347222222222],[-0.1991623263888889,0.07702256944444444],[-0.1991623263888889,0.07729600694444444],[-0.1991623263888889,0.07787760416666667],[-0.1991623263888889,0.07815104166666667],[-0.1991623263888889,0.07815104166666667],[-0.1991623263888889,0.0784201388888889],[-0.1991623263888889,0.0784201388888889],[-0.1991623263888889,0.0784201388888889]],[[-0.001857638888888889,-0.1955078125],[-0.001857638888888889,-0.1955078125],[-0.001857638888888889,-0.1955078125],[-0.001857638888888889,-0.1955078125],[-0.001857638888888889,-0.1955078125],[-0.001857638888888889,-0.1955078125],[-0.001857638888888889,-0.1955078125],[-0.001857638888888889,-0.1955078125],[-0.001857638888888889,-0.1955078125],[-0.001857638888888889,-0.1955078125],[0.002677951388888889,-0.1955078125],[0.008706597222222221,-0.1955078125],[0.019157986111111112,-0.1955078125],[0.03135850694444445,-0.1955078125],[0.04264756944444444,-0.194375],[0.053936631944444445,-0.1932421875],[0.06193576388888889,-0.1932421875],[0.07080729166666666,-0.1932421875],[0.07891493055555555,-0.1932421875],[0.0857421875,-0.1932421875],[0.09296875,-0.1932421875],[0.098828125,-0.1932421875],[0.10404513888888889,-0.1932421875],[0.11067274305555555,-0.1932421875],[0.1173046875,-0.19235677083333333],[0.12458767361111112,-0.19088541666666667],[0.13413194444444446,-0.1892925347222222],[0.1429296875,-0.1866840277777778],[0.15161892361111112,-0.18415364583333332],[0.16099392361111112,-0.18131510416666666],[0.16756944444444444,-0.17896267361111112],[0.1722612847222222,-0.17725260416666666],[0.17635416666666667,-0.17601996527777777],[0.17891059027777778,-0.17528645833333334],[0.1809939236111111,-0.17458333333333334],[0.18266927083333334,-0.17391059027777778],[0.1843359375,-0.1732421875],[0.18641927083333334,-0.1725390625],[0.1884939236111111,-0.17184027777777777],[0.19016927083333332,-0.1711675347222222],[0.19224826388888888,-0.17081597222222222],[0.19351128472222223,-0.17049479166666667],[0.19477864583333335,-0.17049479166666667],[0.19569010416666666,-0.17020399305555556],[0.1966015625,-0.17020399305555556],[0.19717447916666667,-0.17020399305555556],[0.19773871527777778,-0.17020399305555556],[0.19830729166666666,-0.17020399305555556],[0.19859375,-0.17020399305555556],[0.19886284722222222,-0.17020399305555556],[0.19886284722222222,-0.1688845486111111]]]",2,"[67,51]",space,6.279005,space,1.20968,0,2,2,4,1,left_2.jpg,left_2_path.jpg,,,,,,,,,,,,,,,,
Image_List_3,,,,,,,,,,,,,,,,44235,2020-11-23_10h40.03.259,analogCatScenes,2020.1.3,MacIntel,60,"[1440,900]","[[[0.0045703125,-0.1916753472222222],[0.0045703125,-0.1916753472222222],[0.0045703125,-0.1916753472222222],[0.0045703125,-0.1916753472222222],[0.0045703125,-0.1916753472222222],[0.0045703125,-0.1916753472222222],[0.0045703125,-0.1916753472222222],[0.0045703125,-0.1916753472222222],[0.0045703125,-0.1916753472222222],[0.0045703125,-0.1916753472222222],[0.0045703125,-0.1916753472222222],[0.007834201388888889,-0.1888628472222222],[0.018932291666666667,-0.17954427083333332],[0.035794270833333336,-0.1634201388888889],[0.05901909722222222,-0.14266059027777778],[0.08154947916666666,-0.12341145833333333],[0.09660590277777778,-0.10997395833333333],[0.11555121527777777,-0.09610243055555556],[0.13949652777777777,-0.07898003472222222],[0.14665364583333335,-0.07377170138888889],[0.17140190972222222,-0.05743923611111111],[0.18629340277777778,-0.04773871527777778],[0.20008680555555555,-0.04021267361111111],[0.21934895833333334,-0.03103732638888889],[0.23089409722222223,-0.027018229166666668],[0.24009114583333332,-0.023745659722222222],[0.24819878472222223,-0.021254340277777777],[0.2541145833333333,-0.019874131944444446],[0.25946180555555554,-0.018046875],[0.2654079861111111,-0.016215277777777776],[0.2714800347222222,-0.014383680555555556],[0.27739583333333334,-0.012560763888888889],[0.2809548611111111,-0.011354166666666667],[0.28303385416666665,-0.010655381944444445],[0.2839496527777778,-0.010368923611111112],[0.28561631944444443,-0.010368923611111112],[0.28774305555555557,-0.00967013888888889],[0.29028645833333333,-0.009292534722222223],[0.2928342013888889,-0.008563368055555555],[0.29450086805555553,-0.008563368055555555],[0.29541666666666666,-0.008563368055555555],[0.2963324652777778,-0.008563368055555555],[0.29690104166666664,-0.008563368055555555],[0.29845052083333334,-0.008563368055555555],[0.2993663194444444,-0.008563368055555555],[0.2999392361111111,-0.008272569444444445],[0.30022569444444447,-0.007690972222222222],[0.30022569444444447,-0.007109375],[0.30022569444444447,-0.006527777777777778],[0.30049479166666665,-0.006527777777777778],[0.30141493055555557,-0.006527777777777778],[0.30309027777777775,-0.006527777777777778],[0.3067751736111111,-0.006527777777777778],[0.30878038194444446,-0.006527777777777778]]]",1,[54],space,2.925955,space,0.86194,0,3,3,5,1,right_2.jpg,right_2_path.jpg,,,,,,,,,,,,,,,,
Image_List_3,,,,,,,,,,,,,,,,44235,2020-11-23_10h40.03.259,analogCatScenes,2020.1.3,MacIntel,60,"[1440,900]","[[[-0.0059375,-0.19549479166666667],[-0.0059375,-0.19549479166666667],[-0.0059375,-0.19549479166666667],[-0.0059375,-0.19549479166666667],[-0.0059375,-0.19549479166666667],[-0.0059375,-0.19549479166666667],[-0.0059375,-0.19549479166666667],[-0.0059375,-0.19549479166666667],[-0.0059375,-0.19549479166666667],[-0.0059375,-0.19497395833333334],[-0.0059375,-0.18763888888888888],[-0.003806423611111111,-0.17796006944444445],[0.000013020833333333334,-0.161875],[0.005399305555555556,-0.14366319444444445],[0.008888888888888889,-0.1321657986111111],[0.0128125,-0.1151171875],[0.016475694444444446,-0.10103298611111111],[0.019483506944444444,-0.08704427083333334],[0.0219140625,-0.07301649305555556],[0.024370659722222222,-0.058229166666666665],[0.025546875,-0.04524305555555556],[0.02669704861111111,-0.03309895833333333],[0.02669704861111111,-0.02267361111111111],[0.02669704861111111,-0.01228298611111111],[0.02669704861111111,-0.00017361111111111112],[0.02669704861111111,0.019561631944444446],[0.02669704861111111,0.033637152777777776],[0.02669704861111111,0.0458203125],[0.028172743055555557,0.052682291666666665],[0.02961371527777778,0.06001736111111111],[0.031206597222222222,0.0689453125],[0.03220486111111111,0.07700086805555556],[0.03421006944444444,0.08504774305555556],[0.03621527777777778,0.09310329861111111],[0.03759548611111111,0.09865017361111111],[0.03913194444444444,0.10635416666666667],[0.040125868055555555,0.11442274305555555],[0.041063368055555556,0.1210373263888889],[0.042322048611111114,0.12565104166666666],[0.043198784722222223,0.13094618055555557],[0.04401041666666667,0.1350390625],[0.045108506944444446,0.1375998263888889],[0.04580295138888889,0.13969184027777778],[0.04646267361111111,0.14137152777777778],[0.0475,0.1434592013888889],[0.04812934027777778,0.1447265625],[0.04875868055555556,0.14605902777777777],[0.04907552083333333,0.14698350694444445],[0.04935763888888889,0.1478515625],[0.04935763888888889,0.14842881944444444],[0.04935763888888889,0.14901041666666667],[0.04935763888888889,0.1495876736111111],[0.04935763888888889,0.14987847222222223],[0.04935763888888889,0.15044270833333334],[0.04935763888888889,0.15071614583333334],[0.04935763888888889,0.15071614583333334],[0.04935763888888889,0.15071614583333334],[0.04935763888888889,0.15071614583333334],[0.04935763888888889,0.15046006944444446]]]",1,[59],space,2.687575,space,0.696855,0,4,4,1,1,ahead_left_2.jpg,ahead_left_2_path.jpg,,,,,,,,,,,,,,,,
Image_List_3,,,,,,,,,,,,,,,,44235,2020-11-23_10h40.03.259,analogCatScenes,2020.1.3,MacIntel,60,"[1440,900]","[[[-0.003936631944444445,-0.19334635416666668],[-0.003936631944444445,-0.19334635416666668],[-0.003936631944444445,-0.19334635416666668],[-0.003936631944444445,-0.19334635416666668],[-0.003936631944444445,-0.19334635416666668],[-0.003936631944444445,-0.19334635416666668],[-0.003936631944444445,-0.19334635416666668],[-0.003936631944444445,-0.19334635416666668],[-0.003936631944444445,-0.19334635416666668],[-0.003936631944444445,-0.1905078125],[-0.003936631944444445,-0.18514756944444444],[-0.003936631944444445,-0.17703125],[-0.003936631944444445,-0.16601128472222224],[-0.003936631944444445,-0.1476953125],[-0.003936631944444445,-0.12747395833333333],[-0.003146701388888889,-0.10239149305555556],[-0.0010199652777777778,-0.06534288194444444],[0.0016927083333333334,-0.02730902777777778],[0.002560763888888889,0.010755208333333334],[0.0034331597222222224,0.04236979166666666],[0.0034331597222222224,0.060707465277777775],[0.0034331597222222224,0.08108940972222223],[0.0034331597222222224,0.099140625],[0.0028038194444444443,0.1227517361111111],[0.0028038194444444443,0.12835069444444444],[0.0028038194444444443,0.13851996527777777],[0.0028038194444444443,0.14262586805555555],[0.0028038194444444443,0.14564670138888888],[0.0032421875,0.14981336805555556],[0.004440104166666667,0.15338541666666666],[0.005720486111111111,0.15806423611111112],[0.007009548611111111,0.16276475694444445],[0.007795138888888889,0.16633680555555555],[0.008172743055555556,0.169375],[0.008550347222222223,0.17194010416666666],[0.008888888888888889,0.17401475694444443],[0.009236111111111112,0.17569444444444443],[0.009236111111111112,0.17627604166666666],[0.009522569444444445,0.17656684027777778],[0.009522569444444445,0.17656684027777778],[0.00978298611111111,0.17656684027777778],[0.00978298611111111,0.1759939236111111],[0.00978298611111111,0.175078125],[0.00978298611111111,0.17450520833333333]]]",1,[44],space,1.92461,space,0.5312,0,5,5,0,1,ahead_2.jpg,ahead_2_path.jpg,,,,,,,,,,,,,,,,
Image_List_3,,,,,,,,,,,,,,,,44235,2020-11-23_10h40.03.259,analogCatScenes,2020.1.3,MacIntel,60,"[1440,900]","[[[-0.0003949652777777778,-0.19754340277777777],[-0.0003949652777777778,-0.19754340277777777],[-0.0003949652777777778,-0.19754340277777777],[-0.0003949652777777778,-0.19754340277777777],[-0.0003949652777777778,-0.19754340277777777],[-0.0003949652777777778,-0.19754340277777777],[-0.0001388888888888889,-0.19754340277777777],[0.0059331597222222225,-0.19754340277777777],[0.019032118055555554,-0.19694444444444445],[0.03948350694444445,-0.19202256944444446],[0.06350260416666667,-0.18601128472222223],[0.0874609375,-0.17926649305555556],[0.1013454861111111,-0.17596788194444443],[0.11842447916666667,-0.1713671875],[0.1325,-0.16828993055555555],[0.14289496527777779,-0.16715711805555555],[0.14843315972222224,-0.16715711805555555],[0.15437065972222222,-0.16715711805555555],[0.15850694444444444,-0.16715711805555555],[0.16206163194444445,-0.16715711805555555],[0.16460069444444445,-0.16715711805555555],[0.1662717013888889,-0.16746961805555555],[0.16881944444444444,-0.16784288194444444],[0.17190538194444444,-0.1681857638888889],[0.1787673611111111,-0.1681857638888889],[0.1833810763888889,-0.1681857638888889],[0.18690104166666666,-0.1681857638888889],[0.18941840277777777,-0.1681857638888889],[0.19197482638888888,-0.1681857638888889],[0.19500434027777777,-0.1681857638888889],[0.19756076388888888,-0.1681857638888889],[0.20059027777777777,-0.1681857638888889],[0.2036111111111111,-0.1681857638888889],[0.20717447916666668,-0.1681857638888889],[0.21073784722222222,-0.16780381944444445],[0.21480034722222222,-0.16657552083333332],[0.2183637152777778,-0.16499565972222222],[0.22192708333333333,-0.16341145833333334],[0.2259765625,-0.16218315972222222],[0.23006076388888888,-0.16095486111111112],[0.2341579861111111,-0.16013020833333333],[0.2382248263888889,-0.1597222222222222],[0.24176649305555556,-0.15930989583333333],[0.24479166666666666,-0.15892795138888888],[0.24694010416666667,-0.15822482638888888],[0.24829427083333333,-0.15723958333333332],[0.24933159722222223,-0.15515625]],[[-0.0060546875,-0.19034288194444443],[-0.0060546875,-0.19034288194444443],[-0.0060546875,-0.19034288194444443],[-0.0060546875,-0.19034288194444443],[-0.0060546875,-0.19034288194444443],[-0.0060546875,-0.19034288194444443],[-0.0060546875,-0.19034288194444443],[-0.0060546875,-0.19034288194444443],[-0.0060546875,-0.1898220486111111],[-0.0060546875,-0.18499565972222223],[-0.0060546875,-0.17350260416666666],[-0.0060546875,-0.15313802083333333],[-0.0060546875,-0.12652777777777777],[-0.0060546875,-0.10621961805555556],[-0.0060546875,-0.08338541666666667],[-0.0060546875,-0.057669270833333335],[-0.0060546875,-0.03756944444444445],[-0.0060546875,-0.012686631944444445],[-0.0060546875,0.005703125],[-0.006553819444444445,0.019322916666666665],[-0.008285590277777777,0.030690104166666666],[-0.01001736111111111,0.03537760416666667],[-0.011354166666666667,0.037061631944444444],[-0.012625868055555555,0.03769965277777778],[-0.0135546875,0.038311631944444445],[-0.01482204861111111,0.03926215277777778],[-0.016219618055555555,0.041354166666666664],[-0.017608506944444446,0.043433159722222225],[-0.019223090277777778,0.04659722222222222],[-0.021202256944444445,0.04973524305555556],[-0.02357638888888889,0.05482638888888889],[-0.024739583333333332,0.05838107638888889],[-0.0259765625,0.062486979166666665],[-0.02638888888888889,0.06659288194444445],[-0.02638888888888889,0.0696310763888889],[-0.02638888888888889,0.07131510416666667],[-0.0266796875,0.07224392361111111],[-0.0266796875,0.07253472222222222],[-0.026953125,0.07282552083333334],[-0.027239583333333334,0.07282552083333334],[-0.027513020833333332,0.07282552083333334],[-0.027786458333333333,0.07282552083333334]]]",2,"[47,42]",space,5.413985,space,1.030995,0,6,6,2,1,ahead_right_2.jpg,ahead_right_2_path.jpg,,,,,,,,,,,,,,,,
Image_List_3,,,,,,,,,,,,,,,,44235,2020-11-23_10h40.03.259,analogCatScenes,2020.1.3,MacIntel,60,"[1440,900]","[[[0.005642361111111111,-0.19268663194444444],[0.005642361111111111,-0.19268663194444444],[0.005642361111111111,-0.19268663194444444],[0.005642361111111111,-0.19268663194444444],[0.005642361111111111,-0.19268663194444444],[0.005642361111111111,-0.19268663194444444],[0.005642361111111111,-0.19268663194444444],[0.005642361111111111,-0.19268663194444444],[0.005642361111111111,-0.19268663194444444],[0.005642361111111111,-0.19268663194444444],[0.005642361111111111,-0.19268663194444444],[0.005642361111111111,-0.19268663194444444],[0.005642361111111111,-0.19268663194444444],[0.005642361111111111,-0.19268663194444444],[0.008055555555555555,-0.1911935763888889],[0.013680555555555555,-0.18743489583333334],[0.02587673611111111,-0.1794314236111111],[0.04097222222222222,-0.17023871527777779],[0.054322916666666665,-0.1618967013888889],[0.07349392361111111,-0.14957899305555555],[0.09075086805555556,-0.13920572916666665],[0.10748697916666666,-0.12983072916666666],[0.12196614583333333,-0.12061197916666666],[0.13608506944444446,-0.11224392361111112],[0.1480034722222222,-0.1056857638888889],[0.1595703125,-0.09986979166666667],[0.17033420138888888,-0.09528211805555556],[0.17916232638888888,-0.0916623263888889],[0.18877170138888888,-0.08951822916666667],[0.1975998263888889,-0.08743923611111111],[0.20634114583333332,-0.08588541666666667],[0.21438802083333333,-0.084375],[0.22392795138888888,-0.08278211805555556],[0.23350694444444445,-0.0806467013888889],[0.24226996527777778,-0.07858072916666667],[0.24755208333333334,-0.07724392361111111],[0.2534765625,-0.07542100694444444],[0.25873263888888887,-0.07322482638888889],[0.26743489583333335,-0.07051649305555556],[0.26894965277777777,-0.07013454861111111],[0.2762847222222222,-0.06883680555555556],[0.2798480902777778,-0.06845486111111111],[0.28237413194444444,-0.06810329861111111],[0.28445746527777777,-0.06810329861111111],[0.2865407986111111,-0.06810329861111111],[0.2890972222222222,-0.06810329861111111],[0.2921267361111111,-0.06810329861111111],[0.29421006944444444,-0.06810329861111111],[0.2958810763888889,-0.06810329861111111],[0.29680121527777775,-0.06810329861111111],[0.29737413194444445,-0.06810329861111111],[0.2979470486111111,-0.06810329861111111],[0.2979470486111111,-0.06810329861111111],[0.29821180555555554,-0.06810329861111111],[0.29821180555555554,-0.06810329861111111],[0.29821180555555554,-0.06810329861111111],[0.29821180555555554,-0.06810329861111111],[0.29821180555555554,-0.06810329861111111],[0.29821180555555554,-0.06810329861111111],[0.29821180555555554,-0.06810329861111111],[0.29821180555555554,-0.06810329861111111],[0.29821180555555554,-0.06810329861111111],[0.2976302083333333,-0.06746527777777778],[0.2956597222222222,-0.06514756944444444]]]",1,[64],,,,,,,,,,,,space,2.648525,citystreet10.jpg,space,3.10911,0,0,0,28,1,churchInside1.jpg,dancestudio5.jpg,clothingstore5.jpg,bridalboutique2.jpg,,
Image_List_3,,,,,,,,,,,,,,,,44235,2020-11-23_10h40.03.259,analogCatScenes,2020.1.3,MacIntel,60,"[1440,900]","[[[0.0012239583333333334,-0.20276041666666667],[0.0012239583333333334,-0.20276041666666667],[0.0012239583333333334,-0.20276041666666667],[0.0012239583333333334,-0.20276041666666667],[0.0012239583333333334,-0.20276041666666667],[0.0012239583333333334,-0.20276041666666667],[0.0012239583333333334,-0.20276041666666667],[0.0012239583333333334,-0.20276041666666667],[0.0012239583333333334,-0.20276041666666667],[-0.0003385416666666667,-0.20276041666666667],[-0.004470486111111111,-0.20276041666666667],[-0.013285590277777778,-0.20276041666666667],[-0.022881944444444444,-0.20276041666666667],[-0.03593315972222222,-0.20276041666666667],[-0.05092881944444445,-0.20276041666666667],[-0.06588541666666667,-0.20276041666666667],[-0.0815234375,-0.20276041666666667],[-0.09637586805555555,-0.20276041666666667],[-0.10940972222222223,-0.20217013888888888],[-0.12397135416666667,-0.19879340277777777],[-0.1318967013888889,-0.19632378472222223],[-0.13913628472222223,-0.19342881944444446],[-0.14797309027777777,-0.1903125],[-0.15602864583333334,-0.18779513888888888],[-0.1648654513888889,-0.1852126736111111],[-0.17292100694444446,-0.18370225694444445],[-0.17774739583333332,-0.18322916666666667],[-0.18436197916666666,-0.1822829861111111],[-0.1903168402777778,-0.1813671875],[-0.1976519097222222,-0.18086371527777778],[-0.20235243055555555,-0.18042100694444443],[-0.20830729166666667,-0.18042100694444443],[-0.2129904513888889,-0.18001302083333334],[-0.21709635416666667,-0.17918836805555555],[-0.22065104166666666,-0.1783984375],[-0.2247092013888889,-0.17799479166666668],[-0.22828125,-0.17720052083333335],[-0.2318359375,-0.17679253472222223],[-0.2354079861111111,-0.17638020833333334],[-0.23950520833333333,-0.17596788194444443],[-0.24479600694444445,-0.17550347222222223],[-0.250703125,-0.17550347222222223],[-0.25723958333333335,-0.17550347222222223],[-0.26457465277777775,-0.17550347222222223],[-0.27065538194444444,-0.175],[-0.2773307291666667,-0.17455729166666667],[-0.2847309027777778,-0.1733203125],[-0.2868185763888889,-0.17262152777777778],[-0.2880902777777778,-0.17166666666666666],[-0.28866753472222223,-0.17108940972222222],[-0.2896267361111111,-0.17013020833333334]],[[0.00010850694444444444,-0.2029644097222222],[0.00010850694444444444,-0.2029644097222222],[0.00010850694444444444,-0.2029644097222222],[0.00010850694444444444,-0.2029644097222222],[0.00010850694444444444,-0.2029644097222222],[0.00010850694444444444,-0.2029644097222222],[0.00010850694444444444,-0.2029644097222222],[0.00010850694444444444,-0.2029644097222222],[0.00010850694444444444,-0.2029644097222222],[0.0036197916666666666,-0.2029644097222222],[0.01318576388888889,-0.2029644097222222],[0.039917534722222224,-0.2029644097222222],[0.05437065972222222,-0.2029644097222222],[0.0714453125,-0.2029644097222222],[0.08764756944444445,-0.2029644097222222],[0.1027560763888889,-0.2029644097222222],[0.1167578125,-0.2029644097222222],[0.1298654513888889,-0.2029644097222222],[0.13651475694444445,-0.2029644097222222],[0.14462239583333333,-0.2029644097222222],[0.15056857638888888,-0.2029644097222222],[0.15526041666666668,-0.2029644097222222],[0.15882378472222222,-0.2029644097222222],[0.16229600694444443,-0.2029644097222222],[0.165859375,-0.20337239583333333],[0.16992621527777776,-0.20418402777777778],[0.17348090277777778,-0.2045920138888889],[0.17756510416666665,-0.205],[0.18112847222222223,-0.20537760416666667],[0.1846875,-0.20537760416666667],[0.188203125,-0.20537760416666667],[0.19121527777777778,-0.20537760416666667],[0.19422743055555555,-0.20537760416666667],[0.19778211805555557,-0.20537760416666667],[0.2008029513888889,-0.20537760416666667],[0.20641059027777778,-0.20537760416666667],[0.21176215277777777,-0.20537760416666667],[0.21532552083333334,-0.20537760416666667],[0.22125434027777777,-0.20537760416666667],[0.22594618055555554,-0.20537760416666667],[0.23063802083333335,-0.20537760416666667],[0.23473524305555554,-0.20537760416666667],[0.23829427083333332,-0.20537760416666667],[0.24085069444444446,-0.20537760416666667],[0.24211371527777778,-0.2050607638888889],[0.24303385416666667,-0.20413194444444444],[0.24366753472222222,-0.2028559027777778]]]",2,"[51,47]",,,,,,,,,,,,,,church3.jpg,space,4.38275,0,1,1,25,1,campsite7.jpg,conference3.jpg,checkoutcounter2.jpg,botanicalGarden4.jpg,,
Image_List_3,,,,,,,,,,,,,,,,44235,2020-11-23_10h40.03.259,analogCatScenes,2020.1.3,MacIntel,60,"[1440,900]","[[[0.0014930555555555556,-0.1937109375],[0.0014930555555555556,-0.1937109375],[0.0014930555555555556,-0.1937109375],[0.0014930555555555556,-0.1937109375],[0.0014930555555555556,-0.1937109375],[0.0014930555555555556,-0.1937109375],[0.0014930555555555556,-0.1937109375],[0.0014930555555555556,-0.1937109375],[0.0014930555555555556,-0.1937109375],[0.0014930555555555556,-0.1937109375],[0.0014930555555555556,-0.1937109375],[0.0014930555555555556,-0.1925564236111111],[0.0014930555555555556,-0.18899739583333333],[0.0014930555555555556,-0.1849001736111111],[-0.0005251736111111111,-0.17678385416666667],[-0.0021180555555555558,-0.1673263888888889],[-0.0037890625,-0.15616753472222222],[-0.006128472222222223,-0.14411024305555556],[-0.00982638888888889,-0.12871527777777778],[-0.012912326388888888,-0.11399739583333333],[-0.016488715277777777,-0.1008810763888889],[-0.01900173611111111,-0.09319010416666666],[-0.023810763888888888,-0.07854166666666666],[-0.026705729166666668,-0.0722265625],[-0.02944878472222222,-0.0662717013888889],[-0.03278645833333333,-0.06009982638888889],[-0.035555555555555556,-0.05506510416666666],[-0.03868055555555556,-0.05017795138888889],[-0.04154947916666667,-0.04649739583333334],[-0.04392361111111111,-0.0437109375],[-0.04638454861111111,-0.0404296875],[-0.04837673611111111,-0.037265625],[-0.04994357638888889,-0.03373263888888889],[-0.051145833333333335,-0.030169270833333334],[-0.051909722222222225,-0.027135416666666665],[-0.053046875,-0.02411458333333333],[-0.054214409722222225,-0.020572916666666666],[-0.05629774305555556,-0.01640625],[-0.0584765625,-0.011584201388888889],[-0.06051649305555556,-0.007504340277777778],[-0.062135416666666665,-0.003463541666666667],[-0.06418402777777778,0.0002126736111111111],[-0.06575520833333333,0.003754340277777778],[-0.06922309027777777,0.010746527777777778],[-0.06960069444444444,0.012243923611111112],[-0.07171440972222222,0.018975694444444444],[-0.07299045138888889,0.023619791666666667],[-0.07375434027777777,0.02665798611111111],[-0.0741015625,0.028741319444444444],[-0.07476996527777778,0.030421006944444443],[-0.0750607638888889,0.03134982638888889],[-0.0753515625,0.031931423611111114],[-0.07564236111111111,0.03222222222222222],[-0.07591579861111111,0.032513020833333336],[-0.07620659722222223,0.032513020833333336],[-0.07648003472222223,0.032803819444444444],[-0.07677083333333333,0.03309027777777778],[-0.07677083333333333,0.03337673611111111],[-0.07677083333333333,0.03365017361111111],[-0.07677083333333333,0.03365017361111111]],[[0.0036024305555555558,-0.20396267361111112],[0.0036024305555555558,-0.20396267361111112],[0.0036024305555555558,-0.20396267361111112],[0.0036024305555555558,-0.20396267361111112],[0.0036024305555555558,-0.20396267361111112],[0.0036024305555555558,-0.20396267361111112],[0.0036024305555555558,-0.20396267361111112],[0.0036024305555555558,-0.20396267361111112],[0.0036024305555555558,-0.20396267361111112],[0.0049175347222222224,-0.20316840277777778],[0.013953993055555556,-0.19583767361111112],[0.03015625,-0.1824435763888889],[0.051909722222222225,-0.16613715277777777],[0.08554253472222222,-0.1426171875],[0.10662760416666667,-0.13059895833333332],[0.12235677083333334,-0.12233940972222222],[0.1402734375,-0.11406684027777778],[0.1560329861111111,-0.10749131944444444],[0.170234375,-0.10193576388888889],[0.18328559027777777,-0.09778211805555556],[0.19369791666666666,-0.09446180555555556],[0.2032421875,-0.09180555555555556],[0.21184461805555554,-0.09019965277777778],[0.21719618055555556,-0.0897265625],[0.22247829861111112,-0.08928385416666666],[0.22914496527777778,-0.08878038194444444],[0.23509114583333332,-0.08833767361111111],[0.24235677083333335,-0.0878342013888889],[0.24964409722222222,-0.08639756944444445],[0.25494357638888887,-0.08546440972222222],[0.2602300347222222,-0.08457899305555555],[0.26548177083333335,-0.08326388888888889],[0.2714887152777778,-0.08185763888888889],[0.27741319444444446,-0.08049913194444444],[0.2847135416666667,-0.0788064236111111],[0.2873177083333333,-0.07836805555555555],[0.2919791666666667,-0.07796006944444445],[0.29759114583333335,-0.07754774305555556],[0.30061631944444445,-0.07716579861111111],[0.3041753472222222,-0.07678385416666667],[0.3077387152777778,-0.07598958333333333],[0.3102951388888889,-0.07563802083333333],[0.3115625,-0.07531684027777778],[0.31213541666666667,-0.07502604166666667],[0.3127083333333333,-0.07473524305555555],[0.3127083333333333,-0.073828125],[0.3127083333333333,-0.07289930555555556]]]",2,"[60,47]",,,,,,,,,,,,,,frontLawn3.jpg,space,4.00182,0,2,2,53,1,gazebo3.jpg,homeoffice.jpg,homegarage3.jpg,fountain.jpg,,
Image_List_3,,,,,,,,,,,,,,,,44235,2020-11-23_10h40.03.259,analogCatScenes,2020.1.3,MacIntel,60,"[1440,900]","[[[0.00042100694444444444,-0.19686631944444444],[0.00042100694444444444,-0.19686631944444444],[0.00042100694444444444,-0.19686631944444444],[0.00042100694444444444,-0.19686631944444444],[0.00042100694444444444,-0.19686631944444444],[0.00042100694444444444,-0.19686631944444444],[0.00042100694444444444,-0.19686631944444444],[0.00042100694444444444,-0.19686631944444444],[0.00042100694444444444,-0.19686631944444444],[0.00042100694444444444,-0.19686631944444444],[0.00042100694444444444,-0.19686631944444444],[0.00042100694444444444,-0.19686631944444444],[0.00042100694444444444,-0.19686631944444444],[0.00042100694444444444,-0.19686631944444444],[0.00042100694444444444,-0.19686631944444444],[0.00042100694444444444,-0.19686631944444444],[0.00042100694444444444,-0.19686631944444444],[0.003125,-0.1945920138888889],[0.00578125,-0.19262152777777777],[0.01017795138888889,-0.18909722222222222],[0.013984375,-0.18612413194444444],[0.019674479166666668,-0.18186631944444445],[0.024071180555555554,-0.1783420138888889],[0.027747395833333334,-0.17588541666666666],[0.03323350694444444,-0.17165364583333334],[0.03578125,-0.17019965277777777],[0.03745659722222222,-0.16921006944444444],[0.03913194444444444,-0.1678732638888889],[0.042287326388888886,-0.16588107638888888],[0.04506510416666667,-0.16350694444444444],[0.047838541666666665,-0.16113715277777776],[0.04967013888888889,-0.15894965277777778],[0.05099826388888889,-0.157265625],[0.05203993055555556,-0.1551736111111111],[0.053020833333333336,-0.15348958333333335],[0.05365017361111111,-0.15221788194444444],[0.05399305555555556,-0.15053819444444444],[0.05430989583333334,-0.14926215277777777],[0.05430989583333334,-0.14798611111111112],[0.05430989583333334,-0.14544270833333334],[0.05430989583333334,-0.1424045138888889],[0.05430989583333334,-0.13833333333333334],[0.05430989583333334,-0.13478732638888888],[0.05390625,-0.13072048611111112],[0.05262586805555555,-0.12606336805555557],[0.05130208333333333,-0.12080729166666666],[0.050486111111111114,-0.11670138888888888],[0.04913628472222222,-0.11137586805555555],[0.04780815972222222,-0.10608072916666667],[0.04575520833333333,-0.09995659722222222],[0.04440104166666667,-0.09462673611111111],[0.043580729166666665,-0.09048177083333334],[0.042287326388888886,-0.08579427083333334],[0.04102430555555556,-0.08163628472222222],[0.040230034722222224,-0.07806423611111112],[0.039088541666666664,-0.07502604166666667],[0.037821180555555556,-0.070859375],[0.03737847222222222,-0.0655642361111111],[0.03696614583333333,-0.06020399305555556],[0.0365234375,-0.05490885416666667],[0.0365234375,-0.05080295138888889],[0.0365234375,-0.04723090277777778],[0.0365234375,-0.044205729166666666],[0.0365234375,-0.042113715277777776],[0.0365234375,-0.03955295138888889],[0.03614149305555556,-0.03651909722222222],[0.035698784722222224,-0.03183159722222222],[0.03522569444444444,-0.027005208333333332],[0.03522569444444444,-0.022838541666666667],[0.03522569444444444,-0.018780381944444445],[0.03522569444444444,-0.015225694444444444],[0.03522569444444444,-0.012196180555555556],[0.03487413194444444,-0.010112847222222223],[0.03487413194444444,-0.0065147569444444445],[0.03487413194444444,-0.0017100694444444444],[0.03487413194444444,0.0019835069444444444],[0.03487413194444444,0.006072048611111111],[0.03487413194444444,0.009110243055555555],[0.035629340277777775,0.012144097222222223],[0.03641493055555556,0.015716145833333334],[0.037578125,0.019283854166666666],[0.03836371527777778,0.022855902777777777],[0.039088541666666664,0.025421006944444446],[0.03971788194444444,0.026692708333333332],[0.04003472222222222,0.02796875],[0.04003472222222222,0.02924045138888889],[0.04003472222222222,0.030516493055555555],[0.0403515625,0.031788194444444445],[0.0403515625,0.0338671875],[0.04066840277777778,0.035143229166666665],[0.04066840277777778,0.036822916666666664],[0.04066840277777778,0.038098958333333335],[0.041015625,0.039778645833333334],[0.04133246527777778,0.04105034722222222],[0.04133246527777778,0.041627604166666665],[0.04133246527777778,0.04220486111111111],[0.04133246527777778,0.042782118055555554],[0.04133246527777778,0.043359375],[0.04076822916666667,0.04392361111111111],[0.04018663194444445,0.04450520833333333],[0.04018663194444445,0.04450520833333333]]]",1,[101],,,,,,,,,,,,,,bambooforest5.jpg,space,3.220935,0,3,3,12,1,baggageClaim4.jpg,bedroom6.jpg,bleachers7.jpg,backyard5.jpg,,
Image_List_3,,,,,,,,,,,,,,,,44235,2020-11-23_10h40.03.259,analogCatScenes,2020.1.3,MacIntel,60,"[1440,900]","[[[-0.0025911458333333333,-0.19983506944444446],[-0.0025911458333333333,-0.19983506944444446],[-0.0025911458333333333,-0.19983506944444446],[-0.0025911458333333333,-0.19983506944444446],[-0.0025911458333333333,-0.19983506944444446],[-0.0025911458333333333,-0.19983506944444446],[-0.0025911458333333333,-0.19983506944444446],[-0.0025911458333333333,-0.19983506944444446],[-0.0025911458333333333,-0.19983506944444446],[-0.0025911458333333333,-0.19983506944444446],[-0.0025911458333333333,-0.19983506944444446],[-0.0025911458333333333,-0.19983506944444446],[-0.0025911458333333333,-0.19983506944444446],[-0.0025911458333333333,-0.19983506944444446],[-0.0025911458333333333,-0.19983506944444446],[-0.0025911458333333333,-0.19983506944444446],[-0.0025911458333333333,-0.19983506944444446],[-0.0025911458333333333,-0.19983506944444446],[-0.0015581597222222223,-0.19983506944444446],[0.003103298611111111,-0.19813802083333334],[0.01041232638888889,-0.1952170138888889],[0.01924045138888889,-0.19106336805555554],[0.028059895833333334,-0.18741753472222222],[0.034131944444444444,-0.18467447916666666],[0.04024305555555555,-0.18184027777777778],[0.045321180555555556,-0.17908854166666666],[0.04787326388888889,-0.17797743055555557],[0.0504296875,-0.17686631944444445],[0.05298611111111111,-0.1754079861111111],[0.05667100694444444,-0.1737326388888889],[0.060360243055555554,-0.1712673611111111],[0.06445746527777778,-0.16921006944444444],[0.06854600694444445,-0.16715711805555555],[0.07264322916666667,-0.1650998263888889],[0.07858940972222223,-0.16235677083333333],[0.08387586805555555,-0.16014756944444444],[0.08912326388888889,-0.15751736111111111],[0.09327256944444444,-0.15543836805555555],[0.09855902777777778,-0.15322916666666667],[0.10325086805555556,-0.15067274305555556],[0.10734809027777778,-0.14861545138888888],[0.11202256944444444,-0.14647569444444444],[0.11611979166666667,-0.1444184027777778],[0.12021701388888889,-0.1423611111111111],[0.124375,-0.14071614583333333],[0.1284722222222222,-0.13906684027777777],[0.13161458333333334,-0.1374609375],[0.13520399305555555,-0.13565538194444443],[0.1358376736111111,-0.13533420138888888],[0.1371050347222222,-0.13469184027777778],[0.13831163194444446,-0.13437065972222223],[0.13923177083333332,-0.13404947916666668],[0.14014756944444445,-0.1337326388888889],[0.14106770833333335,-0.13344184027777778],[0.14163628472222223,-0.13344184027777778],[0.1422092013888889,-0.13315104166666666],[0.14312934027777777,-0.13315104166666666],[0.14370225694444444,-0.13286024305555555],[0.14462239583333333,-0.1325390625],[0.14553819444444444,-0.13224826388888888],[0.1461111111111111,-0.13195746527777777],[0.14668402777777778,-0.13195746527777777],[0.14725694444444445,-0.13166666666666665],[0.1478298611111111,-0.13166666666666665],[0.14811631944444445,-0.13166666666666665],[0.1483810763888889,-0.13166666666666665],[0.1483810763888889,-0.13137586805555557],[0.1483810763888889,-0.13137586805555557],[0.14864149305555555,-0.13137586805555557],[0.14864149305555555,-0.13137586805555557],[0.14864149305555555,-0.13137586805555557],[0.14890190972222223,-0.13137586805555557],[0.14890190972222223,-0.13137586805555557],[0.14890190972222223,-0.13137586805555557],[0.14890190972222223,-0.13137586805555557],[0.14890190972222223,-0.13111111111111112],[0.14890190972222223,-0.13055121527777777]]]",1,[77],,,,,,,,,,,,,,beach2.jpg,space,2.781395,0,4,4,13,1,balconyIN2.jpg,bowlingalley3.jpg,boardwalk4.jpg,backyard6.jpg,,
Image_List_3,,,,,,,,,,,,,,,,44235,2020-11-23_10h40.03.259,analogCatScenes,2020.1.3,MacIntel,60,"[1440,900]","[[[-0.0032769097222222223,-0.1965234375],[-0.0032769097222222223,-0.1965234375],[-0.0032769097222222223,-0.1965234375],[-0.0032769097222222223,-0.1965234375],[-0.0032769097222222223,-0.1965234375],[-0.0032769097222222223,-0.1965234375],[-0.0032769097222222223,-0.1965234375],[-0.0032769097222222223,-0.1965234375],[-0.0032769097222222223,-0.1965234375],[-0.0032769097222222223,-0.1965234375],[-0.0032769097222222223,-0.1965234375],[-0.0032769097222222223,-0.1965234375],[-0.0032769097222222223,-0.1965234375],[-0.0032769097222222223,-0.1965234375],[-0.0032769097222222223,-0.1965234375],[-0.0032769097222222223,-0.19626302083333333],[-0.002903645833333333,-0.19457899305555557],[-0.0005078125,-0.19173177083333334],[0.0038585069444444444,-0.1864236111111111],[0.008090277777777778,-0.18077256944444445],[0.014752604166666667,-0.17187934027777776],[0.021653645833333332,-0.1609375],[0.0289453125,-0.14814670138888889],[0.035316840277777775,-0.13713541666666668],[0.039427083333333335,-0.12837239583333335],[0.04241319444444445,-0.120390625],[0.04447916666666667,-0.11157118055555555],[0.046644965277777777,-0.09630208333333333],[0.048394097222222224,-0.08338541666666667],[0.04958333333333333,-0.07026909722222222],[0.05077256944444444,-0.057152777777777775],[0.05189236111111111,-0.04590711805555556],[0.05248697916666667,-0.03369791666666667],[0.05385416666666667,-0.014401041666666666],[0.05438368055555556,-0.0020833333333333333],[0.05503472222222222,0.013949652777777778],[0.05503472222222222,0.023780381944444446],[0.05503472222222222,0.033394097222222224],[0.05503472222222222,0.039986979166666665],[0.05256510416666667,0.048012152777777775],[0.05021701388888889,0.054565972222222224],[0.047039930555555554,0.06407986111111111],[0.043233506944444444,0.07447482638888889],[0.04006076388888889,0.083984375],[0.038237847222222225,0.09029513888888889],[0.03607204861111111,0.09835069444444444],[0.03305989583333333,0.10663194444444445],[0.03173611111111111,0.11144097222222223],[0.029544270833333334,0.11669270833333334],[0.027335069444444443,0.12198784722222222],[0.02535590277777778,0.1255295138888889],[0.023363715277777777,0.1291015625],[0.01904513888888889,0.13516927083333333],[0.015807291666666667,0.14031684027777777],[0.013172743055555556,0.14558159722222222],[0.010520833333333333,0.14993489583333333],[0.007109375,0.15721788194444444],[0.0032942708333333335,0.16263454861111112],[0.00001736111111111111,0.16767795138888889],[-0.004110243055555555,0.1722482638888889],[-0.008363715277777777,0.17791666666666667],[-0.0126171875,0.18311197916666666],[-0.0162109375,0.18711805555555555],[-0.019700520833333332,0.19148003472222222],[-0.024479166666666666,0.19669704861111112],[-0.0280078125,0.2011111111111111],[-0.031649305555555556,0.2061328125],[-0.0346484375,0.20998697916666667],[-0.03859375,0.21394097222222222],[-0.04240451388888889,0.21732204861111112],[-0.04564670138888889,0.21975260416666667],[-0.048828125,0.2221137152777778],[-0.05197048611111111,0.22409722222222223],[-0.05510850694444445,0.2260763888888889],[-0.05814670138888889,0.2275954861111111],[-0.06223090277777778,0.2290581597222222],[-0.06479600694444444,0.22979166666666667],[-0.066953125,0.23011284722222222],[-0.06863715277777778,0.23046440972222224],[-0.06956597222222222,0.23075520833333332],[-0.06983940972222222,0.23075520833333332],[-0.06983940972222222,0.23075520833333332],[-0.06983940972222222,0.23075520833333332],[-0.0695529513888889,0.23101996527777777],[-0.06740885416666667,0.23133680555555555]]]",1,[85],,,,,,,,,,,,,,staircase4.jpg,space,2.86724,0,5,5,93,1,tollbooth8.jpg,volleyballcourt4.jpg,warehouseoutside2.jpg,tenniscourt.jpg,,
Image_List_3,,,,,,,,,,,,,,,,44235,2020-11-23_10h40.03.259,analogCatScenes,2020.1.3,MacIntel,60,"[1440,900]","[[[0.0009288194444444445,-0.2002951388888889],[0.0009288194444444445,-0.2002951388888889],[0.0009288194444444445,-0.2002951388888889],[0.0009288194444444445,-0.2002951388888889],[0.0009288194444444445,-0.2002951388888889],[0.0009288194444444445,-0.2002951388888889],[0.0009288194444444445,-0.2002951388888889],[0.0009288194444444445,-0.2002951388888889],[0.0009288194444444445,-0.2002951388888889],[0.0009288194444444445,-0.2002951388888889],[0.0009288194444444445,-0.2002951388888889],[0.0009288194444444445,-0.2002951388888889],[0.0009288194444444445,-0.2002951388888889],[0.0009288194444444445,-0.2002951388888889],[0.0009288194444444445,-0.19874565972222222],[0.0009288194444444445,-0.19549479166666667],[0.0009288194444444445,-0.19083333333333333],[0.0009288194444444445,-0.1794704861111111],[0.0009288194444444445,-0.16985243055555554],[0.0009288194444444445,-0.16102864583333334],[-0.00014756944444444445,-0.15141059027777778],[-0.00171875,-0.14263020833333334],[-0.0032769097222222223,-0.1338671875],[-0.006046006944444444,-0.12340711805555556],[-0.008815104166666667,-0.11294704861111111],[-0.011245659722222223,-0.10608506944444444],[-0.014409722222222223,-0.0975998263888889],[-0.018090277777777778,-0.08864149305555556],[-0.021206597222222224,-0.0798046875],[-0.024483506944444445,-0.06941840277777778],[-0.027248263888888888,-0.05897135416666666],[-0.029583333333333333,-0.052890625],[-0.031875,-0.04697048611111111],[-0.034014756944444446,-0.04228298611111111],[-0.03553385416666666,-0.03924479166666667],[-0.037682291666666666,-0.034544270833333335],[-0.039878472222222225,-0.02927517361111111],[-0.041527777777777775,-0.025638020833333334],[-0.043506944444444445,-0.02209201388888889],[-0.045434027777777775,-0.01940972222222222],[-0.047274305555555556,-0.017222222222222222],[-0.048602430555555555,-0.015546875],[-0.05036892361111111,-0.012369791666666666],[-0.05151041666666667,-0.009331597222222222],[-0.05259114583333333,-0.006766493055555556],[-0.053671875,-0.004201388888888889],[-0.05471788194444444,-0.0021180555555555558],[-0.05576822916666667,-0.00002604166666666667],[-0.05650173611111111,0.0025390625],[-0.057955729166666664,0.005099826388888889],[-0.0594140625,0.007664930555555556],[-0.06046440972222222,0.009756944444444445],[-0.06180121527777778,0.011440972222222222],[-0.0628125,0.013111979166666666],[-0.06383246527777778,0.014796006944444445],[-0.06484375,0.016471354166666667],[-0.06551649305555556,0.018155381944444444],[-0.06618489583333333,0.019835069444444443],[-0.06650607638888889,0.021111111111111112],[-0.066796875,0.022039930555555556],[-0.06708333333333333,0.0226171875],[-0.06708333333333333,0.022890625],[-0.06708333333333333,0.022890625],[-0.06708333333333333,0.022890625],[-0.06708333333333333,0.022890625],[-0.06708333333333333,0.022890625],[-0.06708333333333333,0.022890625],[-0.06708333333333333,0.022890625]]]",1,[68],,,,,,,,,,,,,,cafeteria1.jpg,space,4.70056,0,6,6,19,1,boardwalk2.jpg,casino3.jpg,castle4.jpg,basketballcourt.jpg,,
Image_List_3,,,,,,,,,,,,,,,,44235,2020-11-23_10h40.03.259,analogCatScenes,2020.1.3,MacIntel,60,"[1440,900]","[[[0.0019140625,-0.1980078125],[0.0019140625,-0.1980078125],[0.0019140625,-0.1980078125],[0.0019140625,-0.1980078125]]]",1,[4],,,,,,,,,,,,,,golfcourse10.jpg,space,3.314615,0,7,7,56,1,grocerystore5.jpg,hut3.jpg,hut1.jpg,gasstation2.jpg,,
Image_List_3,,,,,,,,,,,,,,,,44235,2020-11-23_10h40.03.259,analogCatScenes,2020.1.3,MacIntel,60,"[1440,900]","[[[0.0027473958333333335,-0.20446180555555554],[0.0027473958333333335,-0.20446180555555554],[0.0027473958333333335,-0.20446180555555554],[0.0027473958333333335,-0.20446180555555554],[0.0027473958333333335,-0.20446180555555554],[0.0027473958333333335,-0.20446180555555554],[0.0027473958333333335,-0.20446180555555554],[0.0027473958333333335,-0.20446180555555554],[0.0027473958333333335,-0.20368489583333332],[0.0027473958333333335,-0.19957899305555554],[0.0027473958333333335,-0.19296440972222223],[0.0065060763888888885,-0.17766059027777778],[0.00935763888888889,-0.16781684027777777],[0.013519965277777778,-0.15472222222222223],[0.017213541666666665,-0.14063802083333332],[0.020282118055555555,-0.12655381944444444],[0.024032118055555555,-0.10397569444444445],[0.025828993055555555,-0.09090277777777778],[0.027439236111111112,-0.08179253472222223],[0.02796875,-0.0770138888888889],[0.028467881944444443,-0.06637152777777777],[0.02947048611111111,-0.058259548611111114],[0.030503472222222223,-0.049301215277777775],[0.03275607638888889,-0.03801649305555556],[0.03571614583333333,-0.024952256944444445],[0.038723958333333336,-0.0119921875],[0.040164930555555554,-0.005316840277777778],[0.042356770833333335,0.004361979166666667],[0.04470920138888889,0.010959201388888888],[0.046783854166666666,0.015125868055555556],[0.049991319444444446,0.02060763888888889],[0.05253038194444445,0.025286458333333334],[0.0564453125,0.03208767361111111],[0.06032986111111111,0.03842881944444444],[0.06535590277777778,0.04547743055555555],[0.07194878472222223,0.05374131944444444],[0.07569010416666666,0.05891059027777778],[0.07935763888888889,0.064375],[0.08247395833333333,0.06926215277777778],[0.08516927083333334,0.07412760416666667],[0.08828559027777778,0.07901475694444444],[0.09161458333333333,0.08518663194444444],[0.09736979166666666,0.09480902777777778],[0.10078993055555556,0.10162760416666666],[0.1029470486111111,0.10642361111111111],[0.10470052083333334,0.11169704861111111],[0.10554253472222222,0.1163671875],[0.10631944444444444,0.1199001736111111],[0.10631944444444444,0.1219921875],[0.10631944444444444,0.12408420138888888],[0.10631944444444444,0.12617621527777778],[0.10631944444444444,0.1287326388888889],[0.10631944444444444,0.13129774305555555],[0.10631944444444444,0.13338541666666667],[0.10596788194444444,0.13506944444444444],[0.10596788194444444,0.13715711805555555],[0.10596788194444444,0.13884114583333335],[0.10596788194444444,0.14093315972222223],[0.10596788194444444,0.1426171875],[0.10596788194444444,0.144296875],[0.10596788194444444,0.14557291666666666],[0.10628472222222222,0.14684895833333333],[0.10688368055555555,0.1477734375],[0.10745225694444445,0.14835069444444443],[0.10776909722222222,0.14927517361111112],[0.10805555555555556,0.14985677083333335],[0.1083420138888889,0.15043402777777778],[0.10862413194444444,0.1507248263888889],[0.10862413194444444,0.1507248263888889],[0.10862413194444444,0.1509939236111111],[0.10889322916666666,0.1512673611111111],[0.1091796875,0.15183159722222223],[0.10944878472222222,0.15183159722222223],[0.10944878472222222,0.15183159722222223],[0.10944878472222222,0.15183159722222223],[0.10970920138888889,0.15183159722222223],[0.10970920138888889,0.15183159722222223],[0.10970920138888889,0.15183159722222223],[0.10970920138888889,0.15183159722222223],[0.10970920138888889,0.15183159722222223],[0.10970920138888889,0.15183159722222223],[0.10970920138888889,0.15183159722222223],[0.10970920138888889,0.15183159722222223],[0.10970920138888889,0.15183159722222223],[0.10970920138888889,0.15183159722222223],[0.10970920138888889,0.15183159722222223],[0.10970920138888889,0.15183159722222223],[0.10970920138888889,0.15183159722222223],[0.10970920138888889,0.15183159722222223],[0.10970920138888889,0.15183159722222223],[0.10970920138888889,0.15183159722222223],[0.10970920138888889,0.15183159722222223],[0.10970920138888889,0.15209201388888888],[0.10970920138888889,0.1523611111111111],[0.10970920138888889,0.15328993055555556]]]",1,[95],,,,,,,,,,,,,,dugout2.jpg,space,4.933325,0,8,8,43,1,exerciseequipment5.jpg,forestpath10.jpg,foodcourt.jpg,diningroom3.jpg,,
Image_List_3,,,,,,,,,,,,,,,,44235,2020-11-23_10h40.03.259,analogCatScenes,2020.1.3,MacIntel,60,"[1440,900]","[[[0.001427951388888889,-0.20094184027777778],[0.001427951388888889,-0.20094184027777778],[0.001427951388888889,-0.20094184027777778],[0.001427951388888889,-0.20094184027777778],[0.001427951388888889,-0.20094184027777778],[0.001427951388888889,-0.20094184027777778],[0.001427951388888889,-0.20094184027777778],[0.001427951388888889,-0.20094184027777778],[0.001427951388888889,-0.20094184027777778],[0.001427951388888889,-0.20094184027777778],[0.001427951388888889,-0.20094184027777778],[0.0029861111111111113,-0.20094184027777778],[0.008932291666666667,-0.20094184027777778],[0.020464409722222222,-0.20094184027777778],[0.03546440972222222,-0.20094184027777778],[0.05366753472222222,-0.20366319444444445],[0.07411892361111111,-0.20647569444444444],[0.08958333333333333,-0.20842881944444444],[0.10876302083333333,-0.2105078125],[0.135625,-0.21291232638888888],[0.15121961805555556,-0.21362847222222223],[0.1693185763888889,-0.21362847222222223],[0.1864279513888889,-0.21362847222222223],[0.20143229166666668,-0.21174913194444445],[0.21262586805555556,-0.20838541666666666],[0.2222222222222222,-0.20463975694444445],[0.2278732638888889,-0.20140190972222222],[0.23487413194444445,-0.19712673611111112],[0.23943576388888888,-0.19299913194444446],[0.2422829861111111,-0.19013454861111112],[0.24424913194444445,-0.18699652777777778],[0.24737413194444444,-0.17830729166666667],[0.24913194444444445,-0.17185329861111112],[0.25201388888888887,-0.15296006944444446],[0.2546440972222222,-0.1358420138888889],[0.2558940972222222,-0.12078993055555555],[0.2558940972222222,-0.10670572916666667],[0.2558940972222222,-0.0945095486111111],[0.2558940972222222,-0.08042534722222222],[0.2518229166666667,-0.06361979166666666],[0.24780815972222223,-0.045538194444444444],[0.24219184027777776,-0.026297743055555555],[0.23628472222222222,-0.0092578125],[0.23049913194444444,0.0061328125],[0.2228515625,0.02962673611111111],[0.21506510416666666,0.0494140625],[0.20570746527777778,0.0695703125],[0.19874565972222222,0.08361979166666667],[0.1915017361111111,0.09941840277777778],[0.1873263888888889,0.11253472222222222],[0.18541232638888888,0.1299001736111111],[0.18541232638888888,0.14145399305555556],[0.18541232638888888,0.15529513888888888],[0.18541232638888888,0.16750434027777777],[0.18496961805555556,0.1734592013888889],[0.1845876736111111,0.1798003472222222],[0.1845876736111111,0.1807248263888889],[0.184296875,0.1807248263888889]],[[0.0019704861111111112,-0.20467013888888888],[0.0019704861111111112,-0.20467013888888888],[0.0019704861111111112,-0.20467013888888888],[0.0019704861111111112,-0.20467013888888888],[0.0019704861111111112,-0.20467013888888888],[0.0019704861111111112,-0.20467013888888888],[0.0019704861111111112,-0.20467013888888888],[0.0019704861111111112,-0.20467013888888888],[0.0019704861111111112,-0.20467013888888888],[0.0019704861111111112,-0.20467013888888888],[0.0019704861111111112,-0.20467013888888888],[0.0009288194444444445,-0.20467013888888888],[-0.006332465277777778,-0.20467013888888888],[-0.015290798611111111,-0.20467013888888888],[-0.03519097222222222,-0.20467013888888888],[-0.048828125,-0.2027907986111111],[-0.06580729166666667,-0.19951822916666667],[-0.0901171875,-0.19418836805555556],[-0.10357638888888888,-0.19065538194444445],[-0.11947048611111111,-0.18557291666666667],[-0.13375,-0.1799565972222222],[-0.14630208333333333,-0.17455729166666667],[-0.1558637152777778,-0.17030381944444445],[-0.1646701388888889,-0.16616319444444444],[-0.17072916666666665,-0.16384114583333334],[-0.18211805555555555,-0.15888020833333333],[-0.18864149305555555,-0.15654079861111111],[-0.19657552083333332,-0.15406684027777778],[-0.20619357638888888,-0.15085503472222223],[-0.2136501736111111,-0.14889756944444443],[-0.22226128472222223,-0.1466970486111111],[-0.22959635416666666,-0.14521701388888889],[-0.234296875,-0.14436197916666665],[-0.23786892361111112,-0.14436197916666665],[-0.24043402777777778,-0.14401041666666667],[-0.2417013888888889,-0.14337239583333333],[-0.24297743055555557,-0.14273003472222223],[-0.2435546875,-0.14244357638888888],[-0.2435546875,-0.14180555555555555],[-0.24384548611111112,-0.1412282986111111],[-0.24384548611111112,-0.1412282986111111],[-0.24384548611111112,-0.1412282986111111],[-0.24384548611111112,-0.1412282986111111],[-0.24384548611111112,-0.1412282986111111],[-0.24384548611111112,-0.1412282986111111],[-0.24384548611111112,-0.1412282986111111]]]",2,"[58,46]",,,,,,,,,,,,,,frontFoyer6.jpg,space,3.833895,0,9,9,52,1,gasstation7.jpg,hardwarestore1.jpg,highway.jpg,forestpath2.jpg,,
Image_List_3,,,,,,,,,,,,,,,,44235,2020-11-23_10h40.03.259,analogCatScenes,2020.1.3,MacIntel,60,"[1440,900]","[[[0.004565972222222222,-0.20331597222222222],[0.004565972222222222,-0.20331597222222222],[0.004565972222222222,-0.20331597222222222],[0.004565972222222222,-0.20331597222222222],[0.004565972222222222,-0.20331597222222222],[0.004565972222222222,-0.20331597222222222],[0.004565972222222222,-0.20331597222222222],[0.004565972222222222,-0.20254340277777777],[0.004565972222222222,-0.1999782986111111],[0.004565972222222222,-0.19641493055555556],[0.004565972222222222,-0.19045138888888888],[0.004565972222222222,-0.18233506944444444],[0.004565972222222222,-0.17427951388888888],[0.004565972222222222,-0.16481770833333334],[0.004565972222222222,-0.15519965277777778],[0.004565972222222222,-0.1447482638888889],[0.004565972222222222,-0.12754774305555555],[0.0031944444444444446,-0.10840277777777778],[0.0018446180555555555,-0.09417100694444444],[-0.0006467013888888889,-0.0791796875],[-0.002717013888888889,-0.06999131944444445],[-0.0047265625,-0.06190538194444444],[-0.006532118055555556,-0.05601996527777778],[-0.009066840277777778,-0.049266493055555555],[-0.0103515625,-0.04495659722222222],[-0.011206597222222222,-0.040264756944444445],[-0.012504340277777777,-0.03556423611111111],[-0.013268229166666666,-0.032526041666666665],[-0.013971354166666667,-0.03043402777777778],[-0.014292534722222222,-0.02950954861111111],[-0.014874131944444445,-0.02892795138888889],[-0.014874131944444445,-0.02892795138888889]]]",1,[32],,,,,,,,,,,,,,highway4.jpg,space,1.84824,0,10,10,59,1,homegarden7.jpg,library_aisle8.jpg,kindergarten_classroom5.jpg,grocerystore3.jpg,,
Image_List_3,,,,,,,,,,,,,,,,44235,2020-11-23_10h40.03.259,analogCatScenes,2020.1.3,MacIntel,60,"[1440,900]","[[[-0.0016362847222222221,-0.1955685763888889],[-0.0016362847222222221,-0.1955685763888889],[-0.0016362847222222221,-0.1955685763888889],[-0.0016362847222222221,-0.1955685763888889],[-0.0016362847222222221,-0.1955685763888889],[-0.0016362847222222221,-0.1955685763888889],[-0.0016362847222222221,-0.1955685763888889],[-0.0016362847222222221,-0.1955685763888889],[-0.0016362847222222221,-0.1955685763888889],[-0.0016362847222222221,-0.1955685763888889],[-0.0016362847222222221,-0.1955685763888889],[-0.0016362847222222221,-0.19453559027777778],[-0.0016362847222222221,-0.18971788194444444],[-0.0016362847222222221,-0.18088541666666666],[-0.0022352430555555554,-0.16954427083333334],[-0.004396701388888889,-0.1547439236111111],[-0.006280381944444444,-0.13969184027777778],[-0.009331597222222222,-0.12575520833333334],[-0.012456597222222223,-0.11080295138888889],[-0.01612847222222222,-0.09671875],[-0.019266493055555556,-0.08166666666666667],[-0.02240451388888889,-0.06661458333333334],[-0.024639756944444445,-0.05085069444444444],[-0.02568142361111111,-0.04201388888888889],[-0.02568142361111111,-0.03533854166666667],[-0.02568142361111111,-0.028663194444444446],[-0.02568142361111111,-0.022708333333333334],[-0.024184027777777777,-0.0146875],[-0.022721354166666666,-0.00787326388888889],[-0.021788194444444443,-0.0013020833333333333],[-0.020941840277777776,0.0033984375],[-0.020186631944444443,0.0064366319444444445],[-0.019809027777777776,0.009466145833333333],[-0.019809027777777776,0.012482638888888889],[-0.019809027777777776,0.015043402777777777],[-0.019809027777777776,0.017196180555555555],[-0.019809027777777776,0.018880208333333332],[-0.019809027777777776,0.019809027777777776],[-0.019809027777777776,0.02038628472222222],[-0.019522569444444443,0.020967881944444444],[-0.019522569444444443,0.021241319444444445],[-0.019253472222222224,0.021514756944444446],[-0.019253472222222224,0.021514756944444446],[-0.018988715277777776,0.02178385416666667],[-0.01870659722222222,0.022057291666666666],[-0.01870659722222222,0.022057291666666666],[-0.018441840277777777,0.02232638888888889],[-0.018441840277777777,0.02232638888888889],[-0.018441840277777777,0.022591145833333333],[-0.018441840277777777,0.022864583333333334],[-0.018441840277777777,0.023428819444444443],[-0.018129340277777777,0.024353298611111112],[-0.018129340277777777,0.025629340277777777],[-0.0178125,0.026905381944444445],[-0.01720920138888889,0.02783420138888889],[-0.016922743055555557,0.028763020833333333],[-0.016323784722222224,0.0296875],[-0.016041666666666666,0.030264756944444443],[-0.016041666666666666,0.030555555555555555],[-0.016041666666666666,0.030555555555555555],[-0.016041666666666666,0.0308203125],[-0.016041666666666666,0.0308203125],[-0.016041666666666666,0.0308203125]]]",1,[63],,,,,,,,,,,,,,breakroom2.jpg,space,3.215875,0,11,11,16,1,basement.jpg,cafeteria6.jpg,campusquad4.jpg,barbershop2.jpg,,
Image_List_3,,,,,,,,,,,,,,,,44235,2020-11-23_10h40.03.259,analogCatScenes,2020.1.3,MacIntel,60,"[1440,900]","[[[-0.005373263888888889,-0.2009765625],[-0.005373263888888889,-0.2009765625],[-0.005373263888888889,-0.2009765625],[-0.005373263888888889,-0.2009765625],[-0.005373263888888889,-0.2009765625],[-0.005373263888888889,-0.2009765625],[-0.005373263888888889,-0.2009765625],[-0.0038151041666666667,-0.2009765625],[0.0038498263888888887,-0.2009765625],[0.010655381944444445,-0.2009765625],[0.036358506944444445,-0.2009765625],[0.04584201388888889,-0.2009765625],[0.0833203125,-0.2009765625],[0.10993489583333334,-0.2009765625],[0.13646701388888888,-0.2001953125],[0.15309027777777778,-0.199453125],[0.17023003472222223,-0.198828125],[0.17851996527777778,-0.1982595486111111],[0.18734809027777777,-0.1982595486111111],[0.19401475694444445,-0.1982595486111111],[0.19870659722222223,-0.1982595486111111],[0.20173611111111112,-0.1982595486111111],[0.20381944444444444,-0.1982595486111111],[0.2058984375,-0.1982595486111111],[0.20844618055555555,-0.1982595486111111],[0.2120095486111111,-0.1982595486111111],[0.21503038194444443,-0.19750434027777777],[0.21859375,-0.1970920138888889],[0.22269097222222223,-0.1966796875],[0.22678819444444445,-0.19626736111111112],[0.2303515625,-0.1958550347222222],[0.2350217013888889,-0.1954123263888889],[0.24092881944444444,-0.1949392361111111],[0.24618055555555557,-0.19405815972222223],[0.25420572916666667,-0.193203125],[0.25885416666666666,-0.19235677083333333],[0.2619444444444444,-0.1912456597222222],[0.26361979166666666,-0.19057291666666668]]]",1,[38],,,,,,,,,,,,,,dinosaur4.jpg,space,2.58438,0,12,12,37,1,dining_car.jpg,driveway4.jpg,driveway7.jpg,citystreet9.jpg,,
Image_List_3,,,,,,,,,,,,,,,,44235,2020-11-23_10h40.03.259,analogCatScenes,2020.1.3,MacIntel,60,"[1440,900]","[[[0.0013802083333333333,-0.19743055555555555],[0.0013802083333333333,-0.19743055555555555],[0.0013802083333333333,-0.19743055555555555],[0.0013802083333333333,-0.19743055555555555],[0.0013802083333333333,-0.19743055555555555],[0.0013802083333333333,-0.19743055555555555],[0.0013802083333333333,-0.19743055555555555],[0.0013802083333333333,-0.19743055555555555],[0.0013802083333333333,-0.19743055555555555],[0.0013802083333333333,-0.19743055555555555],[0.0013802083333333333,-0.19743055555555555],[0.0018923611111111112,-0.19743055555555555],[0.004574652777777778,-0.19743055555555555],[0.009852430555555555,-0.19743055555555555],[0.017942708333333335,-0.19743055555555555],[0.02916232638888889,-0.19743055555555555],[0.04122395833333333,-0.1968793402777778],[0.051636284722222224,-0.19468315972222222],[0.0628515625,-0.19193142361111112],[0.07228732638888889,-0.18878038194444444],[0.08111545138888888,-0.1851605902777778],[0.09246527777777777,-0.1802170138888889],[0.09950520833333333,-0.17618923611111112],[0.10585503472222223,-0.1718142361111111],[0.11100694444444445,-0.16807291666666666],[0.11485243055555555,-0.16466145833333334],[0.11813368055555555,-0.16137152777777777],[0.12005642361111112,-0.15868055555555555],[0.1215017361111111,-0.15611979166666667],[0.12273003472222223,-0.15242621527777778],[0.12435763888888889,-0.1482769097222222],[0.12513888888888888,-0.1445920138888889],[0.1263671875,-0.14049479166666667],[0.12721354166666668,-0.13579427083333334],[0.1280902777777778,-0.13043836805555556],[0.1289670138888889,-0.12514322916666668],[0.12942708333333333,-0.11924479166666667],[0.12942708333333333,-0.1145529513888889],[0.12942708333333333,-0.109296875],[0.12942708333333333,-0.10519097222222222],[0.12828993055555554,-0.10216579861111111],[0.12657552083333334,-0.09751302083333334],[0.12540364583333333,-0.0939453125],[0.12369791666666667,-0.08911892361111111],[0.12034722222222222,-0.0827734375],[0.11828993055555556,-0.07866753472222222],[0.11623263888888889,-0.07496961805555556],[0.11346354166666667,-0.06993489583333333],[0.10968315972222223,-0.06420572916666667],[0.10677517361111111,-0.06085503472222222],[0.10294270833333333,-0.057465277777777775],[0.09924479166666667,-0.05458767361111111],[0.09608072916666667,-0.05259548611111111],[0.09279079861111111,-0.050130208333333336],[0.08950086805555556,-0.047664930555555554],[0.08662326388888889,-0.04478732638888889],[0.08470486111111111,-0.042113715277777776],[0.08400173611111111,-0.040021701388888886],[0.08400173611111111,-0.03834201388888889],[0.08400173611111111,-0.03776475694444444],[0.08400173611111111,-0.03776475694444444]]]",1,[61],,,,,,,,,,,,,,operatingroom4.jpg,space,2.2191,0,13,13,75,1,pantry5.jpg,playground6.jpg,park.jpg,lockerroom.jpg,,
Image_List_3,,,,,,,,,,,,,,,,44235,2020-11-23_10h40.03.259,analogCatScenes,2020.1.3,MacIntel,60,"[1440,900]","[[[0.008250868055555555,-0.19539496527777778],[0.008250868055555555,-0.19539496527777778],[0.008250868055555555,-0.19539496527777778],[0.008250868055555555,-0.19539496527777778],[0.008250868055555555,-0.19539496527777778],[0.008250868055555555,-0.19539496527777778],[0.008250868055555555,-0.19539496527777778],[0.008250868055555555,-0.19539496527777778],[0.008250868055555555,-0.19539496527777778],[0.008250868055555555,-0.19539496527777778],[0.008250868055555555,-0.19408854166666667],[0.008250868055555555,-0.18942274305555556],[0.008250868055555555,-0.18350260416666667],[0.008250868055555555,-0.1738845486111111],[0.00625,-0.1568359375],[0.005590277777777777,-0.1449782986111111],[0.0032378472222222223,-0.12763888888888889],[0.001345486111111111,-0.11170572916666667],[0.001345486111111111,-0.1019140625],[0.0002126736111111111,-0.09232204861111111],[-0.0007899305555555555,-0.08428385416666667],[-0.0007899305555555555,-0.0790234375],[-0.0012022569444444444,-0.07547743055555556],[-0.0012022569444444444,-0.07291666666666667],[-0.0012022569444444444,-0.07123697916666667],[-0.0014930555555555556,-0.07036458333333333],[-0.0017838541666666667,-0.06978298611111111],[-0.0020746527777777777,-0.0694921875],[-0.002395833333333333,-0.06856336805555556],[-0.003003472222222222,-0.06763888888888889],[-0.0035850694444444445,-0.06705729166666667]]]",1,[31],,,,,,,,,,,,,,ballroom2.jpg,space,1.46837,0,14,14,9,1,auto_showroom3.jpg,bar2.jpg,basement5.jpg,arcade2.jpg,,
Image_List_3,,,,,,,,,,,,,,,,44235,2020-11-23_10h40.03.259,analogCatScenes,2020.1.3,MacIntel,60,"[1440,900]","[[[0.001388888888888889,-0.2019748263888889],[0.001388888888888889,-0.2019748263888889],[0.001388888888888889,-0.2019748263888889],[0.001388888888888889,-0.2019748263888889],[0.001388888888888889,-0.2019748263888889],[0.001388888888888889,-0.2019748263888889],[0.001388888888888889,-0.2019748263888889],[0.001388888888888889,-0.2019748263888889],[0.001388888888888889,-0.2019748263888889],[0.001388888888888889,-0.2019748263888889],[0.0042274305555555555,-0.2019748263888889],[0.010746527777777778,-0.2019748263888889],[0.020416666666666666,-0.2019748263888889],[0.033433159722222223,-0.2019748263888889],[0.05311197916666666,-0.2019748263888889],[0.06434461805555555,-0.2019748263888889],[0.07315104166666667,-0.2019748263888889],[0.08120659722222222,-0.20138020833333334],[0.08475694444444444,-0.1998046875],[0.08904079861111111,-0.1968359375],[0.0936154513888889,-0.1922873263888889],[0.09751302083333334,-0.18592881944444445],[0.10164930555555556,-0.17760850694444444],[0.10601128472222222,-0.16721354166666666],[0.10891927083333333,-0.15503472222222223],[0.11053385416666667,-0.14590277777777777],[0.1111328125,-0.13387152777777778],[0.1111328125,-0.1250998263888889],[0.1111328125,-0.11470486111111111],[0.1111328125,-0.10107204861111112],[0.10934895833333333,-0.08805555555555555],[0.10708767361111111,-0.07669270833333333],[0.10521701388888889,-0.07011284722222222],[0.10340277777777777,-0.06420138888888889],[0.1016970486111111,-0.05950520833333333],[0.09893663194444445,-0.05448784722222222],[0.0967578125,-0.04966145833333333],[0.09467447916666667,-0.04506076388888889],[0.09309461805555555,-0.04150173611111111],[0.0920138888888889,-0.037899305555555554],[0.0920138888888889,-0.03662760416666667],[0.0920138888888889,-0.03633680555555555]]]",1,[42],,,,,,,,,,,,,,flowershop3.jpg,space,1.549845,0,15,15,49,1,frontDoor3.jpg,greenhouse5.jpg,greenhouse.jpg,farm2.jpg,,
Image_List_3,,,,,,,,,,,,,,,,44235,2020-11-23_10h40.03.259,analogCatScenes,2020.1.3,MacIntel,60,"[1440,900]","[[[0.0037456597222222223,-0.1980078125],[0.0037456597222222223,-0.1980078125],[0.0037456597222222223,-0.1980078125],[0.0037456597222222223,-0.1980078125],[0.0037456597222222223,-0.1980078125],[0.0037456597222222223,-0.1980078125],[0.0037456597222222223,-0.1980078125],[-0.00008246527777777778,-0.19658854166666667],[-0.0065625,-0.1921484375],[-0.017009548611111112,-0.1845876736111111],[-0.028628472222222222,-0.1754079861111111],[-0.043480902777777775,-0.16386284722222222],[-0.05954861111111111,-0.14990885416666666],[-0.06947482638888888,-0.14020399305555556],[-0.08905381944444445,-0.12231770833333333],[-0.09772135416666666,-0.11427951388888889],[-0.1100390625,-0.10196180555555556],[-0.12111545138888889,-0.09151909722222222],[-0.13102864583333335,-0.08036458333333334],[-0.14223090277777778,-0.07040798611111111],[-0.1512717013888889,-0.06305989583333334],[-0.15778645833333332,-0.05896267361111111],[-0.1687717013888889,-0.05262586805555555],[-0.17370659722222223,-0.0498828125],[-0.18219618055555556,-0.04327690972222222],[-0.187578125,-0.037421875],[-0.19361979166666668,-0.03138020833333333],[-0.1975954861111111,-0.027877604166666667],[-0.2017013888888889,-0.02541232638888889],[-0.2048654513888889,-0.02342013888888889],[-0.20654947916666666,-0.022083333333333333],[-0.20832899305555555,-0.020303819444444444],[-0.20972222222222223,-0.018216145833333332],[-0.2115625,-0.016028645833333334],[-0.21323784722222222,-0.014696180555555556],[-0.214921875,-0.013359375],[-0.21584635416666667,-0.012434895833333333],[-0.2164279513888889,-0.011853298611111111],[-0.21700520833333334,-0.011566840277777778],[-0.21729166666666666,-0.010989583333333334],[-0.2182204861111111,-0.010377604166666667],[-0.21914496527777777,-0.010056423611111111],[-0.21943576388888889,-0.009765625],[-0.21943576388888889,-0.009765625]],[[-0.0019140625,-0.20096354166666666],[-0.0019140625,-0.20096354166666666],[-0.0019140625,-0.20096354166666666],[-0.0019140625,-0.20096354166666666],[-0.0019140625,-0.20096354166666666],[-0.0019140625,-0.20096354166666666],[-0.0019140625,-0.20096354166666666],[-0.0019140625,-0.20096354166666666],[-0.0019140625,-0.20096354166666666],[-0.0019140625,-0.20096354166666666],[0.00021701388888888888,-0.20096354166666666],[0.009283854166666666,-0.19832465277777778],[0.027530381944444446,-0.19296006944444444],[0.05689670138888889,-0.1856597222222222],[0.09048611111111111,-0.176171875],[0.13925347222222223,-0.16081597222222221],[0.16741319444444444,-0.15005208333333334],[0.20689236111111112,-0.1359982638888889],[0.24260850694444444,-0.12440972222222223],[0.26501302083333333,-0.11760416666666666],[0.2866840277777778,-0.11108506944444445],[0.29681857638888887,-0.10770399305555556],[0.30569444444444444,-0.10461805555555556],[0.31159288194444446,-0.10280381944444444],[0.3151388888888889,-0.10122829861111111],[0.3196614583333333,-0.0993359375],[0.3211501736111111,-0.09896267361111111],[0.32522135416666664,-0.09784722222222222],[0.3268923611111111,-0.09753038194444444],[0.3274652777777778,-0.09753038194444444],[0.32803819444444443,-0.09753038194444444],[0.32861111111111113,-0.09723958333333334],[0.3288802083333333,-0.09723958333333334],[0.3288802083333333,-0.09694878472222222],[0.3291970486111111,-0.09603732638888889],[0.33197482638888887,-0.09366319444444444]]]",2,"[44,36]",,,,,,,,,,,,,,ballroom4.jpg,space,4.97161,0,16,16,10,1,backstage2.jpg,barbershop3.jpg,basketballcourt3.jpg,ATM4.jpg,,
Image_List_3,,,,,,,,,,,,,,,,44235,2020-11-23_10h40.03.259,analogCatScenes,2020.1.3,MacIntel,60,"[1440,900]","[[[-0.0007595486111111111,-0.19882378472222223],[-0.0007595486111111111,-0.19882378472222223],[-0.0007595486111111111,-0.19882378472222223],[-0.0007595486111111111,-0.19882378472222223],[-0.0007595486111111111,-0.19882378472222223],[-0.0007595486111111111,-0.19882378472222223],[-0.0007595486111111111,-0.19882378472222223],[-0.0007595486111111111,-0.19882378472222223],[-0.0007595486111111111,-0.19882378472222223],[-0.0007595486111111111,-0.19882378472222223],[-0.0007595486111111111,-0.19882378472222223],[-0.0016579861111111112,-0.19653211805555557],[-0.0033289930555555555,-0.192265625],[-0.0056770833333333335,-0.18571180555555555],[-0.008194444444444445,-0.1781814236111111],[-0.010073784722222222,-0.17166666666666666],[-0.011948784722222222,-0.16510850694444446],[-0.012877604166666667,-0.15855034722222222],[-0.012877604166666667,-0.14809027777777778],[-0.012877604166666667,-0.13841145833333332],[-0.01234375,-0.122421875],[-0.008198784722222222,-0.11358506944444445],[-0.0029861111111111113,-0.10631944444444444],[0.002864583333333333,-0.10098524305555556],[0.009839409722222222,-0.09649739583333333],[0.0173828125,-0.09297309027777778],[0.02470920138888889,-0.09004340277777778],[0.033528645833333336,-0.08746527777777778],[0.04394965277777778,-0.08473958333333333],[0.05350260416666667,-0.0826171875],[0.059409722222222225,-0.08079861111111111],[0.06533854166666667,-0.07897569444444444],[0.06948784722222222,-0.07771267361111112],[0.07203125,-0.07660590277777778],[0.0732986111111111,-0.07564670138888889],[0.0738671875,-0.07536024305555555],[0.0738671875,-0.07478298611111112]]]",1,[37],,,,,,,,,,,,,,breakroom4.jpg,space,2.10182,0,17,17,17,1,bikerack1.jpg,campsite6.jpg,carmechanic.jpg,baseball6.jpg,,
Image_List_3,,,,,,,,,,,,,,,,44235,2020-11-23_10h40.03.259,analogCatScenes,2020.1.3,MacIntel,60,"[1440,900]","[[[0.007547743055555556,-0.20344184027777779],[0.007547743055555556,-0.20344184027777779],[0.007547743055555556,-0.20344184027777779],[0.007547743055555556,-0.20344184027777779],[0.007547743055555556,-0.20344184027777779],[0.007547743055555556,-0.20344184027777779],[0.007547743055555556,-0.20344184027777779],[0.007547743055555556,-0.20344184027777779],[0.007026909722222223,-0.20344184027777779],[0.003927951388888889,-0.20344184027777779],[-0.00023871527777777777,-0.20344184027777779],[-0.005516493055555556,-0.20387152777777778],[-0.0128515625,-0.20682291666666666],[-0.02730902777777778,-0.21249565972222223],[-0.04072482638888889,-0.2179904513888889],[-0.057777777777777775,-0.22257378472222222],[-0.0714453125,-0.22582899305555557],[-0.08750434027777777,-0.2290451388888889],[-0.10158854166666667,-0.23088975694444444],[-0.11543402777777778,-0.23149305555555555],[-0.12935763888888888,-0.23149305555555555],[-0.14319010416666667,-0.22967447916666667],[-0.15743489583333334,-0.22408420138888888],[-0.176328125,-0.21248263888888888],[-0.18840711805555554,-0.20354600694444444],[-0.20280815972222221,-0.19307291666666668],[-0.21881944444444446,-0.18122829861111112],[-0.22611111111111112,-0.17393663194444445],[-0.23207899305555554,-0.16176215277777778],[-0.23381076388888888,-0.15039496527777776],[-0.23614149305555557,-0.1375824652777778],[-0.23852430555555557,-0.12442274305555556],[-0.24003472222222222,-0.11698350694444444],[-0.24101128472222222,-0.10965711805555556],[-0.24280381944444446,-0.0977907986111111],[-0.24330729166666668,-0.0911154513888889],[-0.24330729166666668,-0.08252170138888888],[-0.24330729166666668,-0.0771875],[-0.24330729166666668,-0.07250434027777777],[-0.24330729166666668,-0.0703515625],[-0.24330729166666668,-0.06971354166666667],[-0.24330729166666668,-0.06971354166666667],[-0.24330729166666668,-0.06944878472222223],[-0.24330729166666668,-0.06944878472222223],[-0.24330729166666668,-0.06944878472222223],[-0.24330729166666668,-0.06944878472222223]]]",1,[46],,,,,,,,,,,,,,applestore6.jpg,space,1.58477,0,18,18,2,1,alley1.jpg,arcade1.jpg,apartmentBuilding4.jpg,airportTerminal6.jpg,,
Image_List_3,,,,,,,,,,,,,,,,44235,2020-11-23_10h40.03.259,analogCatScenes,2020.1.3,MacIntel,60,"[1440,900]","[[[-0.006497395833333333,-0.19170138888888888],[-0.006497395833333333,-0.19170138888888888],[-0.006497395833333333,-0.19170138888888888],[-0.006497395833333333,-0.19170138888888888],[-0.006497395833333333,-0.19170138888888888],[-0.006497395833333333,-0.19170138888888888],[-0.006497395833333333,-0.19170138888888888],[-0.006497395833333333,-0.19170138888888888],[-0.006497395833333333,-0.19170138888888888],[-0.006497395833333333,-0.19170138888888888],[-0.006497395833333333,-0.19170138888888888],[-0.006497395833333333,-0.19170138888888888],[-0.006497395833333333,-0.19170138888888888],[-0.006497395833333333,-0.18992621527777778],[-0.006497395833333333,-0.18030815972222222],[-0.006497395833333333,-0.1642230902777778],[-0.006497395833333333,-0.15006510416666666],[-0.006497395833333333,-0.13923177083333332],[-0.006497395833333333,-0.13046875],[-0.006497395833333333,-0.12385416666666667],[-0.007000868055555555,-0.11719618055555556],[-0.008038194444444445,-0.1082638888888889],[-0.009049479166666667,-0.10014756944444445],[-0.010555555555555556,-0.09212673611111111],[-0.011471354166666666,-0.086171875],[-0.012296006944444444,-0.08200520833333333],[-0.012296006944444444,-0.07898871527777777],[-0.012296006944444444,-0.07642795138888889],[-0.012296006944444444,-0.07386284722222222],[-0.012296006944444444,-0.07217881944444444],[-0.012296006944444444,-0.07130642361111111],[-0.012296006944444444,-0.071015625],[-0.012296006944444444,-0.07074652777777778],[-0.012296006944444444,-0.07047309027777778],[-0.012296006944444444,-0.07018229166666666]]]",1,[35],,,,,,,,,,,,,,frontDoor5.jpg,space,1.781525,0,19,19,51,1,gasstation6.jpg,hallway5.jpg,hayfield4.jpg,firestation5.jpg,,
Image_List_3,,,,,,,,,,,,,,,,44235,2020-11-23_10h40.03.259,analogCatScenes,2020.1.3,MacIntel,60,"[1440,900]","[[[0.0002951388888888889,-0.1888454861111111],[0.0002951388888888889,-0.1888454861111111],[0.0002951388888888889,-0.1888454861111111],[0.0002951388888888889,-0.1888454861111111],[0.0002951388888888889,-0.1888454861111111],[0.0002951388888888889,-0.1888454861111111],[0.0002951388888888889,-0.1888454861111111],[0.0002951388888888889,-0.1888454861111111],[0.0002951388888888889,-0.1888454861111111],[0.0002951388888888889,-0.1888454861111111],[0.0002951388888888889,-0.1888454861111111],[0.0002951388888888889,-0.1888454861111111],[0.0002951388888888889,-0.1888454861111111],[0.0002951388888888889,-0.1888454861111111],[0.00003472222222222222,-0.1888454861111111],[-0.0019097222222222222,-0.1869921875],[-0.004743923611111111,-0.18414496527777777],[-0.010846354166666667,-0.17857638888888888],[-0.022960069444444446,-0.16961805555555556],[-0.03902777777777778,-0.1570659722222222],[-0.0540625,-0.1441796875],[-0.06923611111111111,-0.13176649305555554],[-0.08258246527777778,-0.12288628472222222],[-0.0945703125,-0.11629774305555556],[-0.10446614583333333,-0.11133246527777778],[-0.11551649305555556,-0.1055251736111111],[-0.1259592013888889,-0.09796440972222223],[-0.13642361111111112,-0.09044270833333333],[-0.14571180555555555,-0.08171875],[-0.15068576388888888,-0.07645833333333334],[-0.1558767361111111,-0.07010850694444444],[-0.16197916666666667,-0.0635329861111111],[-0.16526475694444445,-0.06065972222222222],[-0.1707986111111111,-0.05459201388888889],[-0.17505208333333333,-0.04892361111111111],[-0.17973958333333334,-0.04112413194444445],[-0.18436631944444445,-0.032916666666666664],[-0.1883637152777778,-0.024926215277777778],[-0.19099392361111112,-0.02001736111111111],[-0.1928125,-0.014092881944444444],[-0.19322482638888888,-0.01],[-0.19322482638888888,-0.006432291666666667],[-0.19322482638888888,-0.00234375],[-0.19322482638888888,0.004409722222222222],[-0.19278645833333333,0.009088541666666667],[-0.19187934027777778,0.015169270833333333],[-0.1906857638888889,0.0193359375],[-0.1885763888888889,0.024036458333333333],[-0.18652777777777776,0.02814236111111111],[-0.1840798611111111,0.03141927083333333],[-0.1799609375,0.03598958333333333],[-0.1755685763888889,0.03950954861111111],[-0.17188802083333332,0.04197048611111111],[-0.16913194444444443,0.044735243055555554],[-0.16695746527777777,0.04657118055555556],[-0.16569010416666666,0.047213541666666664],[-0.1651171875,0.04750434027777778],[-0.16454427083333334,0.04750434027777778],[-0.16327690972222222,0.04750434027777778],[-0.159765625,0.04868923611111111]]]",1,[60],,,,,,,,,,,,,,drymountains6.jpg,space,3.749235,0,20,20,42,1,exerciseequipment3.jpg,firestation3.jpg,farm4.jpg,desertvegetation2.jpg,,
Image_List_3,,,,,,,,,,,,,,,,44235,2020-11-23_10h40.03.259,analogCatScenes,2020.1.3,MacIntel,60,"[1440,900]","[[[0.0057465277777777775,-0.20969618055555556],[0.0057465277777777775,-0.20969618055555556],[0.0057465277777777775,-0.20969618055555556],[0.0057465277777777775,-0.20969618055555556],[0.0057465277777777775,-0.20969618055555556],[0.0057465277777777775,-0.20969618055555556],[0.0057465277777777775,-0.20969618055555556],[0.0057465277777777775,-0.20969618055555556],[0.0057465277777777775,-0.20969618055555556],[0.0057465277777777775,-0.20969618055555556],[0.008841145833333333,-0.20969618055555556],[0.019418402777777777,-0.20969618055555556],[0.03161892361111111,-0.20969618055555556],[0.049822048611111114,-0.2103515625],[0.0748046875,-0.2103515625],[0.0941015625,-0.2103515625],[0.11955295138888888,-0.2103515625],[0.13516059027777777,-0.2103515625],[0.15569010416666668,-0.20927951388888888],[0.1737717013888889,-0.2065972222222222],[0.18973524305555556,-0.20276041666666667],[0.20282118055555556,-0.19859375],[0.21502170138888888,-0.1939453125],[0.22659288194444444,-0.18871961805555557],[0.2367578125,-0.18306857638888888],[0.24266927083333334,-0.17916232638888888],[0.24832899305555556,-0.17537760416666667],[0.25161024305555557,-0.1725],[0.25395833333333334,-0.16973524305555557],[0.25505642361111114,-0.16718315972222222],[0.2565060763888889,-0.16461805555555556],[0.2575737847222222,-0.16206163194444445],[0.2590234375,-0.15949652777777779],[0.2614800347222222,-0.15579861111111112],[0.26340277777777776,-0.1531076388888889],[0.26544270833333333,-0.14901475694444444],[0.26657552083333336,-0.1459765625],[0.2676779513888889,-0.14341145833333332],[0.26837239583333333,-0.14131944444444444],[0.2690060763888889,-0.13899739583333334],[0.2693185763888889,-0.13772569444444444],[0.2696657986111111,-0.13604600694444444],[0.2696657986111111,-0.13477430555555556],[0.2699826388888889,-0.1338498263888889],[0.2699826388888889,-0.13326822916666667],[0.2699826388888889,-0.13297743055555555]]]",1,[46],,,,,,,,,,,,,,auto_showroom1.jpg,space,1.864565,0,21,21,4,1,artStudio1.jpg,baggageClaim2.jpg,appleorchard3.jpg,alley4.jpg,,
Image_List_3,,,,,,,,,,,,,,,,44235,2020-11-23_10h40.03.259,analogCatScenes,2020.1.3,MacIntel,60,"[1440,900]","[[[-0.008949652777777779,-0.19821614583333333],[-0.008949652777777779,-0.19821614583333333],[-0.008949652777777779,-0.19821614583333333],[-0.008949652777777779,-0.19821614583333333],[-0.008949652777777779,-0.19821614583333333],[-0.008949652777777779,-0.19821614583333333],[-0.008949652777777779,-0.19821614583333333],[-0.008949652777777779,-0.19821614583333333],[-0.008949652777777779,-0.19821614583333333],[-0.008433159722222222,-0.19821614583333333],[-0.005876736111111111,-0.19821614583333333],[-0.0010590277777777779,-0.19821614583333333],[0.009079861111111111,-0.19821614583333333],[0.021280381944444444,-0.19473090277777777],[0.032699652777777775,-0.19075086805555555],[0.04803385416666667,-0.18431857638888888],[0.06845052083333333,-0.17410590277777777],[0.07851996527777778,-0.16694444444444445],[0.09168402777777777,-0.1581640625],[0.10616319444444444,-0.14828559027777777],[0.11869791666666667,-0.13887586805555555],[0.12463975694444444,-0.13336805555555556],[0.13395833333333335,-0.1251953125],[0.14234809027777778,-0.11631944444444445],[0.14875434027777779,-0.10883680555555555],[0.15664496527777777,-0.09981336805555556],[0.16341145833333334,-0.09078559027777777],[0.16852864583333332,-0.0830859375],[0.17305121527777778,-0.07553385416666666],[0.17706163194444444,-0.06850260416666666],[0.18497395833333333,-0.05701388888888889],[0.19025173611111112,-0.049092881944444444],[0.19386284722222222,-0.042005208333333335],[0.19669270833333333,-0.035390625],[0.19798177083333332,-0.030690104166666666],[0.19873697916666666,-0.027651909722222222],[0.19914496527777778,-0.023546006944444444],[0.19952256944444444,-0.02052517361111111],[0.19952256944444444,-0.01642795138888889],[0.19952256944444444,-0.012899305555555556],[0.19917100694444445,-0.01033420138888889],[0.19809027777777777,-0.007769097222222222],[0.19694878472222221,-0.0047309027777777775],[0.1954253472222222,-0.0016319444444444445],[0.19336805555555556,0.002065972222222222],[0.19143663194444444,0.004752604166666666],[0.18915364583333333,0.007035590277777778],[0.18716145833333334,0.010199652777777778],[0.18595920138888888,0.014366319444444444],[0.18551649305555556,0.023606770833333332],[0.18551649305555556,0.028940972222222222],[0.18551649305555556,0.033641493055555555],[0.18551649305555556,0.035798611111111114],[0.18551649305555556,0.03643663194444444]]]",1,[54],,,,,,,,,,,,,,sculpturegarden4.jpg,space,2.032335,0,22,22,88,1,rooftop1.jpg,track.jpg,soccerfield.jpg,sandbox.jpg,,
Image_List_3,,,,,,,,,,,,,,,,44235,2020-11-23_10h40.03.259,analogCatScenes,2020.1.3,MacIntel,60,"[1440,900]","[[[-0.00045138888888888887,-0.1975347222222222],[-0.00045138888888888887,-0.1975347222222222],[-0.00045138888888888887,-0.1975347222222222],[-0.00045138888888888887,-0.1975347222222222],[-0.00045138888888888887,-0.1975347222222222],[-0.00045138888888888887,-0.1975347222222222],[-0.00045138888888888887,-0.1975347222222222],[-0.0012369791666666666,-0.1975347222222222],[-0.008541666666666666,-0.1975347222222222],[-0.016783854166666667,-0.19597222222222221],[-0.028958333333333332,-0.1918967013888889],[-0.04241319444444445,-0.18740885416666667],[-0.06184027777777778,-0.1795703125],[-0.076640625,-0.17182291666666666],[-0.09355902777777778,-0.1598220486111111],[-0.10975694444444445,-0.14638020833333334],[-0.1237890625,-0.13022569444444446],[-0.133359375,-0.11905381944444444],[-0.14395399305555556,-0.10722222222222222],[-0.15164496527777777,-0.10098090277777778],[-0.15888888888888889,-0.09474392361111111],[-0.16361111111111112,-0.0895486111111111],[-0.16789496527777778,-0.08381510416666667],[-0.171328125,-0.07698784722222222],[-0.17530815972222222,-0.07002170138888889],[-0.17995225694444444,-0.06180555555555556],[-0.18219184027777777,-0.05645833333333333],[-0.18493489583333333,-0.05050347222222222],[-0.18670138888888888,-0.04521267361111111],[-0.18828559027777778,-0.041640625],[-0.18938802083333334,-0.039088541666666664],[-0.19034722222222222,-0.0378125],[-0.1909592013888889,-0.03659288194444445]],[[-0.003932291666666666,-0.18855034722222222],[-0.003932291666666666,-0.18855034722222222],[-0.003932291666666666,-0.18855034722222222],[-0.003932291666666666,-0.18855034722222222],[-0.003932291666666666,-0.18855034722222222],[-0.003932291666666666,-0.18855034722222222],[-0.003932291666666666,-0.18855034722222222],[-0.003159722222222222,-0.18855034722222222],[0.007291666666666667,-0.18855034722222222],[0.022400173611111112,-0.18855034722222222],[0.04487847222222222,-0.18855034722222222],[0.061649305555555554,-0.18855034722222222],[0.07961805555555555,-0.18855034722222222],[0.09671440972222223,-0.18855034722222222],[0.1106467013888889,-0.18855034722222222],[0.12279079861111111,-0.1873871527777778],[0.1332421875,-0.18518229166666667],[0.14397135416666668,-0.18065972222222224],[0.15470052083333333,-0.17500434027777778],[0.16657986111111112,-0.1678732638888889],[0.17842013888888889,-0.1607638888888889],[0.19398003472222222,-0.15039930555555556],[0.1997612847222222,-0.1469704861111111],[0.20609809027777778,-0.14256944444444444],[0.21244791666666665,-0.1381640625],[0.21568142361111112,-0.13570746527777777],[0.22033854166666667,-0.13255208333333332],[0.22441840277777778,-0.1300998263888889],[0.228515625,-0.1280425347222222],[0.2322048611111111,-0.12557725694444444],[0.23575954861111112,-0.12399739583333333],[0.2384418402777778,-0.12206597222222222],[0.24109375,-0.12016493055555555],[0.24276909722222223,-0.118828125],[0.24403645833333334,-0.1178689236111111],[0.24463541666666666,-0.11694444444444445],[0.244921875,-0.11636284722222222]]]",2,"[33,37]",,,,,,,,,,,,,,gazebo2.jpg,space,3.401195,0,23,23,54,1,greenhouse2.jpg,horsebarn11.jpg,homegarage4.jpg,frontFoyer.jpg,,
