image_list,key_resp_intructions.keys,key_resp_intructions.rt,key_resp_intructions_3.keys,key_resp_intructions_3.rt,PracticeComplete_2.keys,PracticeComplete_2.rt,PracticeComplete_3.keys,PracticeComplete_3.rt,demo_trials.thisRepN,demo_trials.thisTrialN,demo_trials.thisN,demo_trials.thisIndex,demo_trials.ran,demo_images,path_images,participant,date,expName,psychopyVersion,OS,frameRate,windowSize,practice_complete.keys,practice_complete.rt,boxes_checked,PracticeComplete.keys,PracticeComplete.rt,practice_trials.thisRepN,practice_trials.thisTrialN,practice_trials.thisN,practice_trials.thisIndex,practice_trials.ran,practice_images,feedback_images,key_resp_intructions_2.keys,key_resp_intructions_2.rt,Image_List_4,trial_complete.keys,trial_complete.rt,trial_mouse.x,trial_mouse.y,trial_mouse.leftButton,trial_mouse.midButton,trial_mouse.rightButton,trial_mouse.time,trial_mouse.clicked_name,trials.thisRepN,trials.thisTrialN,trials.thisN,trials.thisIndex,trials.ran,Image_List_1,Image_List_2,Image_List_3,Image_List_5,key_resp.keys,key_resp.rt
Image_List_4,space,78.441695,space,7.49907,space,36.115035,space,4.098255,0,0,0,2,1,ahead_right.jpg,ahead_right_path.jpg,44290,2020-11-25_09h40.16.230,lingCatScenes,2020.1.3,MacIntel,60,,,,,,,,,,,,,,,,,,,,,,,,,,,,,,,,,,,,
Image_List_4,,,,,space,9.895355,space,5.16407,0,1,1,6,1,right_left.jpg,right_left_path.jpg,44290,2020-11-25_09h40.16.230,lingCatScenes,2020.1.3,MacIntel,60,,,,,,,,,,,,,,,,,,,,,,,,,,,,,,,,,,,,
Image_List_4,,,,,space,6.087375,space,1.958585,0,2,2,4,1,left.jpg,left_path.jpg,44290,2020-11-25_09h40.16.230,lingCatScenes,2020.1.3,MacIntel,60,,,,,,,,,,,,,,,,,,,,,,,,,,,,,,,,,,,,
Image_List_4,,,,,space,2.41907,space,0.861025,0,3,3,0,1,ahead.jpg,ahead_path.jpg,44290,2020-11-25_09h40.16.230,lingCatScenes,2020.1.3,MacIntel,60,,,,,,,,,,,,,,,,,,,,,,,,,,,,,,,,,,,,
Image_List_4,,,,,space,2.664495,space,1.965895,0,4,4,5,1,right.jpg,right_path.jpg,44290,2020-11-25_09h40.16.230,lingCatScenes,2020.1.3,MacIntel,60,,,,,,,,,,,,,,,,,,,,,,,,,,,,,,,,,,,,
Image_List_4,,,,,space,3.20507,space,3.101325,0,5,5,3,1,ahead_right_left.jpg,ahead_right_left_path.jpg,44290,2020-11-25_09h40.16.230,lingCatScenes,2020.1.3,MacIntel,60,,,,,,,,,,,,,,,,,,,,,,,,,,,,,,,,,,,,
Image_List_4,,,,,space,2.045005,space,3.140815,0,6,6,1,1,ahead_left.jpg,ahead_left_path.jpg,44290,2020-11-25_09h40.16.230,lingCatScenes,2020.1.3,MacIntel,60,,,,,,,,,,,,,,,,,,,,,,,,,,,,,,,,,,,,
Image_List_4,,,,,,,,,,,,,,,,44290,2020-11-25_09h40.16.230,lingCatScenes,2020.1.3,MacIntel,60,"[1440,900]",space,3.905265,[],space,1.5003,0,0,0,5,1,right_2.jpg,right_2_path.jpg,,,,,,,,,,,,,,,,,,,,,,,
Image_List_4,,,,,,,,,,,,,,,,44290,2020-11-25_09h40.16.230,lingCatScenes,2020.1.3,MacIntel,60,"[1440,900]",space,1.85329,[],space,2.594695,0,1,1,3,1,ahead_right_left_2.jpg,ahead_right_left_2_path.jpg,,,,,,,,,,,,,,,,,,,,,,,
Image_List_4,,,,,,,,,,,,,,,,44290,2020-11-25_09h40.16.230,lingCatScenes,2020.1.3,MacIntel,60,"[1440,900]",space,1.737625,[],space,1.414965,0,2,2,2,1,ahead_right_2.jpg,ahead_right_2_path.jpg,,,,,,,,,,,,,,,,,,,,,,,
Image_List_4,,,,,,,,,,,,,,,,44290,2020-11-25_09h40.16.230,lingCatScenes,2020.1.3,MacIntel,60,"[1440,900]",space,8.38471,"[""ahead_box""]",space,3.250995,0,3,3,0,1,ahead_2.jpg,ahead_2_path.jpg,,,,,,,,,,,,,,,,,,,,,,,
Image_List_4,,,,,,,,,,,,,,,,44290,2020-11-25_09h40.16.230,lingCatScenes,2020.1.3,MacIntel,60,"[1440,900]",space,11.17654,"[""slight_left_box"",""slight_right_box""]",space,3.500755,0,4,4,6,1,right_left_2.jpg,right_left_2_path.jpg,,,,,,,,,,,,,,,,,,,,,,,
Image_List_4,,,,,,,,,,,,,,,,44290,2020-11-25_09h40.16.230,lingCatScenes,2020.1.3,MacIntel,60,"[1440,900]",space,6.52469,"[""ahead_box""]",space,1.97626,0,5,5,1,1,ahead_left_2.jpg,ahead_left_2_path.jpg,,,,,,,,,,,,,,,,,,,,,,,
Image_List_4,,,,,,,,,,,,,,,,44290,2020-11-25_09h40.16.230,lingCatScenes,2020.1.3,MacIntel,60,"[1440,900]",space,21.146795,"[""sharp_left_box""]",space,0.860665,0,6,6,4,1,left_2.jpg,left_2_path.jpg,,,,,,,,,,,,,,,,,,,,,,,
Image_List_4,,,,,,,,,,,,,,,,44290,2020-11-25_09h40.16.230,lingCatScenes,2020.1.3,MacIntel,60,"[1440,900]",,,"[""trial_ahead_box""]",,,,,,,,,,space,5.13097,pavilion3.jpg,space,4.525345,[0.011358506944444444],[-0.2986501736111111],[1],[0],[0],[3.981840000000375],"[""trial_ahead_box""]",0,0,0,78,1,parkinglot3.jpg,poolhall1.jpg,pier5.jpg,observatory1.jpg,,
Image_List_4,,,,,,,,,,,,,,,,44290,2020-11-25_09h40.16.230,lingCatScenes,2020.1.3,MacIntel,60,"[1440,900]",,,"[""trial_sharp_right_box""]",,,,,,,,,,,,driveway8.jpg,space,5.27752,[0.5942534722222222],[-0.30681423611111114],[1],[0],[0],[4.728124999997874],"[""trial_sharp_right_box""]",0,1,1,38,1,dining_car2.jpg,elevatorOutside4.jpg,dock1.jpg,classroom1.jpg,,
Image_List_4,,,,,,,,,,,,,,,,44290,2020-11-25_09h40.16.230,lingCatScenes,2020.1.3,MacIntel,60,"[1440,900]",,,"[""trial_ahead_box""]",,,,,,,,,,,,readingroom4.jpg,space,2.914515,[0.014075520833333334],[-0.3008984375],[1],[0],[0],[2.128530000001774],"[""trial_ahead_box""]",0,2,2,82,1,publicrestroom2.jpg,sandDunes_desert_outdoor9.jpg,promenadeDeck3.jpg,postoffice4.jpg,,
Image_List_4,,,,,,,,,,,,,,,,44290,2020-11-25_09h40.16.230,lingCatScenes,2020.1.3,MacIntel,60,"[1440,900]",,,"[""trial_right_box"",""trial_ahead_box""]",,,,,,,,,,,,poolhall5.jpg,space,7.562265,"[0.3884461805555556,0.0091796875]","[-0.3032465277777778,-0.3029861111111111]","[1,1]","[0,0]","[0,0]","[4.4116649999997435,5.76186999999851]","[""trial_right_box"",""trial_ahead_box""]",0,3,3,80,1,pavilion2.jpg,racecarcourse2.jpg,porch.jpg,parkinggarage4.jpg,,
Image_List_4,,,,,,,,,,,,,,,,44290,2020-11-25_09h40.16.230,lingCatScenes,2020.1.3,MacIntel,60,"[1440,900]",,,"[""trial_ahead_box""]",,,,,,,,,,,,metroInside1.jpg,space,2.59793,[0.0091796875],[-0.3029861111111111],[1],[0],[0],[2.0957400000006032],"[""trial_ahead_box""]",0,4,4,69,1,liquorstore8.jpg,parkinglot2.jpg,livingroom.jpg,icecream2.jpg,,
Image_List_4,,,,,,,,,,,,,,,,44290,2020-11-25_09h40.16.230,lingCatScenes,2020.1.3,MacIntel,60,"[1440,900]",,,"[""trial_left_box"",""trial_sharp_right_box""]",,,,,,,,,,,,minigolf8.jpg,space,10.91457,"[-0.4123394097222222,0.6063585069444445]","[-0.31557725694444444,-0.2981770833333333]","[1,1]","[0,0]","[0,0]","[2.546634999998787,9.047575000000563]","[""trial_left_box"",""trial_sharp_right_box""]",0,5,5,70,1,lockerroom4.jpg,pavilion.jpg,lockerroom3.jpg,igloo.jpg,,
Image_List_4,,,,,,,,,,,,,,,,44290,2020-11-25_09h40.16.230,lingCatScenes,2020.1.3,MacIntel,60,"[1440,900]",,,"[""trial_ahead_box""]",,,,,,,,,,,,forestpath4.jpg,space,2.52855,[-0.012513020833333333],[-0.3014453125],[1],[0],[0],[1.99610000000024],"[""trial_ahead_box""]",0,6,6,45,1,fittingroom2.jpg,frontFoyer7.jpg,factory1.jpg,dock4.jpg,,
Image_List_4,,,,,,,,,,,,,,,,44290,2020-11-25_09h40.16.230,lingCatScenes,2020.1.3,MacIntel,60,"[1440,900]",,,"[""trial_ahead_box""]",,,,,,,,,,,,sandDunes_desert_outdoor.jpg,space,8.63076,[-0.013068576388888888],[-0.3019791666666667],[1],[0],[0],[7.212514999999144],"[""trial_ahead_box""]",0,7,7,84,1,readingroom5.jpg,sidewalk2.jpg,restaurant13.jpg,rooftop2.jpg,,
Image_List_4,,,,,,,,,,,,,,,,44290,2020-11-25_09h40.16.230,lingCatScenes,2020.1.3,MacIntel,60,"[1440,900]",,,"[""trial_ahead_box"",""trial_right_box""]",,,,,,,,,,,,diner10.jpg,space,6.729825,"[-0.013641493055555556,0.41519097222222223]","[-0.29943142361111114,-0.30163194444444447]","[1,1]","[0,0]","[0,0]","[2.9130149999982677,6.028954999998007]","[""trial_ahead_box"",""trial_right_box""]",0,8,8,33,1,deck1.jpg,diningroom1.jpg,courthouse2.jpg,cabinIndoors5.jpg,,
Image_List_4,,,,,,,,,,,,,,,,44290,2020-11-25_09h40.16.230,lingCatScenes,2020.1.3,MacIntel,60,"[1440,900]",,,"[""trial_ahead_box"",""trial_sharp_right_box"",""trial_left_box""]",,,,,,,,,,,,warehouseoutside2.jpg,space,10.17643,"[0.004244791666666667,0.5706597222222223,0.5988975694444445,-0.38734375]","[-0.30734809027777776,-0.29347222222222225,-0.2950043402777778,-0.29638020833333334]","[1,1,1,1]","[0,0,0,0]","[0,0,0,0]","[2.461815000002389,7.31297500000062,8.062454999999261,9.695915000000184]","[""trial_ahead_box"",""trial_sharp_right_box"",""trial_left_box""]",0,9,9,93,1,tollbooth8.jpg,volleyballcourt4.jpg,staircase4.jpg,tenniscourt.jpg,,
Image_List_4,,,,,,,,,,,,,,,,44290,2020-11-25_09h40.16.230,lingCatScenes,2020.1.3,MacIntel,60,"[1440,900]",,,"[""trial_right_box"",""trial_sharp_left_box""]",,,,,,,,,,,,lab5.jpg,space,6.579345,"[0.41227430555555555,-0.6237326388888889]","[-0.3189192708333333,-0.2984375]","[1,1]","[0,0]","[0,0]","[3.412415000002511,5.89429999999993]","[""trial_right_box"",""trial_sharp_left_box""]",0,10,10,64,1,igloo2.jpg,newsstand5.jpg,jewelrystore8.jpg,homegarage2.jpg,,
Image_List_4,,,,,,,,,,,,,,,,44290,2020-11-25_09h40.16.230,lingCatScenes,2020.1.3,MacIntel,60,"[1440,900]",,,"[""trial_slight_right_box""]",,,,,,,,,,,,attic4.jpg,space,4.59922,[0.19087239583333335],[-0.30745225694444445],[1],[0],[0],[4.013425000001007],"[""trial_slight_right_box""]",0,11,11,5,1,artStudio3.jpg,bambooforest.jpg,auto_showroom4.jpg,amusement3.jpg,,
Image_List_4,,,,,,,,,,,,,,,,44290,2020-11-25_09h40.16.230,lingCatScenes,2020.1.3,MacIntel,60,"[1440,900]",,,"[""trial_sharp_right_box""]",,,,,,,,,,,,liquorstore.jpg,space,4.0293,[0.6084114583333333],[-0.3009375],[1],[0],[0],[3.394974999999249],"[""trial_sharp_right_box""]",0,12,12,66,1,library_aisle10.jpg,office3.jpg,laundromat3.jpg,horsebarn9.jpg,,
Image_List_4,,,,,,,,,,,,,,,,44290,2020-11-25_09h40.16.230,lingCatScenes,2020.1.3,MacIntel,60,"[1440,900]",,,"[""trial_ahead_box""]",,,,,,,,,,,,park.jpg,space,3.69664,[-0.0028602430555555555],[-0.3057769097222222],[1],[0],[0],[2.0287549999993644],"[""trial_ahead_box""]",0,13,13,75,1,pantry5.jpg,playground6.jpg,operatingroom4.jpg,lockerroom.jpg,,
Image_List_4,,,,,,,,,,,,,,,,44290,2020-11-25_09h40.16.230,lingCatScenes,2020.1.3,MacIntel,60,"[1440,900]",,,"[""trial_sharp_right_box"",""trial_slight_left_box""]",,,,,,,,,,,,kindergarten_classroom7.jpg,space,8.899005,"[0.5934809027777778,-0.21614149305555555]","[-0.2880815972222222,-0.3025173611111111]","[1,1]","[0,0]","[0,0]","[4.911250000000905,7.561120000002006]","[""trial_sharp_right_box"",""trial_slight_left_box""]",0,14,14,61,1,HorseRaceTrack.jpg,metroInside4.jpg,homegarden6.jpg,hayfield6.jpg,,
Image_List_4,,,,,,,,,,,,,,,,44290,2020-11-25_09h40.16.230,lingCatScenes,2020.1.3,MacIntel,60,"[1440,900]",,,"[""trial_ahead_box""]",,,,,,,,,,,,hut5.jpg,space,1.831335,[0.004678819444444445],[-0.29770399305555556],[1],[0],[0],[1.479735000000801],"[""trial_ahead_box""]",0,15,15,57,1,hayfield5.jpg,jail1.jpg,hallway4.jpg,gazebo.jpg,,
Image_List_4,,,,,,,,,,,,,,,,44290,2020-11-25_09h40.16.230,lingCatScenes,2020.1.3,MacIntel,60,"[1440,900]",,,"[""trial_ahead_box"",""trial_right_box"",""trial_left_box""]",,,,,,,,,,,,campusquad4.jpg,space,17.54642,"[0.004418402777777778,0.393046875,-0.38470486111111113]","[-0.29770399305555556,-0.30744791666666665,-0.29573350694444445]","[1,1,1]","[0,0,0]","[0,0,0]","[3.179309999999532,13.795169999997597,16.896224999996775]","[""trial_ahead_box"",""trial_right_box"",""trial_left_box""]",0,16,16,16,1,basement.jpg,cafeteria6.jpg,breakroom2.jpg,barbershop2.jpg,,
Image_List_4,,,,,,,,,,,,,,,,44290,2020-11-25_09h40.16.230,lingCatScenes,2020.1.3,MacIntel,60,"[1440,900]",,,"[""trial_ahead_box""]",,,,,,,,,,,,foodcourt6.jpg,space,7.229265,[0.006640625],[-0.30264756944444443],[1],[0],[0],[5.060335000001714],"[""trial_ahead_box""]",0,17,17,44,1,firestation2.jpg,frontFoyer4.jpg,elevatorOutside1.jpg,dock2.jpg,,
Image_List_4,,,,,,,,,,,,,,,,44290,2020-11-25_09h40.16.230,lingCatScenes,2020.1.3,MacIntel,60,"[1440,900]",,,"[""trial_sharp_right_box"",""trial_left_box""]",,,,,,,,,,,,airplanecabin5.jpg,space,6.52996,"[0.6124826388888889,-0.37949652777777776]","[-0.3025303819444444,-0.3017925347222222]","[1,1]","[0,0]","[0,0]","[4.011984999997367,5.795454999999492]","[""trial_sharp_right_box"",""trial_left_box""]",0,18,18,0,1,airplanecabin1.jpg,alley2.jpg,appleorchard4.jpg,airplanecabin3.jpg,,
Image_List_4,,,,,,,,,,,,,,,,44290,2020-11-25_09h40.16.230,lingCatScenes,2020.1.3,MacIntel,60,"[1440,900]",,,"[""trial_ahead_box"",""trial_right_box"",""trial_left_box""]",,,,,,,,,,,,park2.jpg,space,5.95008,"[-0.022434895833333333,0.42519097222222224,0.4027517361111111,-0.37822916666666667]","[-0.28715711805555555,-0.32289930555555557,-0.28663194444444445,-0.29388454861111113]","[1,1,1,1]","[0,0,0,0]","[0,0,0,0]","[1.562900000000809,2.9630850000030478,4.028825000001234,5.229470000002038]","[""trial_ahead_box"",""trial_right_box"",""trial_left_box""]",0,19,19,76,1,parkinggarage.jpg,playroom4.jpg,parkinggarage3.jpg,lookout4.jpg,,
Image_List_4,,,,,,,,,,,,,,,,44290,2020-11-25_09h40.16.230,lingCatScenes,2020.1.3,MacIntel,60,"[1440,900]",,,"[""trial_ahead_box""]",,,,,,,,,,,,sandDunes_desert_outdoor8.jpg,space,2.932035,[0.015572916666666667],[-0.32307291666666665],[1],[0],[0],[2.346205000001646],"[""trial_ahead_box""]",0,20,20,86,1,restaurant14.jpg,stripmall.jpg,ruralroad3.jpg,rooftop4.jpg,,
Image_List_4,,,,,,,,,,,,,,,,44290,2020-11-25_09h40.16.230,lingCatScenes,2020.1.3,MacIntel,60,"[1440,900]",,,"[""trial_ahead_box"",""trial_sharp_right_box"",""trial_slight_left_box""]",,,,,,,,,,,,cemetery.jpg,space,12.31329,"[0.0025911458333333333,0.6111067708333333,-0.2071440972222222]","[-0.3056770833333333,-0.2986501736111111,-0.29920138888888886]","[1,1,1]","[0,0,0]","[0,0,0]","[2.911830000000805,7.045705000000339,10.261955000001649]","[""trial_ahead_box"",""trial_sharp_right_box"",""trial_slight_left_box""]",0,21,21,22,1,bowlingalley5.jpg,church6.jpg,cargo5.jpg,bistrooutdoor6.jpg,,
Image_List_4,,,,,,,,,,,,,,,,44290,2020-11-25_09h40.16.230,lingCatScenes,2020.1.3,MacIntel,60,"[1440,900]",,,"[""trial_ahead_box"",""trial_right_box"",""trial_sharp_left_box""]",,,,,,,,,,,,wrestlingring7.jpg,space,8.07991,"[0.012630208333333334,0.4009157986111111,-0.5955815972222223]","[-0.30648003472222224,-0.3093185763888889,-0.3085112847222222]","[1,1,1]","[0,0,0]","[0,0,0]","[3.2124399999994466,5.262904999999591,7.428004999997938]","[""trial_ahead_box"",""trial_right_box"",""trial_sharp_left_box""]",0,22,22,99,1,wineVineyard9.jpg,yogastudio4.jpg,windmill2.jpg,yogastudio1.jpg,,
Image_List_4,,,,,,,,,,,,,,,,44290,2020-11-25_09h40.16.230,lingCatScenes,2020.1.3,MacIntel,60,"[1440,900]",,,"[""trial_ahead_box"",""trial_right_box"",""trial_sharp_left_box""]",,,,,,,,,,,,airportTerminal3.jpg,space,12.063425,"[-0.0006336805555555555,0.4093836805555556,-0.6002430555555556]","[-0.2919097222222222,-0.3136154513888889,-0.3054123263888889]","[1,1,1]","[0,0,0]","[0,0,0]","[6.76208500000223,8.395880000000147,10.744750000001773]","[""trial_ahead_box"",""trial_right_box"",""trial_sharp_left_box""]",0,23,23,1,1,airportTerminal4.jpg,apartmentBuilding1.jpg,applestore1.jpg,airportTerminal2.jpg,,
Image_List_4,,,,,,,,,,,,,,,,44290,2020-11-25_09h40.16.230,lingCatScenes,2020.1.3,MacIntel,60,"[1440,900]",,,"[""trial_ahead_box""]",,,,,,,,,,,,homegarage3.jpg,space,2.564865,"[-0.028033854166666667,-0.006705729166666666]","[-0.30352864583333333,-0.30416666666666664]","[1,1]","[0,0]","[0,0]","[1.4627350000010892,2.1624400000000605]","[""trial_ahead_box""]",0,24,24,53,1,gazebo3.jpg,homeoffice.jpg,frontLawn3.jpg,fountain.jpg,,
Image_List_4,,,,,,,,,,,,,,,,44290,2020-11-25_09h40.16.230,lingCatScenes,2020.1.3,MacIntel,60,"[1440,900]",,,"[""trial_sharp_right_box""]",,,,,,,,,,,,cabinIndoors.jpg,space,3.510635,[0.5864019097222222],[-0.3207291666666667],[1],[0],[0],[2.795320000001084],"[""trial_sharp_right_box""]",0,25,25,15,1,bambooforest4.jpg,cafeteria5.jpg,bleachers8.jpg,bar8.jpg,,
Image_List_4,,,,,,,,,,,,,,,,44290,2020-11-25_09h40.16.230,lingCatScenes,2020.1.3,MacIntel,60,"[1440,900]",,,"[""trial_sharp_right_box"",""trial_left_box""]",,,,,,,,,,,,winebarrel4.jpg,space,7.799005,"[0.5906119791666666,-0.3820920138888889]","[-0.29917100694444443,-0.2917751736111111]","[1,1]","[0,0]","[0,0]","[5.077149999997346,7.361514999996871]","[""trial_sharp_right_box"",""trial_left_box""]",0,26,26,98,1,weightroom5.jpg,wineVineyard8.jpg,warehouse3.jpg,winebarrel2.jpg,,
Image_List_4,,,,,,,,,,,,,,,,44290,2020-11-25_09h40.16.230,lingCatScenes,2020.1.3,MacIntel,60,"[1440,900]",,,"[""trial_ahead_box"",""trial_left_box"",""trial_sharp_right_box""]",,,,,,,,,,,,lockerroom2.jpg,space,7.530015,"[-0.011176215277777778,-0.39390625,0.6189453125]","[-0.2909982638888889,-0.3096484375,-0.30105034722222224]","[1,1,1]","[0,0,0]","[0,0,0]","[2.562334999998825,4.228985000001671,6.995244999998249]","[""trial_ahead_box"",""trial_left_box"",""trial_sharp_right_box""]",0,27,27,68,1,liquorstore7.jpg,parkinglot.jpg,lightingstore4.jpg,hospitalroom3.jpg,,
Image_List_4,,,,,,,,,,,,,,,,44290,2020-11-25_09h40.16.230,lingCatScenes,2020.1.3,MacIntel,60,"[1440,900]",,,"[""trial_ahead_box""]",,,,,,,,,,,,courtroom2.jpg,space,1.81302,[-0.015073784722222223],[-0.29125868055555554],[1],[0],[0],[1.4782999999988533],"[""trial_ahead_box""]",0,28,28,31,1,cubicle4.jpg,desertvegetation6.jpg,conference4.jpg,cabin3.jpg,,
Image_List_4,,,,,,,,,,,,,,,,44290,2020-11-25_09h40.16.230,lingCatScenes,2020.1.3,MacIntel,60,"[1440,900]",,,"[""trial_ahead_box""]",,,,,,,,,,,,operatingroom1.jpg,space,2.69678,[-0.015073784722222223],[-0.29125868055555554],[1],[0],[0],[1.8459750000002941],"[""trial_ahead_box""]",0,29,29,74,1,newsstand2.jpg,playground10.jpg,observatory4.jpeg,lightingstore2.jpg,,
Image_List_4,,,,,,,,,,,,,,,,44290,2020-11-25_09h40.16.230,lingCatScenes,2020.1.3,MacIntel,60,"[1440,900]",,,"[""trial_ahead_box""]",,,,,,,,,,,,cave5.jpg,space,4.145575,"[-0.015073784722222223,-0.015073784722222223,-0.015073784722222223]","[-0.29125868055555554,-0.29125868055555554,-0.29125868055555554]","[1,1,1]","[0,0,0]","[0,0,0]","[1.8443950000000768,2.1780600000021195,3.677899999998772]","[""trial_ahead_box"",""trial_ahead_box"",""trial_ahead_box""]",0,30,30,21,1,botanicalGarden6.jpg,cemetery6.jpg,campusquad3.jpg,beach1.jpeg,,
Image_List_4,,,,,,,,,,,,,,,,44290,2020-11-25_09h40.16.230,lingCatScenes,2020.1.3,MacIntel,60,"[1440,900]",,,"[""trial_ahead_box""]",,,,,,,,,,,,hallway2.jpg,space,2.446475,[-0.015073784722222223],[-0.29125868055555554],[1],[0],[0],[2.1281999999991967],"[""trial_ahead_box""]",0,31,31,50,1,frontLawn4.jpg,grocerystore6.jpg,forestpath6.jpg,fireplace4.jpg,,
Image_List_4,,,,,,,,,,,,,,,,44290,2020-11-25_09h40.16.230,lingCatScenes,2020.1.3,MacIntel,60,"[1440,900]",,,"[""trial_right_box""]",,,,,,,,,,,,copyroom2.jpg,space,3.31255,[0.40346354166666665],[-0.29827256944444447],[1],[0],[0],[2.445439999999394],"[""trial_right_box""]",0,32,32,30,1,courthouse1.jpg,desertvegetation3.jpg,clothingstore2.jpg,bus_shelter3.jpg,,
Image_List_4,,,,,,,,,,,,,,,,44290,2020-11-25_09h40.16.230,lingCatScenes,2020.1.3,MacIntel,60,"[1440,900]",,,"[""trial_ahead_box"",""trial_sharp_right_box"",""trial_left_box""]",,,,,,,,,,,,soccerfield.jpg,space,5.59742,"[0.0067317708333333335,0.5997743055555556,-0.4060416666666667]","[-0.29585069444444445,-0.3056857638888889,-0.29105902777777776]","[1,1,1]","[0,0,0]","[0,0,0]","[1.6291500000006636,3.944790000001376,5.1789000000026135]","[""trial_ahead_box"",""trial_sharp_right_box"",""trial_left_box""]",0,33,33,88,1,rooftop1.jpg,track.jpg,sculpturegarden4.jpg,sandbox.jpg,,
Image_List_4,,,,,,,,,,,,,,,,44290,2020-11-25_09h40.16.230,lingCatScenes,2020.1.3,MacIntel,60,"[1440,900]",,,"[""trial_left_box""]",,,,,,,,,,,,ticket_counter6.jpg,space,4.262855,"[-0.0021397569444444446,-0.3983203125,-0.021006944444444446]","[-0.29571180555555554,-0.3039279513888889,-0.28578125]","[1,1,1]","[0,0,0]","[0,0,0]","[1.4136399999988498,2.8122149999981048,3.8288049999973737]","[""trial_ahead_box"",""trial_left_box"",""trial_ahead_box""]",0,34,34,91,1,shoestore2.jpg,trainStation5.jpg,skatepark5.jpg,sidewalk3.jpg,,
Image_List_4,,,,,,,,,,,,,,,,44290,2020-11-25_09h40.16.230,lingCatScenes,2020.1.3,MacIntel,60,"[1440,900]",,,"[""trial_ahead_box""]",,,,,,,,,,,,hut1.jpg,space,1.58011,[-0.021006944444444446],[-0.28578125],[1],[0],[0],[0.9632449999990058],"[""trial_ahead_box""]",0,35,35,56,1,grocerystore5.jpg,hut3.jpg,golfcourse10.jpg,gasstation2.jpg,,
Image_List_4,,,,,,,,,,,,,,,,44290,2020-11-25_09h40.16.230,lingCatScenes,2020.1.3,MacIntel,60,"[1440,900]",,,"[""trial_slight_right_box""]",,,,,,,,,,,,museum4.jpg,space,2.31207,[0.21746527777777777],[-0.31787760416666666],[1],[0],[0],[1.9292549999989888],"[""trial_slight_right_box""]",0,36,36,72,1,museum5.jpg,pharmacy4.jpg,musicStore1.jpg,kindergarten_classroom.jpg,,
Image_List_4,,,,,,,,,,,,,,,,44290,2020-11-25_09h40.16.230,lingCatScenes,2020.1.3,MacIntel,60,"[1440,900]",,,"[""trial_ahead_box""]",,,,,,,,,,,,foodcourt.jpg,space,2.062645,[0.0013845486111111111],[-0.2927430555555556],[1],[0],[0],[1.712084999999206],"[""trial_ahead_box""]",0,37,37,43,1,exerciseequipment5.jpg,forestpath10.jpg,dugout2.jpg,diningroom3.jpg,,
Image_List_4,,,,,,,,,,,,,,,,44290,2020-11-25_09h40.16.230,lingCatScenes,2020.1.3,MacIntel,60,"[1440,900]",,,"[""trial_ahead_box""]",,,,,,,,,,,,baywindow5.jpg,space,2.32943,[0.0013845486111111111],[-0.2927430555555556],[1],[0],[0],[1.929459999999608],"[""trial_ahead_box""]",0,38,38,11,1,backyard2.jpg,basketballcourt4.jpg,bambooforest3.jpg,backyard1.jpg,,
Image_List_4,,,,,,,,,,,,,,,,44290,2020-11-25_09h40.16.230,lingCatScenes,2020.1.3,MacIntel,60,"[1440,900]",,,"[""trial_ahead_box"",""trial_left_box""]",,,,,,,,,,,,staircase7.jpg,space,3.598485,"[0.0013845486111111111,-0.38589409722222223]","[-0.2927430555555556,-0.3069704861111111]","[1,1]","[0,0]","[0,0]","[1.4125050000002375,2.8630650000012565]","[""trial_ahead_box"",""trial_left_box""]",0,39,39,89,1,ruralroad7.jpg,track5.jpg,ShowJumping7.jpg,sculpturegarden3.jpg,,
Image_List_4,,,,,,,,,,,,,,,,44290,2020-11-25_09h40.16.230,lingCatScenes,2020.1.3,MacIntel,60,"[1440,900]",,,"[""trial_ahead_box""]",,,,,,,,,,,,castle2.jpg,space,2.04565,[-0.0008029513888888889],[-0.2899305555555556],[1],[0],[0],[1.7016199999998207],"[""trial_ahead_box""]",0,40,40,18,1,bleachers5.jpg,casino1.jpg,brewery4.jpg,basement6.jpg,,
Image_List_4,,,,,,,,,,,,,,,,44290,2020-11-25_09h40.16.230,lingCatScenes,2020.1.3,MacIntel,60,"[1440,900]",,,[],,,,,,,,,,,,highway.jpg,space,1.552515,[],[],[],[],[],[],[],0,41,41,52,1,gasstation7.jpg,hardwarestore1.jpg,frontFoyer6.jpg,forestpath2.jpg,,
Image_List_4,,,,,,,,,,,,,,,,44290,2020-11-25_09h40.16.230,lingCatScenes,2020.1.3,MacIntel,60,"[1440,900]",,,"[""trial_ahead_box""]",,,,,,,,,,,,drymountains5.jpg,space,3.163925,[-0.0008029513888888889],[-0.2899305555555556],[1],[0],[0],[2.8288599999978032],"[""trial_ahead_box""]",0,42,42,39,1,driveway6.jpg,eyeglassstore9.jpg,drycleaners6.jpg,cliff5.jpg,,
Image_List_4,,,,,,,,,,,,,,,,44290,2020-11-25_09h40.16.230,lingCatScenes,2020.1.3,MacIntel,60,"[1440,900]",,,"[""trial_slight_right_box""]",,,,,,,,,,,,restaurant8.jpg,space,2.713635,[0.21165364583333332],[-0.31885416666666666],[1],[0],[0],[1.7630950000020675],"[""trial_slight_right_box""]",0,43,43,83,1,readingroom1.jpg,sculpturegarden1.jpg,promenadeDeck6.jpg,readingroom2.jpg,,
Image_List_4,,,,,,,,,,,,,,,,44290,2020-11-25_09h40.16.230,lingCatScenes,2020.1.3,MacIntel,60,"[1440,900]",,,"[""trial_slight_left_box""]",,,,,,,,,,,,appleorchard2.jpg,space,4.226695,[-0.2064887152777778],[-0.30908420138888887],[1],[0],[0],[3.3101449999994657],"[""trial_slight_left_box""]",0,44,44,3,1,apartmentBuilding2.jpg,attic1.jpg,aquarium1.jpg,alley3.jpg,,
Image_List_4,,,,,,,,,,,,,,,,44290,2020-11-25_09h40.16.230,lingCatScenes,2020.1.3,MacIntel,60,"[1440,900]",,,"[""trial_slight_right_box"",""trial_slight_left_box""]",,,,,,,,,,,,tvstudio2.jpg,space,5.33045,"[0.1995876736111111,-0.19442274305555557]","[-0.289296875,-0.29260850694444446]","[1,1]","[0,0]","[0,0]","[2.9951749999999038,4.6621999999988475]","[""trial_slight_right_box"",""trial_slight_left_box""]",0,45,45,92,1,staircase.jpg,volleyballcourt.jpg,skatepark7.jpg,soccerfield2.jpg,,
Image_List_4,,,,,,,,,,,,,,,,44290,2020-11-25_09h40.16.230,lingCatScenes,2020.1.3,MacIntel,60,"[1440,900]",,,"[""trial_slight_right_box""]",,,,,,,,,,,,bleachers7.jpg,space,2.729545,[0.1814453125],[-0.2970095486111111],[1],[0],[0],[2.3618150000000924],"[""trial_slight_right_box""]",0,46,46,12,1,baggageClaim4.jpg,bedroom6.jpg,bambooforest5.jpg,backyard5.jpg,,
Image_List_4,,,,,,,,,,,,,,,,44290,2020-11-25_09h40.16.230,lingCatScenes,2020.1.3,MacIntel,60,"[1440,900]",,,"[""trial_ahead_box""]",,,,,,,,,,,,winebarrel3.jpg,space,1.9799,[-0.012912326388888888],[-0.30682291666666667],[1],[0],[0],[1.6126400000030117],"[""trial_ahead_box""]",0,47,47,97,1,warehouseoutside4.jpg,wineVineyard2.jpg,waitingroom4.jpg,warehouseoutside3.jpg,,
Image_List_4,,,,,,,,,,,,,,,,44290,2020-11-25_09h40.16.230,lingCatScenes,2020.1.3,MacIntel,60,"[1440,900]",,,"[""trial_ahead_box""]",,,,,,,,,,,,churchInside3.jpg,space,1.547345,[-0.012912326388888888],[-0.30682291666666667],[1],[0],[0],[1.1123850000003586],"[""trial_ahead_box""]",0,48,48,26,1,campusquad2.jpg,cornfield4.jpg,church4.jpg,botanicalGarden7.jpg,,
Image_List_4,,,,,,,,,,,,,,,,44290,2020-11-25_09h40.16.230,lingCatScenes,2020.1.3,MacIntel,60,"[1440,900]",,,"[""trial_ahead_box""]",,,,,,,,,,,,checkoutcounter2.jpg,space,3.063725,[-0.012912326388888888],[-0.30682291666666667],[1],[0],[0],[2.595679999998538],"[""trial_ahead_box""]",0,49,49,25,1,campsite7.jpg,conference3.jpg,church3.jpg,botanicalGarden4.jpg,,
Image_List_4,,,,,,,,,,,,,,,,44290,2020-11-25_09h40.16.230,lingCatScenes,2020.1.3,MacIntel,60,"[1440,900]",,,"[""trial_slight_right_box""]",,,,,,,,,,,,hotelRoom7.jpg,space,2.046235,[0.20240885416666668],[-0.31914930555555554],[1],[0],[0],[1.645164999998201],"[""trial_slight_right_box""]",0,50,50,55,1,greenmountains.jpg,hotelRoom3.jpg,gazebo5.jpg,frontLawn2.jpg,,
Image_List_4,,,,,,,,,,,,,,,,44290,2020-11-25_09h40.16.230,lingCatScenes,2020.1.3,MacIntel,60,"[1440,900]",,,"[""trial_ahead_box""]",,,,,,,,,,,,hayfield4.jpg,space,2.195105,[0.0054600694444444445],[-0.3013237847222222],[1],[0],[0],[1.6471549999987474],"[""trial_ahead_box""]",0,51,51,51,1,gasstation6.jpg,hallway5.jpg,frontDoor5.jpg,firestation5.jpg,,
Image_List_4,,,,,,,,,,,,,,,,44290,2020-11-25_09h40.16.230,lingCatScenes,2020.1.3,MacIntel,60,"[1440,900]",,,"[""trial_ahead_box""]",,,,,,,,,,,,farm4.jpg,space,2.210965,[0.0054600694444444445],[-0.3013237847222222],[1],[0],[0],[1.3439049999979034],"[""trial_ahead_box""]",0,52,52,42,1,exerciseequipment3.jpg,firestation3.jpg,drymountains6.jpg,desertvegetation2.jpg,,
Image_List_4,,,,,,,,,,,,,,,,44290,2020-11-25_09h40.16.230,lingCatScenes,2020.1.3,MacIntel,60,"[1440,900]",,,"[""trial_slight_right_box"",""trial_ahead_box""]",,,,,,,,,,,,cemetery5.jpg,space,5.564885,"[0.1926953125,-0.012894965277777778]","[-0.3135590277777778,-0.2898394097222222]","[1,1]","[0,0]","[0,0]","[2.712729999999283,3.428810000001363]","[""trial_slight_right_box"",""trial_ahead_box""]",0,53,53,24,1,campsite.jpg,cliff3.jpg,cave6.jpg,boardwalk.jpg,,
Image_List_4,,,,,,,,,,,,,,,,44290,2020-11-25_09h40.16.230,lingCatScenes,2020.1.3,MacIntel,60,"[1440,900]",,,"[""trial_ahead_box""]",,,,,,,,,,,,appleorchard3.jpg,space,2.06175,[0.006549479166666667],[-0.2820269097222222],[1],[0],[0],[1.694149999999354],"[""trial_ahead_box""]",0,54,54,4,1,artStudio1.jpg,baggageClaim2.jpg,auto_showroom1.jpg,alley4.jpg,,
Image_List_4,,,,,,,,,,,,,,,,44290,2020-11-25_09h40.16.230,lingCatScenes,2020.1.3,MacIntel,60,"[1440,900]",,,"[""trial_slight_left_box""]",,,,,,,,,,,,weightroom.jpg,space,2.297525,[-0.22078125],[-0.3133767361111111],[1],[0],[0],[1.8798800000005258],"[""trial_slight_left_box""]",0,55,55,94,1,treehouse.jpg,waitingroom3.jpg,staircase6.jpg,trainStation3.jpg,,
Image_List_4,,,,,,,,,,,,,,,,44290,2020-11-25_09h40.16.230,lingCatScenes,2020.1.3,MacIntel,60,"[1440,900]",,,"[""trial_slight_right_box""]",,,,,,,,,,,,closet.jpg,space,5.315095,[0.18182291666666667],[-0.29151475694444445],[1],[0],[0],[4.980270000000019],"[""trial_slight_right_box""]",0,56,56,27,1,castle3.jpg,courtroom3.jpg,churchInside4.jpg,brewery2.jpg,,
Image_List_4,,,,,,,,,,,,,,,,44290,2020-11-25_09h40.16.230,lingCatScenes,2020.1.3,MacIntel,60,"[1440,900]",,,"[""trial_slight_left_box"",""trial_right_box""]",,,,,,,,,,,,lab3.jpg,space,4.99903,"[-0.22809461805555556,-0.20019097222222224,0.22782552083333332,0.3976649305555556]","[-0.28621961805555557,-0.28842881944444443,-0.3026345486111111,-0.3121788194444444]","[1,1,1,1]","[0,0,0,0]","[0,0,0,0]","[1.8953399999991234,2.646624999997698,3.912449999999808,4.679054999996879]","[""trial_slight_left_box"",""trial_right_box""]",0,57,57,62,1,hotellobby2.jpg,minigolf.jpg,horsebarn8.jpg,hayfield7.jpg,,
Image_List_4,,,,,,,,,,,,,,,,44290,2020-11-25_09h40.16.230,lingCatScenes,2020.1.3,MacIntel,60,"[1440,900]",,,"[""trial_ahead_box""]",,,,,,,,,,,,dining_car6.jpg,space,1.629285,[-0.013741319444444445],[-0.2828125],[1],[0],[0],[1.2788650000002235],"[""trial_ahead_box""]",0,58,58,35,1,deck5.jpg,dock3.jpg,cubicle7.jpg,carmechanic2.jpg,,
Image_List_4,,,,,,,,,,,,,,,,44290,2020-11-25_09h40.16.230,lingCatScenes,2020.1.3,MacIntel,60,"[1440,900]",,,"[""trial_ahead_box""]",,,,,,,,,,,,stripmall3.jpg,space,1.913825,[-0.013741319444444445],[-0.2828125],[1],[0],[0],[1.579134999999951],"[""trial_ahead_box""]",0,59,59,90,1,savanna5.jpg,trainStation1.jpg,sidewalk1.jpg,shoestore4.jpg,,
Image_List_4,,,,,,,,,,,,,,,,44290,2020-11-25_09h40.16.230,lingCatScenes,2020.1.3,MacIntel,60,"[1440,900]",,,"[""trial_ahead_box""]",,,,,,,,,,,,fountain4.jpg,space,4.14542,[-0.013741319444444445],[-0.2828125],[1],[0],[0],[3.895445000001928],"[""trial_ahead_box""]",0,60,60,46,1,flowershop.jpg,frontLawn5.jpg,farmersmarket4.jpg,dormroom6.jpg,,
Image_List_4,,,,,,,,,,,,,,,,44290,2020-11-25_09h40.16.230,lingCatScenes,2020.1.3,MacIntel,60,"[1440,900]",,,"[""trial_slight_right_box""]",,,,,,,,,,,,golfcourse7.jpg,space,2.329165,[0.21986111111111112],[-0.3065364583333333],[1],[0],[0],[1.9790050000010524],"[""trial_slight_right_box""]",0,61,61,48,1,frontDoor2.jpg,golfcourse6.jpg,fittingroom5.jpg,fabricstore2.jpg,,
Image_List_4,,,,,,,,,,,,,,,,44290,2020-11-25_09h40.16.230,lingCatScenes,2020.1.3,MacIntel,60,"[1440,900]",,,"[""trial_slight_right_box"",""trial_sharp_left_box""]",,,,,,,,,,,,liquorstore2.jpg,space,5.29573,"[0.23130208333333332,0.20256944444444444,-0.6063107638888889]","[-0.30319010416666664,-0.30052083333333335,-0.2901605902777778]","[1,1,1]","[0,0,0]","[0,0,0]","[1.6461600000002363,2.363245000000461,4.980074999999488]","[""trial_slight_right_box"",""trial_sharp_left_box""]",0,62,62,67,1,library_aisle3.jpg,park7.jpg,laundromat4.jpg,hospitalroom2.jpg,,
Image_List_4,,,,,,,,,,,,,,,,44290,2020-11-25_09h40.16.230,lingCatScenes,2020.1.3,MacIntel,60,"[1440,900]",,,"[""trial_ahead_box""]",,,,,,,,,,,,dentist4.jpg,space,2.098405,[0.0020746527777777777],[-0.3239105902777778],[1],[0],[0],[1.7633249999998952],"[""trial_ahead_box""]",0,63,63,32,1,dancestudio6.jpg,diner12.jpg,constructionSite2.jpg,cabin4.jpg,,
Image_List_4,,,,,,,,,,,,,,,,44290,2020-11-25_09h40.16.230,lingCatScenes,2020.1.3,MacIntel,60,"[1440,900]",,,"[""trial_ahead_box""]",,,,,,,,,,,,rainforest5.jpg,space,1.66313,[0.0020746527777777777],[-0.3239105902777778],[1],[0],[0],[1.078219999999419],"[""trial_ahead_box""]",0,64,64,81,1,promenadeDeck.jpg,ruralroad5.jpg,promenadeDeck2.jpg,pasture8.jpg,,
Image_List_4,,,,,,,,,,,,,,,,44290,2020-11-25_09h40.16.230,lingCatScenes,2020.1.3,MacIntel,60,"[1440,900]",,,"[""trial_ahead_box""]",,,,,,,,,,,,apartmentBuilding4.jpg,space,1.832485,[0.0020746527777777777],[-0.3239105902777778],[1],[0],[0],[1.4945499999994354],"[""trial_ahead_box""]",0,65,65,2,1,alley1.jpg,arcade1.jpg,applestore6.jpg,airportTerminal6.jpg,,
Image_List_4,,,,,,,,,,,,,,,,44290,2020-11-25_09h40.16.230,lingCatScenes,2020.1.3,MacIntel,60,"[1440,900]",,,"[""trial_ahead_box""]",,,,,,,,,,,,doctor1.jpg,space,1.73054,[0.0020746527777777777],[-0.3239105902777778],[1],[0],[0],[1.2785550000007788],"[""trial_ahead_box""]",0,66,66,36,1,diner14.jpg,dormroom9.jpg,dining_car3.jpg,checkoutcounter9.jpg,,
Image_List_4,,,,,,,,,,,,,,,,44290,2020-11-25_09h40.16.230,lingCatScenes,2020.1.3,MacIntel,60,"[1440,900]",,,"[""trial_ahead_box""]",,,,,,,,,,,,cemetery3.jpg,space,1.64807,[0.0020746527777777777],[-0.3239105902777778],[1],[0],[0],[1.3304500000011785],"[""trial_ahead_box""]",0,67,67,23,1,bus_shelter.jpg,church8.jpg,carmechanic4.jpeg,bleachers6.jpg,,
Image_List_4,,,,,,,,,,,,,,,,44290,2020-11-25_09h40.16.230,lingCatScenes,2020.1.3,MacIntel,60,"[1440,900]",,,"[""trial_right_box"",""trial_ahead_box"",""trial_sharp_left_box""]",,,,,,,,,,,,kindergarten_classroom6.jpg,space,6.463455,"[0.40533420138888887,0.0015451388888888889,-0.6076736111111111]","[-0.3107508680555556,-0.2884114583333333,-0.2994574652777778]","[1,1,1]","[0,0,0]","[0,0,0]","[3.045774999998798,4.394970000001308,6.21210000000076]","[""trial_right_box"",""trial_ahead_box"",""trial_sharp_left_box""]",0,68,68,60,1,hometheater2.jpg,lightingstore3.jpg,homegarage.jpg,hallway.jpg,,
Image_List_4,,,,,,,,,,,,,,,,44290,2020-11-25_09h40.16.230,lingCatScenes,2020.1.3,MacIntel,60,"[1440,900]",,,"[""trial_slight_right_box""]",,,,,,,,,,,,igloo4.jpg,space,2.94755,"[0.2295095486111111,0.21534288194444445]","[-0.28889322916666665,-0.2941840277777778]","[1,1]","[0,0]","[0,0]","[1.579939999999624,2.1120300000002317]","[""trial_slight_right_box""]",0,69,69,58,1,highway7.jpg,lab1.jpg,hedgemaze1.jpg,grocerystore2.jpg,,
Image_List_4,,,,,,,,,,,,,,,,44290,2020-11-25_09h40.16.230,lingCatScenes,2020.1.3,MacIntel,60,"[1440,900]",,,"[""trial_ahead_box""]",,,,,,,,,,,,baggageClaim1.jpg,space,1.833425,[0.013016493055555555],[-0.2859331597222222],[1],[0],[0],[1.5301700000018172],"[""trial_ahead_box""]",0,70,70,6,1,ATM1.jpg,banquetHall2.jpg,auto_showroom5.jpg,apartmentBuilding3.jpg,,
Image_List_4,,,,,,,,,,,,,,,,44290,2020-11-25_09h40.16.230,lingCatScenes,2020.1.3,MacIntel,60,"[1440,900]",,,"[""trial_ahead_box""]",,,,,,,,,,,,homegarage4.jpg,space,1.21291,[0.013016493055555555],[-0.2859331597222222],[1],[0],[0],[0.9296900000008463],"[""trial_ahead_box""]",0,71,71,54,1,greenhouse2.jpg,horsebarn11.jpg,gazebo2.jpg,frontFoyer.jpg,,
Image_List_4,,,,,,,,,,,,,,,,44290,2020-11-25_09h40.16.230,lingCatScenes,2020.1.3,MacIntel,60,"[1440,900]",,,"[""trial_ahead_box""]",,,,,,,,,,,,sandDunes_desert_outdoor3.jpg,space,1.09857,[0.013016493055555555],[-0.2859331597222222],[1],[0],[0],[0.7778449999970007],"[""trial_ahead_box""]",0,72,72,85,1,recordingstudio4.jpg,sidewalk5.jpg,ruralroad2.jpg,rooftop3.jpg,,
Image_List_4,,,,,,,,,,,,,,,,44290,2020-11-25_09h40.16.230,lingCatScenes,2020.1.3,MacIntel,60,"[1440,900]",,,"[""trial_ahead_box"",""trial_slight_right_box"",""trial_sharp_left_box""]",,,,,,,,,,,,lab4.jpg,space,4.365225,"[0.013016493055555555,0.22181857638888888,-0.5971527777777778]","[-0.2859331597222222,-0.3203472222222222,-0.2866579861111111]","[1,1,1]","[0,0,0]","[0,0,0]","[1.196429999999964,2.013474999999744,4.029985000001034]","[""trial_ahead_box"",""trial_slight_right_box"",""trial_sharp_left_box""]",0,73,73,63,1,hut2.jpg,museum6.jpg,hotelRoom2.jpg,highway2.jpg,,
Image_List_4,,,,,,,,,,,,,,,,44290,2020-11-25_09h40.16.230,lingCatScenes,2020.1.3,MacIntel,60,"[1440,900]",,,"[""trial_ahead_box""]",,,,,,,,,,,,diner11.jpg,space,2.546435,"[0.006614583333333333,0.010182291666666666]","[-0.27444444444444444,-0.2948046875]","[1,1]","[0,0]","[0,0]","[1.42870000000039,2.196670000001177]","[""trial_ahead_box""]",0,74,74,34,1,deck4.jpg,diningroom5.jpg,courthouse4.jpg,campusquad1.jpg,,
Image_List_4,,,,,,,,,,,,,,,,44290,2020-11-25_09h40.16.230,lingCatScenes,2020.1.3,MacIntel,60,"[1440,900]",,,"[""trial_ahead_box""]",,,,,,,,,,,,park8.jpg,space,1.28329,[0.010182291666666666],[-0.2936328125],[1],[0],[0],[0.9611299999996845],"[""trial_ahead_box""]",0,75,75,77,1,parkinggarage2.jpg,playroom6.jpg,pasture9.jpg,mallindoor6.jpg,,
Image_List_4,,,,,,,,,,,,,,,,44290,2020-11-25_09h40.16.230,lingCatScenes,2020.1.3,MacIntel,60,"[1440,900]",,,"[""trial_slight_left_box""]",,,,,,,,,,,,greenhouse.jpg,space,3.196775,"[-0.20308159722222222,-0.11168836805555556]","[-0.2869010416666667,-0.2210329861111111]","[1,1]","[0,0]","[0,0]","[1.99613499999748,2.6792900000000373]","[""trial_slight_left_box""]",0,76,76,49,1,frontDoor3.jpg,greenhouse5.jpg,flowershop3.jpg,farm2.jpg,,
Image_List_4,,,,,,,,,,,,,,,,44290,2020-11-25_09h40.16.230,lingCatScenes,2020.1.3,MacIntel,60,"[1440,900]",,,"[""trial_ahead_box""]",,,,,,,,,,,,windmill1.jpg,space,1.548365,[0.00040364583333333333],[-0.28401909722222224],[1],[0],[0],[1.2302349999991975],"[""trial_ahead_box""]",0,77,77,96,1,warehouse4.jpg,warehouseoutside1.jpg,tenniscourt3.jpg,warehouse1.jpg,,
Image_List_4,,,,,,,,,,,,,,,,44290,2020-11-25_09h40.16.230,lingCatScenes,2020.1.3,MacIntel,60,"[1440,900]",,,"[""trial_slight_right_box""]",,,,,,,,,,,,driveway7.jpg,space,2.297555,[0.20164930555555555],[-0.3161848958333333],[1],[0],[0],[1.946610000002579],"[""trial_slight_right_box""]",0,78,78,37,1,dining_car.jpg,driveway4.jpg,dinosaur4.jpg,citystreet9.jpg,,
Image_List_4,,,,,,,,,,,,,,,,44290,2020-11-25_09h40.16.230,lingCatScenes,2020.1.3,MacIntel,60,"[1440,900]",,,"[""trial_ahead_box""]",,,,,,,,,,,,weightroom4.jpg,space,1.529855,[0.013810763888888888],[-0.2914496527777778],[1],[0],[0],[1.1297799999993003],"[""trial_ahead_box""]",0,79,79,95,1,waitingroom2.jpg,warehouse2.jpg,stripmall6.jpg,tvstudio3.jpg,,
Image_List_4,,,,,,,,,,,,,,,,44290,2020-11-25_09h40.16.230,lingCatScenes,2020.1.3,MacIntel,60,"[1440,900]",,,"[""trial_sharp_right_box""]",,,,,,,,,,,,dugout1.jpg,space,4.86327,[0.609296875],[-0.28028211805555553],[1],[0],[0],[4.5783149999987245],"[""trial_sharp_right_box""]",0,80,80,40,1,drycleaners4.jpg,farm1.jpg,drymountains.jpg,clothingstore3.jpg,,
Image_List_4,,,,,,,,,,,,,,,,44290,2020-11-25_09h40.16.230,lingCatScenes,2020.1.3,MacIntel,60,"[1440,900]",,,"[""trial_ahead_box""]",,,,,,,,,,,,castle4.jpg,space,1.63014,[-0.007309027777777778],[-0.3165104166666667],[1],[0],[0],[1.3454899999996996],"[""trial_ahead_box""]",0,81,81,19,1,boardwalk2.jpg,casino3.jpg,cafeteria1.jpg,basketballcourt.jpg,,
Image_List_4,,,,,,,,,,,,,,,,44290,2020-11-25_09h40.16.230,lingCatScenes,2020.1.3,MacIntel,60,"[1440,900]",,,"[""trial_ahead_box""]",,,,,,,,,,,,baggageClaim3.jpg,space,1.546235,[-0.007309027777777778],[-0.3165104166666667],[1],[0],[0],[1.0124099999993632],"[""trial_ahead_box""]",0,82,82,7,1,attic2.jpg,banquetHall4.jpg,backstage1.jpg,applestore2.jpg,,
Image_List_4,,,,,,,,,,,,,,,,44290,2020-11-25_09h40.16.230,lingCatScenes,2020.1.3,MacIntel,60,"[1440,900]",,,"[""trial_ahead_box"",""trial_slight_left_box""]",,,,,,,,,,,,boardwalk4.jpg,space,2.38062,"[-0.007309027777777778,-0.20819878472222222]","[-0.3165104166666667,-0.3032986111111111]","[1,1]","[0,0]","[0,0]","[0.9458149999991292,2.0463249999993423]","[""trial_ahead_box"",""trial_slight_left_box""]",0,83,83,13,1,balconyIN2.jpg,bowlingalley3.jpg,beach2.jpg,backyard6.jpg,,
Image_List_4,,,,,,,,,,,,,,,,44290,2020-11-25_09h40.16.230,lingCatScenes,2020.1.3,MacIntel,60,"[1440,900]",,,"[""trial_right_box"",""trial_ahead_box"",""trial_left_box""]",,,,,,,,,,,,constructionSite4.jpg,space,7.529655,"[0.4294921875,0.3988064236111111,-0.012265625,-0.3869704861111111]","[-0.29359375,-0.29422309027777777,-0.29226996527777777,-0.2997916666666667]","[1,1,1,1]","[0,0,0,0]","[0,0,0,0]","[3.8623200000001816,4.494619999997667,5.478844999997818,7.161864999998215]","[""trial_right_box"",""trial_ahead_box"",""trial_left_box""]",0,84,84,29,1,cornfield2.jpg,deck2.jpg,cliff2.jpg,bridalboutique3.jpg,,
Image_List_4,,,,,,,,,,,,,,,,44290,2020-11-25_09h40.16.230,lingCatScenes,2020.1.3,MacIntel,60,"[1440,900]",,,"[""trial_ahead_box""]",,,,,,,,,,,,sculpturegarden2.jpg,space,1.86678,[-0.011627604166666666],[-0.28541666666666665],[1],[0],[0],[1.5114150000008522],"[""trial_ahead_box""]",0,85,85,87,1,restaurantkitchen2.jpg,theater2.jpg,savanna.jpg,RVinside2.jpg,,
Image_List_4,,,,,,,,,,,,,,,,44290,2020-11-25_09h40.16.230,lingCatScenes,2020.1.3,MacIntel,60,"[1440,900]",,,"[""trial_right_box""]",,,,,,,,,,,,kindergarten_classroom5.jpg,space,2.30016,[0.39325086805555554],[-0.2869878472222222],[1],[0],[0],[1.9284299999999348],"[""trial_right_box""]",0,86,86,59,1,homegarden7.jpg,library_aisle8.jpg,highway4.jpg,grocerystore3.jpg,,
Image_List_4,,,,,,,,,,,,,,,,44290,2020-11-25_09h40.16.230,lingCatScenes,2020.1.3,MacIntel,60,"[1440,900]",,,"[""trial_slight_right_box""]",,,,,,,,,,,,nursery4.jpg,space,4.181855,"[0.23585503472222222,0.22782986111111111,0.20266493055555557]","[-0.29104600694444444,-0.29104600694444444,-0.28692708333333333]","[1,1,1]","[0,0,0]","[0,0,0]","[2.530904999999734,3.012619999997696,3.6803650000000516]","[""trial_slight_right_box""]",0,87,87,73,1,musicStore3.jpg,photographer_studio2.jpg,nursery.jpg,library_aisle9.jpg,,
Image_List_4,,,,,,,,,,,,,,,,44290,2020-11-25_09h40.16.230,lingCatScenes,2020.1.3,MacIntel,60,"[1440,900]",,,"[""trial_ahead_box""]",,,,,,,,,,,,carmechanic.jpg,space,3.215585,[0.015989583333333335],[-0.2961154513888889],[1],[0],[0],[2.6635499999974854],"[""trial_ahead_box""]",0,88,88,17,1,bikerack1.jpg,campsite6.jpg,breakroom4.jpg,baseball6.jpg,,
Image_List_4,,,,,,,,,,,,,,,,44290,2020-11-25_09h40.16.230,lingCatScenes,2020.1.3,MacIntel,60,"[1440,900]",,,"[""trial_ahead_box""]",,,,,,,,,,,,cave4.jpg,space,1.180875,[0.015989583333333335],[-0.2961154513888889],[1],[0],[0],[0.8625749999991967],"[""trial_ahead_box""]",0,89,89,20,1,boardwalk6.jpg,cave.jpg,campsite3.jpg,basketballcourt7.jpg,,
Image_List_4,,,,,,,,,,,,,,,,44290,2020-11-25_09h40.16.230,lingCatScenes,2020.1.3,MacIntel,60,"[1440,900]",,,"[""trial_left_box""]",,,,,,,,,,,,basement5.jpg,space,4.39491,"[-0.3975911458333333,-0.16180555555555556]","[-0.2960546875,-0.14948350694444446]","[1,1]","[0,0]","[0,0]","[3.2101550000005545,3.9602649999977757]","[""trial_left_box""]",0,90,90,9,1,auto_showroom3.jpg,bar2.jpg,ballroom2.jpg,arcade2.jpg,,
Image_List_4,,,,,,,,,,,,,,,,44290,2020-11-25_09h40.16.230,lingCatScenes,2020.1.3,MacIntel,60,"[1440,900]",,,"[""trial_ahead_box""]",,,,,,,,,,,,clothingstore5.jpg,space,3.196785,[-0.0023828125],[-0.30536024305555554],[1],[0],[0],[2.1290299999999434],"[""trial_ahead_box""]",0,91,91,28,1,churchInside1.jpg,dancestudio5.jpg,citystreet10.jpg,bridalboutique2.jpg,,
Image_List_4,,,,,,,,,,,,,,,,44290,2020-11-25_09h40.16.230,lingCatScenes,2020.1.3,MacIntel,60,"[1440,900]",,,"[""trial_ahead_box""]",,,,,,,,,,,,basketballcourt3.jpg,space,3.7619,[-0.0023828125],[-0.30536024305555554],[1],[0],[0],[2.594665000000532],"[""trial_ahead_box""]",0,92,92,10,1,backstage2.jpg,barbershop3.jpg,ballroom4.jpg,ATM4.jpg,,
Image_List_4,,,,,,,,,,,,,,,,44290,2020-11-25_09h40.16.230,lingCatScenes,2020.1.3,MacIntel,60,"[1440,900]",,,[],,,,,,,,,,,,fabricstore1.jpg,space,0.76351,[],[],[],[],[],[],[],0,93,93,41,1,dugout4.jpg,farm3.jpg,drymountains3.jpg,dentist2.jpg,,
Image_List_4,,,,,,,,,,,,,,,,44290,2020-11-25_09h40.16.230,lingCatScenes,2020.1.3,MacIntel,60,"[1440,900]",,,"[""trial_sharp_right_box""]",,,,,,,,,,,,botanicalGarden5.jpg,space,7.31201,"[0.5622526041666667,0.5991319444444444]","[-0.28835069444444444,-0.3009027777777778]","[1,1]","[0,0]","[0,0]","[6.279624999999328,6.829539999998815]","[""trial_sharp_right_box""]",0,94,94,14,1,ballroom1.jpg,breakroom5.jpg,bistrooutdoor5.jpg,ballroom3.jpg,,
Image_List_4,,,,,,,,,,,,,,,,44290,2020-11-25_09h40.16.230,lingCatScenes,2020.1.3,MacIntel,60,"[1440,900]",,,"[""trial_ahead_box""]",,,,,,,,,,,,bar.jpg,space,2.02999,[-0.004618055555555556],[-0.30301215277777777],[1],[0],[0],[1.6618300000010322],"[""trial_ahead_box""]",0,95,95,8,1,attic3.jpg,banquetHall6.jpg,balconyIN.jpg,applestore4.jpg,,
Image_List_4,,,,,,,,,,,,,,,,44290,2020-11-25_09h40.16.230,lingCatScenes,2020.1.3,MacIntel,60,"[1440,900]",,,"[""trial_ahead_box"",""trial_sharp_right_box""]",,,,,,,,,,,,labClass7.jpg,space,6.231435,"[-0.0051736111111111115,0.6110763888888889]","[-0.30301215277777777,-0.2988064236111111]","[1,1]","[0,0]","[0,0]","[3.5448799999976472,5.862874999998894]","[""trial_ahead_box"",""trial_sharp_right_box""]",0,96,96,65,1,igloo5.jpg,newsstand7.jpg,laundromat2.jpeg,homeoffice8.jpg,,
Image_List_4,,,,,,,,,,,,,,,,44290,2020-11-25_09h40.16.230,lingCatScenes,2020.1.3,MacIntel,60,"[1440,900]",,,"[""trial_ahead_box""]",,,,,,,,,,,,fountain7.jpg,space,3.51374,"[0.027552083333333335,-0.0007508680555555555]","[-0.30829427083333333,-0.30536024305555554]","[1,1]","[0,0]","[0,0]","[2.2456549999988056,2.9291899999989255]","[""trial_ahead_box""]",0,97,97,47,1,frontDoor.jpg,gasstation8.jpg,firestation4.jpg,elevatorOutside2.jpg,,
Image_List_4,,,,,,,,,,,,,,,,44290,2020-11-25_09h40.16.230,lingCatScenes,2020.1.3,MacIntel,60,"[1440,900]",,,"[""trial_ahead_box""]",,,,,,,,,,,,pier2.jpg,space,7.029295,[-0.007313368055555556],[-0.3086154513888889],[1],[0],[0],[6.663480000002892],"[""trial_ahead_box""]",0,98,98,79,1,pasture.jpg,poolhall2.jpeg,playground9.jpg,observatory2.jpg,,
Image_List_4,,,,,,,,,,,,,,,,44290,2020-11-25_09h40.16.230,lingCatScenes,2020.1.3,MacIntel,60,"[1440,900]",,,"[""trial_ahead_box""]",,,,,,,,,,,,museum3.jpg,space,50.826825,[-0.007313368055555556],[-0.29932725694444445],[1],[0],[0],[50.126319999999396],"[""trial_ahead_box""]",0,99,99,71,1,metroInside2.jpg,pavilion5.jpg,metroInside3.jpg,jewelrystore.jpg,,
Image_List_4,,,,,,,,,,,,,,,,44290,2020-11-25_09h40.16.230,lingCatScenes,2020.1.3,MacIntel,60,,,,,,,,,,,,,,,,,,,,,,,,,,,,,,,,,,,space,56.459265
