image_list,key_resp_intructions.keys,key_resp_intructions.rt,key_resp_intructions_3.keys,key_resp_intructions_3.rt,PracticeComplete_2.keys,PracticeComplete_2.rt,PracticeComplete_3.keys,PracticeComplete_3.rt,demo_trials.thisRepN,demo_trials.thisTrialN,demo_trials.thisN,demo_trials.thisIndex,demo_trials.ran,demo_images,path_images,participant,date,expName,psychopyVersion,OS,frameRate,windowSize,drawing,numDrawings,drawingSizes,practice_complete.keys,practice_complete.rt,PracticeComplete.keys,PracticeComplete.rt,practice_trials.thisRepN,practice_trials.thisTrialN,practice_trials.thisN,practice_trials.thisIndex,practice_trials.ran,practice_images,feedback_images,key_resp_intructions_2.keys,key_resp_intructions_2.rt,Image_List_3,trial_complete.keys,trial_complete.rt,trials.thisRepN,trials.thisTrialN,trials.thisN,trials.thisIndex,trials.ran,Image_List_1,Image_List_2,Image_List_4,Image_List_5
Image_List_3,space,19.205,space,6.468,space,3.986,space,1.716,0,0,0,5,1,right.jpg,right_path.jpg,44293,2020-11-23_15h35.17.105,analogCatScenes,2020.1.3,Win32,60,,,,,,,,,,,,,,,,,,,,,,,,,,,,,
Image_List_3,,,,,space,1.898,space,1.046,0,1,1,0,1,ahead.jpg,ahead_path.jpg,44293,2020-11-23_15h35.17.105,analogCatScenes,2020.1.3,Win32,60,,,,,,,,,,,,,,,,,,,,,,,,,,,,,
Image_List_3,,,,,space,0.176,space,1.711,0,2,2,6,1,right_left.jpg,right_left_path.jpg,44293,2020-11-23_15h35.17.105,analogCatScenes,2020.1.3,Win32,60,,,,,,,,,,,,,,,,,,,,,,,,,,,,,
Image_List_3,,,,,space,1.232,space,1.977,0,3,3,2,1,ahead_right.jpg,ahead_right_path.jpg,44293,2020-11-23_15h35.17.105,analogCatScenes,2020.1.3,Win32,60,,,,,,,,,,,,,,,,,,,,,,,,,,,,,
Image_List_3,,,,,space,1.486,space,1.157,0,4,4,1,1,ahead_left.jpg,ahead_left_path.jpg,44293,2020-11-23_15h35.17.105,analogCatScenes,2020.1.3,Win32,60,,,,,,,,,,,,,,,,,,,,,,,,,,,,,
Image_List_3,,,,,space,0.183,space,1.482,0,5,5,3,1,ahead_right_left.jpg,ahead_right_left_path.jpg,44293,2020-11-23_15h35.17.105,analogCatScenes,2020.1.3,Win32,60,,,,,,,,,,,,,,,,,,,,,,,,,,,,,
Image_List_3,,,,,space,0.937,space,0.617,0,6,6,4,1,left.jpg,left_path.jpg,44293,2020-11-23_15h35.17.105,analogCatScenes,2020.1.3,Win32,60,,,,,,,,,,,,,,,,,,,,,,,,,,,,,
Image_List_3,,,,,,,,,,,,,,,,44293,2020-11-23_15h35.17.105,analogCatScenes,2020.1.3,Win32,60,"[1920,966]",[],0,[],space,0.837,space,1.583,0,0,0,1,1,ahead_left_2.jpg,ahead_left_2_path.jpg,,,,,,,,,,,,,,
Image_List_3,,,,,,,,,,,,,,,,44293,2020-11-23_15h35.17.105,analogCatScenes,2020.1.3,Win32,60,"[1920,966]",[],0,[],space,0.956,space,1.649,0,1,1,4,1,left_2.jpg,left_2_path.jpg,,,,,,,,,,,,,,
Image_List_3,,,,,,,,,,,,,,,,44293,2020-11-23_15h35.17.105,analogCatScenes,2020.1.3,Win32,60,"[1920,966]",[],0,[],space,3.301,space,0.966,0,2,2,2,1,ahead_right_2.jpg,ahead_right_2_path.jpg,,,,,,,,,,,,,,
Image_List_3,,,,,,,,,,,,,,,,44293,2020-11-23_15h35.17.105,analogCatScenes,2020.1.3,Win32,60,"[1920,966]","[[[-0.012422360248447204,-0.2028985507246377],[-0.012422360248447204,-0.2028985507246377],[-0.012422360248447204,-0.2028985507246377],[-0.012422360248447204,-0.2028985507246377],[-0.012422360248447204,-0.2028985507246377]],[[0.007246376811594203,-0.1956521739130435],[0.007246376811594203,-0.1956521739130435],[0.007246376811594203,-0.1956521739130435],[0.008281573498964804,-0.1956521739130435],[0.009316770186335404,-0.1956521739130435],[0.009316770186335404,-0.1956521739130435],[0.010351966873706004,-0.1956521739130435],[0.011387163561076604,-0.1956521739130435],[0.012422360248447204,-0.1956521739130435],[0.013457556935817806,-0.1956521739130435],[0.014492753623188406,-0.19668737060041408],[0.014492753623188406,-0.19668737060041408],[0.015527950310559006,-0.19668737060041408],[0.017598343685300208,-0.19668737060041408],[0.018633540372670808,-0.19668737060041408],[0.019668737060041408,-0.19668737060041408],[0.020703933747412008,-0.1956521739130435],[0.021739130434782608,-0.19461697722567287],[0.022774327122153208,-0.19358178053830227],[0.025879917184265012,-0.1915113871635611],[0.027950310559006212,-0.18944099378881987],[0.030020703933747412,-0.1873706004140787],[0.032091097308488616,-0.18530020703933747],[0.035196687370600416,-0.18322981366459629],[0.038302277432712216,-0.18012422360248448],[0.041407867494824016,-0.17701863354037267],[0.043478260869565216,-0.17494824016563146],[0.047619047619047616,-0.17080745341614906],[0.050724637681159424,-0.16873706004140787],[0.053830227743271224,-0.16666666666666666],[0.055900621118012424,-0.16459627329192547],[0.059006211180124224,-0.16252587991718426],[0.062111801242236024,-0.16045548654244307],[0.06625258799171843,-0.15631469979296067],[0.06935817805383022,-0.15320910973084886],[0.07349896480331262,-0.15010351966873706],[0.07556935817805382,-0.14699792960662525],[0.07867494824016563,-0.14492753623188406],[0.08178053830227744,-0.14389233954451347],[0.08488612836438923,-0.14285714285714285],[0.09420289855072464,-0.13561076604554864],[0.09937888198757763,-0.13250517598343686],[0.10455486542443064,-0.12939958592132506],[0.11180124223602485,-0.12732919254658384],[0.11801242236024845,-0.12525879917184266],[0.12318840579710146,-0.12318840579710146],[0.13250517598343686,-0.12111801242236025],[0.13768115942028986,-0.11904761904761904],[0.14596273291925466,-0.11697722567287784],[0.15631469979296067,-0.11490683229813664],[0.16459627329192547,-0.11387163561076605],[0.16977225672877846,-0.11180124223602485],[0.17287784679089027,-0.11180124223602485],[0.17494824016563146,-0.11076604554865424],[0.18219461697722567,-0.10766045548654245],[0.1915113871635611,-0.10559006211180125],[0.19772256728778467,-0.10455486542443064],[0.2028985507246377,-0.10351966873706005],[0.2111801242236025,-0.10144927536231885],[0.21739130434782608,-0.10041407867494824],[0.2194616977225673,-0.10041407867494824],[0.2194616977225673,-0.10041407867494824],[0.2194616977225673,-0.09937888198757763],[0.2194616977225673,-0.09937888198757763],[0.2194616977225673,-0.09937888198757763],[0.2194616977225673,-0.09937888198757763],[0.2194616977225673,-0.09937888198757763],[0.2194616977225673,-0.09937888198757763],[0.2194616977225673,-0.09937888198757763],[0.2194616977225673,-0.09937888198757763],[0.2194616977225673,-0.09937888198757763],[0.2194616977225673,-0.09937888198757763],[0.2194616977225673,-0.09937888198757763],[0.2204968944099379,-0.10041407867494824]],[[-0.012422360248447204,-0.19358178053830227],[-0.011387163561076604,-0.19254658385093168],[-0.010351966873706004,-0.1915113871635611],[-0.010351966873706004,-0.19047619047619047],[-0.009316770186335404,-0.19047619047619047],[-0.008281573498964804,-0.18944099378881987],[-0.008281573498964804,-0.1873706004140787],[-0.007246376811594203,-0.18530020703933747],[-0.006211180124223602,-0.18322981366459629],[-0.005175983436853002,-0.18115942028985507],[-0.004140786749482402,-0.17908902691511386],[-0.004140786749482402,-0.17805383022774326],[-0.003105590062111801,-0.17598343685300208],[-0.002070393374741201,-0.17391304347826086],[-0.002070393374741201,-0.16977225672877846],[-0.002070393374741201,-0.16873706004140787],[-0.0010351966873706005,-0.16666666666666666],[-0.0010351966873706005,-0.16459627329192547],[0,-0.16252587991718426],[0,-0.16045548654244307],[0,-0.15734989648033126],[0,-0.15424430641821946],[0,-0.15217391304347827],[0.0010351966873706005,-0.14906832298136646],[0.0010351966873706005,-0.14803312629399587],[0.0010351966873706005,-0.14596273291925466],[0.0010351966873706005,-0.14492753623188406],[0.002070393374741201,-0.14182194616977226],[0.003105590062111801,-0.13975155279503104],[0.003105590062111801,-0.13664596273291926],[0.003105590062111801,-0.13457556935817805],[0.004140786749482402,-0.13146997929606624],[0.005175983436853002,-0.13043478260869565],[0.005175983436853002,-0.12836438923395446],[0.006211180124223602,-0.12525879917184266],[0.007246376811594203,-0.12318840579710146],[0.008281573498964804,-0.12008281573498965],[0.009316770186335404,-0.11594202898550725],[0.010351966873706004,-0.11283643892339544],[0.011387163561076604,-0.10973084886128365],[0.012422360248447204,-0.10662525879917184],[0.013457556935817806,-0.10455486542443064],[0.013457556935817806,-0.10144927536231885],[0.014492753623188406,-0.09834368530020704],[0.015527950310559006,-0.09420289855072464],[0.016563146997929608,-0.09213250517598344],[0.018633540372670808,-0.08799171842650104],[0.018633540372670808,-0.08488612836438923],[0.019668737060041408,-0.08281573498964803],[0.020703933747412008,-0.07971014492753623],[0.020703933747412008,-0.07763975155279502],[0.020703933747412008,-0.07556935817805382],[0.021739130434782608,-0.07246376811594203],[0.022774327122153208,-0.07039337474120083],[0.022774327122153208,-0.06935817805383022],[0.022774327122153208,-0.06625258799171843],[0.022774327122153208,-0.06314699792960662],[0.022774327122153208,-0.062111801242236024],[0.022774327122153208,-0.059006211180124224],[0.023809523809523808,-0.057971014492753624],[0.023809523809523808,-0.056935817805383024],[0.023809523809523808,-0.055900621118012424],[0.023809523809523808,-0.053830227743271224],[0.023809523809523808,-0.051759834368530024],[0.023809523809523808,-0.051759834368530024],[0.023809523809523808,-0.050724637681159424],[0.023809523809523808,-0.050724637681159424],[0.023809523809523808,-0.050724637681159424],[0.022774327122153208,-0.050724637681159424]],[[-0.0010351966873706005,-0.20082815734989648],[-0.0010351966873706005,-0.20082815734989648],[-0.0010351966873706005,-0.1997929606625259],[-0.0010351966873706005,-0.19772256728778467],[-0.0010351966873706005,-0.1956521739130435],[-0.002070393374741201,-0.19047619047619047],[-0.005175983436853002,-0.18426501035196688],[-0.008281573498964804,-0.17598343685300208],[-0.013457556935817806,-0.16459627329192547],[-0.016563146997929608,-0.15942028985507245],[-0.019668737060041408,-0.15631469979296067],[-0.036231884057971016,-0.13975155279503104],[-0.050724637681159424,-0.12939958592132506],[-0.057971014492753624,-0.12525879917184266],[-0.06935817805383022,-0.11904761904761904],[-0.08178053830227744,-0.11283643892339544],[-0.09109730848861283,-0.10766045548654245],[-0.09730848861283643,-0.10455486542443064],[-0.10766045548654245,-0.10041407867494824],[-0.11697722567287784,-0.09730848861283643],[-0.12318840579710146,-0.09523809523809523],[-0.12629399585921325,-0.09420289855072464],[-0.13043478260869565,-0.09420289855072464],[-0.13354037267080746,-0.09316770186335403],[-0.13871635610766045,-0.09316770186335403],[-0.14182194616977226,-0.09213250517598344],[-0.15010351966873706,-0.09213250517598344],[-0.15527950310559005,-0.09213250517598344],[-0.15734989648033126,-0.09109730848861283],[-0.16045548654244307,-0.09109730848861283],[-0.16252587991718426,-0.09006211180124224],[-0.16459627329192547,-0.09006211180124224],[-0.16770186335403728,-0.09006211180124224],[-0.17184265010351968,-0.09006211180124224],[-0.17287784679089027,-0.09006211180124224],[-0.17391304347826086,-0.08902691511387163],[-0.17391304347826086,-0.08902691511387163],[-0.17391304347826086,-0.08902691511387163],[-0.17391304347826086,-0.08902691511387163],[-0.17391304347826086,-0.08902691511387163],[-0.17391304347826086,-0.08902691511387163],[-0.17391304347826086,-0.08902691511387163],[-0.17391304347826086,-0.08902691511387163],[-0.17391304347826086,-0.08902691511387163],[-0.17391304347826086,-0.08902691511387163],[-0.17391304347826086,-0.08902691511387163]]]",4,"[5,74,69,46]",space,73.879,space,2.612,0,3,3,3,1,ahead_right_left_2.jpg,ahead_right_left_2_path.jpg,,,,,,,,,,,,,,
Image_List_3,,,,,,,,,,,,,,,,44293,2020-11-23_15h35.17.105,analogCatScenes,2020.1.3,Win32,60,"[1920,966]","[[[-0.002070393374741201,-0.19668737060041408],[-0.002070393374741201,-0.19668737060041408],[-0.002070393374741201,-0.19668737060041408],[-0.002070393374741201,-0.19668737060041408],[-0.002070393374741201,-0.19668737060041408],[-0.002070393374741201,-0.19668737060041408],[-0.002070393374741201,-0.19668737060041408],[-0.002070393374741201,-0.19668737060041408],[-0.0010351966873706005,-0.1956521739130435],[0.0010351966873706005,-0.19358178053830227],[0.002070393374741201,-0.19254658385093168],[0.002070393374741201,-0.1915113871635611],[0.002070393374741201,-0.1915113871635611],[0.003105590062111801,-0.19047619047619047],[0.003105590062111801,-0.19047619047619047],[0.003105590062111801,-0.18944099378881987],[0.004140786749482402,-0.18840579710144928],[0.004140786749482402,-0.18840579710144928],[0.004140786749482402,-0.18840579710144928],[0.005175983436853002,-0.1873706004140787],[0.006211180124223602,-0.18633540372670807],[0.006211180124223602,-0.18633540372670807],[0.006211180124223602,-0.18633540372670807],[0.006211180124223602,-0.18633540372670807],[0.006211180124223602,-0.18633540372670807],[0.006211180124223602,-0.18633540372670807],[0.006211180124223602,-0.18633540372670807],[0.006211180124223602,-0.18633540372670807],[0.007246376811594203,-0.18530020703933747],[0.008281573498964804,-0.18426501035196688],[0.009316770186335404,-0.18322981366459629],[0.010351966873706004,-0.18219461697722567],[0.011387163561076604,-0.18115942028985507],[0.012422360248447204,-0.18012422360248448],[0.014492753623188406,-0.17805383022774326],[0.016563146997929608,-0.17598343685300208],[0.019668737060041408,-0.17287784679089027],[0.022774327122153208,-0.16977225672877846],[0.025879917184265012,-0.16666666666666666],[0.028985507246376812,-0.16252587991718426],[0.032091097308488616,-0.15734989648033126],[0.035196687370600416,-0.15527950310559005],[0.038302277432712216,-0.15217391304347827],[0.041407867494824016,-0.14699792960662525],[0.042443064182194616,-0.14492753623188406],[0.045548654244306416,-0.14182194616977226],[0.047619047619047616,-0.13975155279503104],[0.049689440993788817,-0.13664596273291926],[0.052795031055900624,-0.13354037267080746],[0.055900621118012424,-0.13043478260869565],[0.060041407867494824,-0.12629399585921325],[0.062111801242236024,-0.12318840579710146],[0.06418219461697723,-0.12111801242236025],[0.06728778467908902,-0.11801242236024845],[0.07039337474120083,-0.11490683229813664],[0.07142857142857142,-0.11283643892339544],[0.07349896480331262,-0.10973084886128365],[0.07660455486542443,-0.10662525879917184],[0.08074534161490683,-0.10248447204968944],[0.08385093167701864,-0.09937888198757763],[0.08695652173913043,-0.09627329192546584],[0.09006211180124224,-0.09420289855072464],[0.09213250517598344,-0.09109730848861283],[0.09523809523809523,-0.08799171842650104],[0.09937888198757763,-0.08385093167701864],[0.10248447204968944,-0.08178053830227744],[0.10559006211180125,-0.07867494824016563],[0.10869565217391304,-0.07453416149068323],[0.11180124223602485,-0.07142857142857142],[0.11490683229813664,-0.06832298136645963],[0.11801242236024845,-0.06521739130434782],[0.12008281573498965,-0.06314699792960662],[0.12318840579710146,-0.060041407867494824],[0.12629399585921325,-0.055900621118012424],[0.13043478260869565,-0.051759834368530024],[0.13354037267080746,-0.048654244306418216],[0.13664596273291926,-0.045548654244306416],[0.13975155279503104,-0.042443064182194616],[0.14285714285714285,-0.039337474120082816],[0.14699792960662525,-0.034161490683229816],[0.14906832298136646,-0.031055900621118012],[0.15113871635610765,-0.027950310559006212],[0.15424430641821946,-0.024844720496894408],[0.15631469979296067,-0.021739130434782608],[0.15838509316770186,-0.019668737060041408],[0.16045548654244307,-0.016563146997929608],[0.16252587991718426,-0.013457556935817806],[0.16356107660455488,-0.010351966873706004],[0.16666666666666666,-0.007246376811594203],[0.16770186335403728,-0.004140786749482402],[0.16977225672877846,-0.002070393374741201],[0.17080745341614906,0],[0.17184265010351968,0.003105590062111801],[0.17391304347826086,0.006211180124223602],[0.17598343685300208,0.010351966873706004],[0.17701863354037267,0.012422360248447204],[0.17805383022774326,0.014492753623188406],[0.17908902691511386,0.016563146997929608],[0.18012422360248448,0.019668737060041408],[0.18219461697722567,0.022774327122153208],[0.18322981366459629,0.024844720496894408],[0.18426501035196688,0.027950310559006212],[0.18840579710144928,0.033126293995859216],[0.1915113871635611,0.040372670807453416],[0.19461697722567287,0.042443064182194616],[0.1997929606625259,0.048654244306418216],[0.2028985507246377,0.051759834368530024],[0.2070393374741201,0.055900621118012424],[0.20910973084886128,0.059006211180124224],[0.2122153209109731,0.062111801242236024],[0.2153209109730849,0.06521739130434782],[0.21842650103519667,0.06728778467908902],[0.22153209109730848,0.07039337474120083],[0.2246376811594203,0.07246376811594203],[0.2277432712215321,0.07556935817805382],[0.22981366459627328,0.07867494824016563],[0.2318840579710145,0.07971014492753623],[0.2318840579710145,0.08074534161490683],[0.2318840579710145,0.08074534161490683],[0.2318840579710145,0.08074534161490683],[0.2318840579710145,0.08074534161490683],[0.2318840579710145,0.08074534161490683],[0.2318840579710145,0.08074534161490683],[0.2318840579710145,0.08074534161490683]],[[-0.011387163561076604,-0.18944099378881987],[-0.011387163561076604,-0.18944099378881987],[-0.011387163561076604,-0.18944099378881987],[-0.011387163561076604,-0.18944099378881987],[-0.011387163561076604,-0.1873706004140787],[-0.011387163561076604,-0.18530020703933747],[-0.011387163561076604,-0.18115942028985507],[-0.011387163561076604,-0.17805383022774326],[-0.011387163561076604,-0.17391304347826086],[-0.011387163561076604,-0.16770186335403728],[-0.012422360248447204,-0.16149068322981366],[-0.014492753623188406,-0.15424430641821946],[-0.016563146997929608,-0.14596273291925466],[-0.017598343685300208,-0.13975155279503104],[-0.018633540372670808,-0.12939958592132506],[-0.020703933747412008,-0.12422360248447205],[-0.020703933747412008,-0.12008281573498965],[-0.020703933747412008,-0.11594202898550725],[-0.020703933747412008,-0.10973084886128365],[-0.020703933747412008,-0.10351966873706005],[-0.020703933747412008,-0.09523809523809523],[-0.020703933747412008,-0.08695652173913043],[-0.021739130434782608,-0.08074534161490683],[-0.021739130434782608,-0.06935817805383022],[-0.021739130434782608,-0.06314699792960662],[-0.020703933747412008,-0.056935817805383024],[-0.019668737060041408,-0.054865424430641824],[-0.018633540372670808,-0.049689440993788817],[-0.016563146997929608,-0.047619047619047616],[-0.015527950310559006,-0.040372670807453416],[-0.015527950310559006,-0.034161490683229816],[-0.015527950310559006,-0.026915113871635612],[-0.016563146997929608,-0.019668737060041408],[-0.019668737060041408,-0.008281573498964804],[-0.023809523809523808,0.003105590062111801],[-0.030020703933747412,0.015527950310559006],[-0.037267080745341616,0.027950310559006212],[-0.047619047619047616,0.041407867494824016],[-0.06625258799171843,0.062111801242236024],[-0.07660455486542443,0.07453416149068323],[-0.08695652173913043,0.08695652173913043],[-0.09627329192546584,0.10041407867494824],[-0.10559006211180125,0.11283643892339544],[-0.11387163561076605,0.12525879917184266],[-0.12318840579710146,0.14182194616977226],[-0.12836438923395446,0.15320910973084886],[-0.13146997929606624,0.16045548654244307],[-0.13561076604554864,0.16770186335403728],[-0.13768115942028986,0.17080745341614906],[-0.13768115942028986,0.17287784679089027],[-0.13768115942028986,0.17287784679089027],[-0.13768115942028986,0.17287784679089027],[-0.13768115942028986,0.17287784679089027],[-0.13768115942028986,0.17287784679089027],[-0.13768115942028986,0.17287784679089027],[-0.13768115942028986,0.17287784679089027],[-0.13768115942028986,0.17287784679089027],[-0.13768115942028986,0.17287784679089027],[-0.13768115942028986,0.17287784679089027],[-0.13768115942028986,0.17287784679089027],[-0.13768115942028986,0.17287784679089027]]]",2,"[124,61]",space,9.702,space,3.506,0,4,4,6,1,right_left_2.jpg,right_left_2_path.jpg,,,,,,,,,,,,,,
Image_List_3,,,,,,,,,,,,,,,,44293,2020-11-23_15h35.17.105,analogCatScenes,2020.1.3,Win32,60,"[1920,966]","[[[-0.009316770186335404,-0.2080745341614907],[-0.009316770186335404,-0.2080745341614907],[-0.009316770186335404,-0.2080745341614907],[-0.009316770186335404,-0.2080745341614907],[-0.009316770186335404,-0.2080745341614907],[-0.009316770186335404,-0.2080745341614907],[-0.009316770186335404,-0.2080745341614907],[-0.009316770186335404,-0.2080745341614907],[-0.009316770186335404,-0.2080745341614907],[-0.009316770186335404,-0.2070393374741201],[-0.009316770186335404,-0.20600414078674947],[-0.008281573498964804,-0.2039337474120083],[-0.008281573498964804,-0.20186335403726707],[-0.007246376811594203,-0.19772256728778467],[-0.006211180124223602,-0.19461697722567287],[-0.005175983436853002,-0.18944099378881987],[-0.002070393374741201,-0.18322981366459629],[-0.0010351966873706005,-0.17494824016563146],[0.003105590062111801,-0.16563146997929606],[0.007246376811594203,-0.15424430641821946],[0.011387163561076604,-0.13664596273291926],[0.013457556935817806,-0.12525879917184266],[0.016563146997929608,-0.11283643892339544],[0.018633540372670808,-0.10144927536231885],[0.020703933747412008,-0.09006211180124224],[0.022774327122153208,-0.07971014492753623],[0.023809523809523808,-0.06832298136645963],[0.024844720496894408,-0.056935817805383024],[0.025879917184265012,-0.038302277432712216],[0.025879917184265012,-0.025879917184265012],[0.025879917184265012,-0.014492753623188406],[0.026915113871635612,-0.003105590062111801],[0.027950310559006212,0.010351966873706004],[0.028985507246376812,0.022774327122153208],[0.028985507246376812,0.048654244306418216],[0.030020703933747412,0.06832298136645963],[0.030020703933747412,0.08592132505175984],[0.031055900621118012,0.10455486542443064],[0.031055900621118012,0.12215320910973085],[0.032091097308488616,0.14285714285714285],[0.032091097308488616,0.16149068322981366],[0.032091097308488616,0.17908902691511386],[0.032091097308488616,0.20186335403726707],[0.032091097308488616,0.2122153209109731],[0.032091097308488616,0.2204968944099379],[0.032091097308488616,0.2225672877846791],[0.032091097308488616,0.2236024844720497],[0.032091097308488616,0.2236024844720497],[0.032091097308488616,0.2236024844720497],[0.032091097308488616,0.2236024844720497],[0.032091097308488616,0.2236024844720497],[0.032091097308488616,0.2236024844720497],[0.032091097308488616,0.2236024844720497],[0.032091097308488616,0.2236024844720497],[0.032091097308488616,0.2236024844720497]]]",1,[55],space,6.552,space,0.822,0,5,5,0,1,ahead_2.jpg,ahead_2_path.jpg,,,,,,,,,,,,,,
Image_List_3,,,,,,,,,,,,,,,,44293,2020-11-23_15h35.17.105,analogCatScenes,2020.1.3,Win32,60,"[1920,966]","[[[-0.009316770186335404,-0.19254658385093168],[-0.009316770186335404,-0.19254658385093168],[-0.009316770186335404,-0.19254658385093168],[-0.009316770186335404,-0.19254658385093168],[-0.009316770186335404,-0.19254658385093168],[-0.009316770186335404,-0.19254658385093168],[-0.009316770186335404,-0.19254658385093168],[-0.005175983436853002,-0.18840579710144928],[-0.003105590062111801,-0.18530020703933747],[-0.0010351966873706005,-0.18219461697722567],[0.0010351966873706005,-0.17908902691511386],[0.003105590062111801,-0.17598343685300208],[0.004140786749482402,-0.17494824016563146],[0.006211180124223602,-0.17080745341614906],[0.008281573498964804,-0.16873706004140787],[0.010351966873706004,-0.16666666666666666],[0.012422360248447204,-0.16356107660455488],[0.014492753623188406,-0.16045548654244307],[0.016563146997929608,-0.15734989648033126],[0.018633540372670808,-0.15527950310559005],[0.021739130434782608,-0.15320910973084886],[0.025879917184265012,-0.14803312629399587],[0.026915113871635612,-0.14596273291925466],[0.027950310559006212,-0.14492753623188406],[0.031055900621118012,-0.14182194616977226],[0.033126293995859216,-0.13871635610766045],[0.036231884057971016,-0.13664596273291926],[0.038302277432712216,-0.13457556935817805],[0.043478260869565216,-0.13043478260869565],[0.046583850931677016,-0.12836438923395446],[0.048654244306418216,-0.12525879917184266],[0.051759834368530024,-0.12215320910973085],[0.054865424430641824,-0.11904761904761904],[0.057971014492753624,-0.11697722567287784],[0.061076604554865424,-0.11387163561076605],[0.06314699792960662,-0.11180124223602485],[0.06832298136645963,-0.10766045548654245],[0.07142857142857142,-0.10559006211180125],[0.07349896480331262,-0.10248447204968944],[0.07763975155279502,-0.09937888198757763],[0.08074534161490683,-0.09627329192546584],[0.08385093167701864,-0.09316770186335403],[0.08799171842650104,-0.09006211180124224],[0.09109730848861283,-0.08695652173913043],[0.09420289855072464,-0.08385093167701864],[0.09730848861283643,-0.08074534161490683],[0.10041407867494824,-0.07763975155279502],[0.10559006211180125,-0.07453416149068323],[0.10869565217391304,-0.07142857142857142],[0.11076604554865424,-0.06832298136645963],[0.11387163561076605,-0.06625258799171843],[0.11904761904761904,-0.06314699792960662],[0.12629399585921325,-0.060041407867494824],[0.13250517598343686,-0.056935817805383024],[0.14078674948240166,-0.053830227743271224],[0.14906832298136646,-0.049689440993788817],[0.15838509316770186,-0.046583850931677016],[0.17184265010351968,-0.040372670807453416],[0.18426501035196688,-0.038302277432712216],[0.19461697722567287,-0.035196687370600416],[0.20496894409937888,-0.032091097308488616],[0.2153209109730849,-0.028985507246376812],[0.22567287784679088,-0.025879917184265012],[0.23809523809523808,-0.022774327122153208],[0.2484472049689441,-0.020703933747412008],[0.2608695652173913,-0.014492753623188406],[0.2795031055900621,-0.003105590062111801],[0.28467908902691513,0],[0.2898550724637681,0.002070393374741201],[0.2898550724637681,0.002070393374741201],[0.2898550724637681,0.002070393374741201],[0.2898550724637681,0.002070393374741201],[0.2898550724637681,0.002070393374741201],[0.2898550724637681,0.002070393374741201],[0.2898550724637681,0.002070393374741201],[0.2898550724637681,0.002070393374741201],[0.2898550724637681,0.002070393374741201]]]",1,[77],space,5.168,space,0.78,0,6,6,5,1,right_2.jpg,right_2_path.jpg,,,,,,,,,,,,,,
Image_List_3,,,,,,,,,,,,,,,,44293,2020-11-23_15h35.17.105,analogCatScenes,2020.1.3,Win32,60,"[1920,966]","[[[0.005175983436853002,-0.1956521739130435],[0.005175983436853002,-0.1956521739130435],[0.005175983436853002,-0.1956521739130435],[0.005175983436853002,-0.1956521739130435],[0.005175983436853002,-0.1956521739130435],[0.005175983436853002,-0.1956521739130435],[0.005175983436853002,-0.19461697722567287],[0.005175983436853002,-0.19358178053830227],[0.005175983436853002,-0.19047619047619047],[0.005175983436853002,-0.18944099378881987],[0.005175983436853002,-0.1873706004140787],[0.005175983436853002,-0.18426501035196688],[0.005175983436853002,-0.18115942028985507],[0.005175983436853002,-0.17805383022774326],[0.005175983436853002,-0.17494824016563146],[0.005175983436853002,-0.17184265010351968],[0.005175983436853002,-0.16977225672877846],[0.005175983436853002,-0.16666666666666666],[0.004140786749482402,-0.16459627329192547],[0.004140786749482402,-0.16149068322981366],[0.003105590062111801,-0.15838509316770186],[0.003105590062111801,-0.15527950310559005],[0.002070393374741201,-0.15217391304347827],[0.0010351966873706005,-0.14906832298136646],[0.0010351966873706005,-0.14699792960662525],[0.0010351966873706005,-0.14389233954451347],[-0.0010351966873706005,-0.13975155279503104],[-0.004140786749482402,-0.13561076604554864],[-0.006211180124223602,-0.13354037267080746],[-0.007246376811594203,-0.13043478260869565],[-0.008281573498964804,-0.12732919254658384],[-0.011387163561076604,-0.12422360248447205],[-0.013457556935817806,-0.12111801242236025],[-0.015527950310559006,-0.11801242236024845],[-0.016563146997929608,-0.11594202898550725],[-0.017598343685300208,-0.11283643892339544],[-0.019668737060041408,-0.10973084886128365],[-0.020703933747412008,-0.10662525879917184],[-0.021739130434782608,-0.10455486542443064],[-0.022774327122153208,-0.10144927536231885],[-0.023809523809523808,-0.09834368530020704],[-0.023809523809523808,-0.09627329192546584],[-0.025879917184265012,-0.09109730848861283],[-0.026915113871635612,-0.08695652173913043],[-0.027950310559006212,-0.08281573498964803],[-0.028985507246376812,-0.07867494824016563],[-0.030020703933747412,-0.07660455486542443],[-0.031055900621118012,-0.07349896480331262],[-0.032091097308488616,-0.07039337474120083],[-0.033126293995859216,-0.06728778467908902],[-0.034161490683229816,-0.06314699792960662],[-0.034161490683229816,-0.060041407867494824],[-0.035196687370600416,-0.057971014492753624],[-0.036231884057971016,-0.053830227743271224],[-0.038302277432712216,-0.050724637681159424],[-0.038302277432712216,-0.048654244306418216],[-0.040372670807453416,-0.045548654244306416],[-0.041407867494824016,-0.041407867494824016],[-0.042443064182194616,-0.037267080745341616],[-0.043478260869565216,-0.035196687370600416],[-0.043478260869565216,-0.031055900621118012],[-0.045548654244306416,-0.025879917184265012],[-0.046583850931677016,-0.021739130434782608],[-0.047619047619047616,-0.017598343685300208],[-0.048654244306418216,-0.013457556935817806],[-0.050724637681159424,-0.009316770186335404],[-0.051759834368530024,-0.006211180124223602],[-0.052795031055900624,-0.003105590062111801],[-0.053830227743271224,-0.0010351966873706005],[-0.053830227743271224,0.0010351966873706005],[-0.054865424430641824,0.005175983436853002],[-0.055900621118012424,0.008281573498964804],[-0.056935817805383024,0.011387163561076604],[-0.056935817805383024,0.012422360248447204],[-0.057971014492753624,0.015527950310559006],[-0.059006211180124224,0.018633540372670808],[-0.059006211180124224,0.020703933747412008],[-0.060041407867494824,0.022774327122153208],[-0.061076604554865424,0.025879917184265012],[-0.062111801242236024,0.027950310559006212],[-0.06314699792960662,0.033126293995859216],[-0.06418219461697723,0.036231884057971016],[-0.06625258799171843,0.039337474120082816],[-0.06625258799171843,0.042443064182194616],[-0.06728778467908902,0.045548654244306416],[-0.06832298136645963,0.049689440993788817],[-0.06935817805383022,0.052795031055900624],[-0.07039337474120083,0.054865424430641824],[-0.07039337474120083,0.057971014492753624],[-0.07142857142857142,0.060041407867494824],[-0.07142857142857142,0.06314699792960662],[-0.07246376811594203,0.06625258799171843],[-0.07246376811594203,0.06832298136645963],[-0.07246376811594203,0.07142857142857142],[-0.07349896480331262,0.07660455486542443],[-0.07349896480331262,0.07867494824016563],[-0.07349896480331262,0.08281573498964803],[-0.07349896480331262,0.08592132505175984],[-0.07349896480331262,0.09006211180124224],[-0.07246376811594203,0.09316770186335403],[-0.07039337474120083,0.09730848861283643],[-0.06832298136645963,0.10248447204968944],[-0.06832298136645963,0.10455486542443064],[-0.06728778467908902,0.10662525879917184],[-0.06625258799171843,0.10869565217391304],[-0.06625258799171843,0.10973084886128365],[-0.06625258799171843,0.11076604554865424],[-0.06625258799171843,0.11180124223602485],[-0.06625258799171843,0.11180124223602485],[-0.06625258799171843,0.11180124223602485]]]",1,[110],,,,,,,,,,,,space,3.028,forestpath6.jpg,space,4.037,0,0,0,50,1,frontLawn4.jpg,grocerystore6.jpg,hallway2.jpg,fireplace4.jpg
Image_List_3,,,,,,,,,,,,,,,,44293,2020-11-23_15h35.17.105,analogCatScenes,2020.1.3,Win32,60,"[1920,966]","[[[-0.002070393374741201,-0.1997929606625259],[-0.002070393374741201,-0.1997929606625259],[-0.002070393374741201,-0.1997929606625259],[-0.002070393374741201,-0.1997929606625259],[-0.002070393374741201,-0.1997929606625259],[-0.002070393374741201,-0.1997929606625259],[-0.002070393374741201,-0.1997929606625259],[-0.002070393374741201,-0.1997929606625259],[-0.002070393374741201,-0.1997929606625259],[-0.002070393374741201,-0.1997929606625259],[-0.002070393374741201,-0.1997929606625259],[-0.002070393374741201,-0.1997929606625259],[-0.002070393374741201,-0.1997929606625259],[-0.002070393374741201,-0.1997929606625259],[-0.002070393374741201,-0.1997929606625259],[-0.002070393374741201,-0.1997929606625259],[-0.002070393374741201,-0.1997929606625259],[-0.002070393374741201,-0.1997929606625259],[-0.002070393374741201,-0.1997929606625259],[-0.002070393374741201,-0.1997929606625259],[-0.002070393374741201,-0.1997929606625259],[-0.002070393374741201,-0.1997929606625259],[-0.002070393374741201,-0.1997929606625259],[-0.002070393374741201,-0.1997929606625259],[-0.002070393374741201,-0.1997929606625259],[-0.002070393374741201,-0.1997929606625259],[-0.002070393374741201,-0.1997929606625259],[-0.002070393374741201,-0.1997929606625259],[-0.002070393374741201,-0.1997929606625259],[-0.002070393374741201,-0.1997929606625259],[-0.002070393374741201,-0.1997929606625259],[-0.002070393374741201,-0.1997929606625259],[-0.002070393374741201,-0.1997929606625259],[-0.002070393374741201,-0.1997929606625259],[-0.002070393374741201,-0.1997929606625259],[-0.002070393374741201,-0.1997929606625259],[-0.002070393374741201,-0.19875776397515527],[-0.002070393374741201,-0.19875776397515527],[-0.002070393374741201,-0.19875776397515527],[-0.0010351966873706005,-0.19772256728778467],[-0.0010351966873706005,-0.19668737060041408],[0,-0.1956521739130435],[0.0010351966873706005,-0.19461697722567287],[0.002070393374741201,-0.19461697722567287],[0.002070393374741201,-0.19358178053830227],[0.003105590062111801,-0.19358178053830227],[0.004140786749482402,-0.19254658385093168],[0.007246376811594203,-0.1915113871635611],[0.008281573498964804,-0.19047619047619047],[0.009316770186335404,-0.19047619047619047],[0.013457556935817806,-0.18944099378881987],[0.014492753623188406,-0.18840579710144928],[0.015527950310559006,-0.18840579710144928],[0.016563146997929608,-0.18840579710144928],[0.017598343685300208,-0.18840579710144928],[0.018633540372670808,-0.18840579710144928],[0.022774327122153208,-0.18840579710144928],[0.025879917184265012,-0.1873706004140787],[0.027950310559006212,-0.1873706004140787],[0.031055900621118012,-0.1873706004140787],[0.034161490683229816,-0.1873706004140787],[0.036231884057971016,-0.1873706004140787],[0.039337474120082816,-0.1873706004140787],[0.042443064182194616,-0.1873706004140787],[0.046583850931677016,-0.1873706004140787],[0.051759834368530024,-0.18840579710144928],[0.055900621118012424,-0.18840579710144928],[0.061076604554865424,-0.18840579710144928],[0.06418219461697723,-0.18840579710144928],[0.06832298136645963,-0.18840579710144928],[0.07349896480331262,-0.1873706004140787],[0.08074534161490683,-0.18633540372670807],[0.08695652173913043,-0.18530020703933747],[0.09316770186335403,-0.18426501035196688],[0.09937888198757763,-0.18322981366459629],[0.10248447204968944,-0.18012422360248448],[0.10662525879917184,-0.17908902691511386],[0.11076604554865424,-0.17701863354037267],[0.11801242236024845,-0.17391304347826086],[0.12836438923395446,-0.17184265010351968],[0.14492753623188406,-0.16666666666666666],[0.15631469979296067,-0.16459627329192547],[0.16873706004140787,-0.16356107660455488],[0.18322981366459629,-0.16356107660455488],[0.19668737060041408,-0.16563146997929606],[0.21014492753623187,-0.16666666666666666],[0.22153209109730848,-0.16977225672877846],[0.2236024844720497,-0.16977225672877846],[0.2236024844720497,-0.16977225672877846],[0.2236024844720497,-0.16977225672877846],[0.2236024844720497,-0.16977225672877846],[0.2236024844720497,-0.16977225672877846],[0.2236024844720497,-0.16977225672877846],[0.2236024844720497,-0.16977225672877846],[0.2236024844720497,-0.16977225672877846],[0.2236024844720497,-0.16977225672877846],[0.2236024844720497,-0.16977225672877846],[0.2236024844720497,-0.16977225672877846],[0.2236024844720497,-0.16977225672877846],[0.2236024844720497,-0.16977225672877846],[0.2236024844720497,-0.16977225672877846],[0.2236024844720497,-0.16977225672877846],[0.2236024844720497,-0.16977225672877846]],[[-0.006211180124223602,-0.19358178053830227],[-0.006211180124223602,-0.19358178053830227],[-0.006211180124223602,-0.19254658385093168],[-0.006211180124223602,-0.19254658385093168],[-0.006211180124223602,-0.19254658385093168],[-0.006211180124223602,-0.19254658385093168],[-0.006211180124223602,-0.19254658385093168],[-0.006211180124223602,-0.19254658385093168],[-0.006211180124223602,-0.19254658385093168],[-0.010351966873706004,-0.19254658385093168],[-0.014492753623188406,-0.19254658385093168],[-0.021739130434782608,-0.1915113871635611],[-0.028985507246376812,-0.1915113871635611],[-0.035196687370600416,-0.19047619047619047],[-0.042443064182194616,-0.18944099378881987],[-0.049689440993788817,-0.18944099378881987],[-0.056935817805383024,-0.18944099378881987],[-0.06418219461697723,-0.18944099378881987],[-0.08074534161490683,-0.18944099378881987],[-0.09213250517598344,-0.1873706004140787],[-0.10351966873706005,-0.18633540372670807],[-0.11490683229813664,-0.18426501035196688],[-0.12422360248447205,-0.18219461697722567],[-0.13664596273291926,-0.18012422360248448],[-0.13975155279503104,-0.17908902691511386],[-0.14389233954451347,-0.17908902691511386],[-0.14596273291925466,-0.17908902691511386],[-0.14803312629399587,-0.17908902691511386],[-0.15113871635610765,-0.17908902691511386],[-0.15320910973084886,-0.17908902691511386],[-0.15631469979296067,-0.17908902691511386],[-0.15838509316770186,-0.17908902691511386],[-0.16252587991718426,-0.17908902691511386],[-0.16563146997929606,-0.17908902691511386],[-0.16770186335403728,-0.17908902691511386],[-0.17080745341614906,-0.17908902691511386],[-0.17287784679089027,-0.17908902691511386],[-0.17598343685300208,-0.17908902691511386],[-0.17805383022774326,-0.18012422360248448],[-0.18012422360248448,-0.18012422360248448],[-0.18012422360248448,-0.18012422360248448],[-0.18012422360248448,-0.18012422360248448],[-0.18012422360248448,-0.18012422360248448],[-0.18012422360248448,-0.18012422360248448],[-0.18012422360248448,-0.18012422360248448],[-0.18012422360248448,-0.18012422360248448],[-0.18012422360248448,-0.18012422360248448],[-0.18012422360248448,-0.18012422360248448],[-0.18012422360248448,-0.18012422360248448],[-0.18012422360248448,-0.18012422360248448],[-0.18012422360248448,-0.18012422360248448]]]",2,"[103,51]",,,,,,,,,,,,,,campusquad3.jpg,space,6.682,0,1,1,21,1,botanicalGarden6.jpg,cemetery6.jpg,cave5.jpg,beach1.jpeg
Image_List_3,,,,,,,,,,,,,,,,44293,2020-11-23_15h35.17.105,analogCatScenes,2020.1.3,Win32,60,"[1920,966]","[[[0.004140786749482402,-0.19358178053830227],[0.004140786749482402,-0.19358178053830227],[0.004140786749482402,-0.19358178053830227],[0.004140786749482402,-0.19358178053830227],[0.004140786749482402,-0.19358178053830227],[0.004140786749482402,-0.19358178053830227],[0.004140786749482402,-0.19358178053830227],[0.004140786749482402,-0.19358178053830227],[0.004140786749482402,-0.19358178053830227],[0.004140786749482402,-0.19358178053830227],[0.004140786749482402,-0.19358178053830227],[0.004140786749482402,-0.19358178053830227],[0.004140786749482402,-0.19358178053830227],[0.004140786749482402,-0.19358178053830227],[0.004140786749482402,-0.19358178053830227],[0.004140786749482402,-0.19358178053830227],[0.004140786749482402,-0.19358178053830227],[0.004140786749482402,-0.19358178053830227],[0.006211180124223602,-0.19047619047619047],[0.010351966873706004,-0.18633540372670807],[0.013457556935817806,-0.18322981366459629],[0.016563146997929608,-0.18012422360248448],[0.019668737060041408,-0.17598343685300208],[0.022774327122153208,-0.16977225672877846],[0.027950310559006212,-0.16252587991718426],[0.044513457556935816,-0.14492753623188406],[0.054865424430641824,-0.13354037267080746],[0.06521739130434782,-0.12111801242236025],[0.07349896480331262,-0.10869565217391304],[0.08074534161490683,-0.09627329192546584],[0.08592132505175984,-0.08385093167701864],[0.09109730848861283,-0.07246376811594203],[0.09834368530020704,-0.060041407867494824],[0.10559006211180125,-0.046583850931677016],[0.11594202898550725,-0.025879917184265012],[0.12215320910973085,-0.014492753623188406],[0.12732919254658384,-0.002070393374741201],[0.13146997929606624,0.010351966873706004],[0.13561076604554864,0.021739130434782608],[0.14078674948240166,0.034161490683229816],[0.14492753623188406,0.045548654244306416],[0.15010351966873706,0.062111801242236024],[0.15424430641821946,0.07453416149068323],[0.15838509316770186,0.08592132505175984],[0.16252587991718426,0.09834368530020704],[0.16666666666666666,0.10973084886128365],[0.16977225672877846,0.12215320910973085],[0.17391304347826086,0.13561076604554864],[0.17805383022774326,0.15010351966873706],[0.18530020703933747,0.17184265010351968],[0.19047619047619047,0.18530020703933747],[0.19461697722567287,0.19358178053830227],[0.19668737060041408,0.1997929606625259],[0.19875776397515527,0.2039337474120083],[0.19875776397515527,0.20600414078674947],[0.1997929606625259,0.20600414078674947],[0.1997929606625259,0.20600414078674947],[0.1997929606625259,0.20600414078674947],[0.1997929606625259,0.20600414078674947],[0.1997929606625259,0.20600414078674947],[0.1997929606625259,0.20600414078674947],[0.1997929606625259,0.20600414078674947],[0.1997929606625259,0.20600414078674947],[0.1997929606625259,0.20600414078674947],[0.1997929606625259,0.20600414078674947],[0.1997929606625259,0.20600414078674947]]]",1,[66],,,,,,,,,,,,,,promenadeDeck3.jpg,space,3.319,0,2,2,82,1,publicrestroom2.jpg,sandDunes_desert_outdoor9.jpg,readingroom4.jpg,postoffice4.jpg
Image_List_3,,,,,,,,,,,,,,,,44293,2020-11-23_15h35.17.105,analogCatScenes,2020.1.3,Win32,60,"[1920,966]","[[[0.0010351966873706005,-0.19461697722567287],[0.0010351966873706005,-0.19461697722567287],[0.0010351966873706005,-0.19461697722567287],[0.0010351966873706005,-0.19461697722567287],[0.0010351966873706005,-0.19461697722567287],[0.0010351966873706005,-0.19461697722567287],[0.0010351966873706005,-0.19461697722567287],[0.0010351966873706005,-0.19461697722567287],[0.0010351966873706005,-0.19461697722567287],[0.0010351966873706005,-0.19461697722567287],[0.0010351966873706005,-0.19461697722567287],[0.0010351966873706005,-0.19461697722567287],[0.0010351966873706005,-0.19461697722567287],[0.0010351966873706005,-0.19461697722567287],[0.0010351966873706005,-0.19461697722567287],[0.0010351966873706005,-0.19461697722567287],[0.0010351966873706005,-0.19461697722567287],[0.0010351966873706005,-0.19461697722567287],[0.0010351966873706005,-0.19461697722567287],[0.0010351966873706005,-0.19461697722567287],[0.0010351966873706005,-0.19461697722567287],[0.0010351966873706005,-0.19461697722567287],[0.0010351966873706005,-0.19461697722567287],[0.0010351966873706005,-0.19461697722567287],[0.0010351966873706005,-0.19461697722567287],[0.0010351966873706005,-0.19461697722567287],[0.0010351966873706005,-0.19461697722567287],[0.0010351966873706005,-0.19461697722567287],[0.0010351966873706005,-0.19461697722567287],[0,-0.19358178053830227],[-0.005175983436853002,-0.18944099378881987],[-0.012422360248447204,-0.18633540372670807],[-0.022774327122153208,-0.18219461697722567],[-0.036231884057971016,-0.17805383022774326],[-0.051759834368530024,-0.17391304347826086],[-0.06935817805383022,-0.16873706004140787],[-0.08488612836438923,-0.16459627329192547],[-0.09937888198757763,-0.16045548654244307],[-0.11697722567287784,-0.15424430641821946],[-0.12939958592132506,-0.15113871635610765],[-0.13975155279503104,-0.14803312629399587],[-0.15113871635610765,-0.14492753623188406],[-0.16252587991718426,-0.14389233954451347],[-0.17494824016563146,-0.14078674948240166],[-0.18633540372670807,-0.13871635610766045],[-0.2039337474120083,-0.13457556935817805],[-0.21428571428571427,-0.13043478260869565],[-0.2246376811594203,-0.12629399585921325],[-0.23395445134575568,-0.12422360248447205],[-0.2422360248447205,-0.12111801242236025],[-0.2474120082815735,-0.11801242236024845],[-0.2515527950310559,-0.11697722567287784],[-0.2546583850931677,-0.11490683229813664],[-0.2587991718426501,-0.11283643892339544],[-0.2608695652173913,-0.11283643892339544],[-0.2608695652173913,-0.11283643892339544],[-0.2608695652173913,-0.11283643892339544],[-0.2608695652173913,-0.11283643892339544],[-0.2608695652173913,-0.11283643892339544],[-0.2608695652173913,-0.11283643892339544],[-0.2608695652173913,-0.11283643892339544],[-0.2608695652173913,-0.11283643892339544]],[[-0.006211180124223602,-0.19461697722567287],[-0.006211180124223602,-0.19461697722567287],[-0.006211180124223602,-0.19461697722567287],[-0.006211180124223602,-0.19461697722567287],[-0.006211180124223602,-0.19461697722567287],[-0.006211180124223602,-0.19461697722567287],[-0.006211180124223602,-0.19461697722567287],[-0.006211180124223602,-0.19461697722567287],[-0.006211180124223602,-0.19461697722567287],[-0.006211180124223602,-0.19461697722567287],[-0.006211180124223602,-0.19461697722567287],[-0.006211180124223602,-0.19461697722567287],[-0.006211180124223602,-0.19461697722567287],[-0.006211180124223602,-0.19461697722567287],[-0.006211180124223602,-0.1915113871635611],[-0.006211180124223602,-0.18944099378881987],[-0.006211180124223602,-0.18633540372670807],[-0.007246376811594203,-0.18219461697722567],[-0.007246376811594203,-0.18012422360248448],[-0.008281573498964804,-0.17701863354037267],[-0.011387163561076604,-0.16666666666666666],[-0.012422360248447204,-0.16459627329192547],[-0.014492753623188406,-0.15527950310559005],[-0.015527950310559006,-0.15010351966873706],[-0.016563146997929608,-0.14389233954451347],[-0.016563146997929608,-0.13664596273291926],[-0.017598343685300208,-0.12525879917184266],[-0.018633540372670808,-0.11076604554865424],[-0.018633540372670808,-0.10248447204968944],[-0.018633540372670808,-0.09109730848861283],[-0.018633540372670808,-0.07971014492753623],[-0.016563146997929608,-0.06832298136645963],[-0.014492753623188406,-0.057971014492753624],[-0.012422360248447204,-0.046583850931677016],[-0.008281573498964804,-0.035196687370600416],[-0.002070393374741201,-0.018633540372670808],[0.004140786749482402,-0.002070393374741201],[0.006211180124223602,0.006211180124223602],[0.010351966873706004,0.014492753623188406],[0.012422360248447204,0.021739130434782608],[0.020703933747412008,0.034161490683229816],[0.022774327122153208,0.038302277432712216],[0.023809523809523808,0.040372670807453416],[0.024844720496894408,0.042443064182194616],[0.024844720496894408,0.042443064182194616],[0.024844720496894408,0.042443064182194616],[0.024844720496894408,0.042443064182194616],[0.024844720496894408,0.042443064182194616],[0.024844720496894408,0.042443064182194616],[0.024844720496894408,0.042443064182194616],[0.024844720496894408,0.042443064182194616],[0.024844720496894408,0.042443064182194616],[0.024844720496894408,0.042443064182194616],[0.024844720496894408,0.042443064182194616],[0.024844720496894408,0.042443064182194616]],[[0,-0.19358178053830227],[0,-0.19358178053830227],[0,-0.19358178053830227],[0,-0.19358178053830227],[0,-0.19254658385093168],[0.002070393374741201,-0.18840579710144928],[0.004140786749482402,-0.18426501035196688],[0.007246376811594203,-0.17805383022774326],[0.012422360248447204,-0.16873706004140787],[0.015527950310559006,-0.16045548654244307],[0.018633540372670808,-0.15113871635610765],[0.021739130434782608,-0.14078674948240166],[0.025879917184265012,-0.12939958592132506],[0.030020703933747412,-0.11904761904761904],[0.034161490683229816,-0.10766045548654245],[0.037267080745341616,-0.10248447204968944],[0.039337474120082816,-0.09627329192546584],[0.040372670807453416,-0.09213250517598344],[0.041407867494824016,-0.08799171842650104],[0.042443064182194616,-0.08281573498964803],[0.045548654244306416,-0.07971014492753623],[0.046583850931677016,-0.07556935817805382],[0.047619047619047616,-0.07039337474120083],[0.049689440993788817,-0.06314699792960662],[0.051759834368530024,-0.057971014492753624],[0.054865424430641824,-0.053830227743271224],[0.057971014492753624,-0.047619047619047616],[0.060041407867494824,-0.042443064182194616],[0.06314699792960662,-0.036231884057971016],[0.06832298136645963,-0.028985507246376812],[0.07142857142857142,-0.023809523809523808],[0.07453416149068323,-0.019668737060041408],[0.07660455486542443,-0.017598343685300208],[0.07763975155279502,-0.014492753623188406],[0.07867494824016563,-0.012422360248447204],[0.07867494824016563,-0.012422360248447204],[0.07867494824016563,-0.012422360248447204],[0.07867494824016563,-0.012422360248447204],[0.07867494824016563,-0.012422360248447204],[0.07867494824016563,-0.012422360248447204],[0.07867494824016563,-0.012422360248447204],[0.07867494824016563,-0.012422360248447204],[0.07867494824016563,-0.012422360248447204]],[[0.007246376811594203,-0.2039337474120083],[0.007246376811594203,-0.2039337474120083],[0.007246376811594203,-0.2028985507246377],[0.009316770186335404,-0.1997929606625259],[0.012422360248447204,-0.19668737060041408],[0.014492753623188406,-0.19358178053830227],[0.017598343685300208,-0.18840579710144928],[0.023809523809523808,-0.18115942028985507],[0.030020703933747412,-0.17184265010351968],[0.040372670807453416,-0.16045548654244307],[0.057971014492753624,-0.14078674948240166],[0.06418219461697723,-0.13457556935817805],[0.08488612836438923,-0.11490683229813664],[0.10041407867494824,-0.10041407867494824],[0.11697722567287784,-0.08592132505175984],[0.12939958592132506,-0.07349896480331262],[0.13768115942028986,-0.062111801242236024],[0.14389233954451347,-0.053830227743271224],[0.14699792960662525,-0.048654244306418216],[0.15010351966873706,-0.045548654244306416],[0.15320910973084886,-0.043478260869565216],[0.15527950310559005,-0.040372670807453416],[0.15838509316770186,-0.037267080745341616],[0.16149068322981366,-0.034161490683229816],[0.16356107660455488,-0.031055900621118012],[0.16563146997929606,-0.030020703933747412],[0.16873706004140787,-0.026915113871635612],[0.17080745341614906,-0.024844720496894408],[0.17080745341614906,-0.023809523809523808]],[[0.005175983436853002,-0.19875776397515527],[0.008281573498964804,-0.19668737060041408],[0.011387163561076604,-0.19254658385093168],[0.016563146997929608,-0.18840579710144928],[0.022774327122153208,-0.18426501035196688],[0.032091097308488616,-0.17908902691511386],[0.049689440993788817,-0.17184265010351968],[0.06521739130434782,-0.16666666666666666],[0.08281573498964803,-0.16149068322981366],[0.10144927536231885,-0.15631469979296067],[0.12422360248447205,-0.15010351966873706],[0.14285714285714285,-0.14182194616977226],[0.16873706004140787,-0.12732919254658384],[0.18426501035196688,-0.12008281573498965],[0.19668737060041408,-0.11387163561076605],[0.2080745341614907,-0.10869565217391304],[0.2204968944099379,-0.10351966873706005],[0.2329192546583851,-0.09627329192546584],[0.2463768115942029,-0.08592132505175984],[0.2608695652173913,-0.07453416149068323],[0.2784679089026915,-0.061076604554865424],[0.2826086956521739,-0.056935817805383024],[0.2857142857142857,-0.053830227743271224],[0.2867494824016563,-0.052795031055900624],[0.2867494824016563,-0.052795031055900624],[0.2867494824016563,-0.052795031055900624],[0.2867494824016563,-0.052795031055900624],[0.2867494824016563,-0.052795031055900624],[0.2867494824016563,-0.052795031055900624],[0.2867494824016563,-0.052795031055900624],[0.2867494824016563,-0.052795031055900624],[0.2867494824016563,-0.052795031055900624],[0.2867494824016563,-0.052795031055900624],[0.2867494824016563,-0.052795031055900624]]]",5,"[62,55,43,29,34]",,,,,,,,,,,,,,elevatorOutside1.jpg,space,10.196,0,3,3,44,1,firestation2.jpg,frontFoyer4.jpg,foodcourt6.jpg,dock2.jpg
Image_List_3,,,,,,,,,,,,,,,,44293,2020-11-23_15h35.17.105,analogCatScenes,2020.1.3,Win32,60,"[1920,966]","[[[-0.003105590062111801,-0.19875776397515527],[-0.003105590062111801,-0.19875776397515527],[-0.003105590062111801,-0.19875776397515527],[-0.003105590062111801,-0.19875776397515527],[-0.003105590062111801,-0.19875776397515527],[-0.003105590062111801,-0.19875776397515527],[-0.003105590062111801,-0.19875776397515527],[-0.003105590062111801,-0.19875776397515527],[-0.002070393374741201,-0.19875776397515527],[0,-0.19772256728778467],[0.003105590062111801,-0.19461697722567287],[0.012422360248447204,-0.19047619047619047],[0.025879917184265012,-0.18633540372670807],[0.042443064182194616,-0.18219461697722567],[0.06418219461697723,-0.17805383022774326],[0.09213250517598344,-0.17391304347826086],[0.13457556935817805,-0.16977225672877846],[0.15942028985507245,-0.16770186335403728],[0.17908902691511386,-0.16459627329192547],[0.19461697722567287,-0.15942028985507245],[0.20910973084886128,-0.15527950310559005],[0.2236024844720497,-0.15113871635610765],[0.23809523809523808,-0.14699792960662525],[0.2422360248447205,-0.14596273291925466],[0.2453416149068323,-0.14389233954451347],[0.2453416149068323,-0.14389233954451347],[0.2453416149068323,-0.14389233954451347],[0.2463768115942029,-0.14389233954451347],[0.2474120082815735,-0.14389233954451347],[0.2484472049689441,-0.14285714285714285],[0.2505175983436853,-0.14285714285714285],[0.2505175983436853,-0.14285714285714285],[0.2505175983436853,-0.14285714285714285],[0.2505175983436853,-0.14285714285714285],[0.2505175983436853,-0.14285714285714285],[0.2505175983436853,-0.14285714285714285],[0.2505175983436853,-0.14285714285714285]],[[-0.008281573498964804,-0.18840579710144928],[-0.008281573498964804,-0.18840579710144928],[-0.008281573498964804,-0.18840579710144928],[-0.008281573498964804,-0.18840579710144928],[-0.008281573498964804,-0.18840579710144928],[-0.008281573498964804,-0.18840579710144928],[-0.008281573498964804,-0.18840579710144928],[-0.008281573498964804,-0.18840579710144928],[-0.008281573498964804,-0.18840579710144928],[-0.008281573498964804,-0.18840579710144928],[-0.008281573498964804,-0.18840579710144928],[-0.008281573498964804,-0.18840579710144928],[-0.010351966873706004,-0.18840579710144928],[-0.017598343685300208,-0.18840579710144928],[-0.031055900621118012,-0.1873706004140787],[-0.050724637681159424,-0.18426501035196688],[-0.06625258799171843,-0.18219461697722567],[-0.08695652173913043,-0.18115942028985507],[-0.10973084886128365,-0.17805383022774326],[-0.12939958592132506,-0.17287784679089027],[-0.14285714285714285,-0.16977225672877846],[-0.14906832298136646,-0.16770186335403728],[-0.15113871635610765,-0.16770186335403728],[-0.15113871635610765,-0.16770186335403728],[-0.15113871635610765,-0.16770186335403728],[-0.15113871635610765,-0.16770186335403728],[-0.15113871635610765,-0.16770186335403728],[-0.15113871635610765,-0.16770186335403728],[-0.15113871635610765,-0.16770186335403728],[-0.15113871635610765,-0.16770186335403728],[-0.15113871635610765,-0.16770186335403728],[-0.15113871635610765,-0.16770186335403728],[-0.15113871635610765,-0.16770186335403728],[-0.15113871635610765,-0.16770186335403728],[-0.15113871635610765,-0.16770186335403728],[-0.15113871635610765,-0.16770186335403728],[-0.15113871635610765,-0.16770186335403728],[-0.15113871635610765,-0.16770186335403728],[-0.15113871635610765,-0.16770186335403728],[-0.15113871635610765,-0.16770186335403728],[-0.15113871635610765,-0.16770186335403728]]]",2,"[37,41]",,,,,,,,,,,,,,laundromat2.jpeg,space,6.952,0,4,4,65,1,igloo5.jpg,newsstand7.jpg,labClass7.jpg,homeoffice8.jpg
Image_List_3,,,,,,,,,,,,,,,,44293,2020-11-23_15h35.17.105,analogCatScenes,2020.1.3,Win32,60,"[1920,966]","[[[0,-0.20600414078674947],[0,-0.20600414078674947],[0,-0.20600414078674947],[0,-0.20600414078674947],[0,-0.20600414078674947],[0,-0.20600414078674947],[0,-0.20600414078674947],[0,-0.20600414078674947],[0,-0.20600414078674947],[0,-0.20600414078674947],[0,-0.20496894409937888],[0,-0.20496894409937888],[0,-0.20496894409937888],[0,-0.20496894409937888],[0,-0.20496894409937888],[0,-0.20496894409937888],[0,-0.20496894409937888],[0,-0.20496894409937888],[0,-0.20496894409937888],[0,-0.20496894409937888],[0,-0.20496894409937888],[0,-0.20496894409937888],[0,-0.20496894409937888],[0,-0.20496894409937888],[0,-0.20496894409937888],[0,-0.20496894409937888],[0,-0.20496894409937888],[0,-0.20496894409937888],[0,-0.20496894409937888],[0,-0.20496894409937888],[0,-0.20496894409937888],[0,-0.20496894409937888],[0,-0.20496894409937888],[0,-0.20496894409937888],[0,-0.20496894409937888],[0,-0.20496894409937888],[0,-0.20496894409937888],[0,-0.20496894409937888],[0,-0.20496894409937888],[0,-0.20496894409937888],[0,-0.20496894409937888],[0,-0.20496894409937888],[0,-0.20496894409937888],[0,-0.20496894409937888],[0,-0.20496894409937888],[0,-0.20496894409937888],[0,-0.20496894409937888],[0,-0.20496894409937888],[0,-0.20496894409937888],[0,-0.20496894409937888],[0,-0.2039337474120083],[-0.0010351966873706005,-0.19772256728778467],[-0.002070393374741201,-0.19358178053830227],[-0.004140786749482402,-0.19047619047619047],[-0.005175983436853002,-0.1873706004140787],[-0.009316770186335404,-0.17908902691511386],[-0.011387163561076604,-0.17287784679089027],[-0.014492753623188406,-0.16770186335403728],[-0.017598343685300208,-0.16149068322981366],[-0.020703933747412008,-0.15424430641821946],[-0.023809523809523808,-0.14803312629399587],[-0.027950310559006212,-0.13975155279503104],[-0.035196687370600416,-0.12422360248447205],[-0.043478260869565216,-0.11283643892339544],[-0.053830227743271224,-0.10144927536231885],[-0.06521739130434782,-0.08799171842650104],[-0.07867494824016563,-0.07660455486542443],[-0.09109730848861283,-0.06418219461697723],[-0.10559006211180125,-0.050724637681159424],[-0.12629399585921325,-0.032091097308488616],[-0.13975155279503104,-0.021739130434782608],[-0.15217391304347827,-0.011387163561076604],[-0.16563146997929606,0],[-0.17908902691511386,0.012422360248447204],[-0.19461697722567287,0.025879917184265012],[-0.20910973084886128,0.038302277432712216],[-0.2349896480331263,0.053830227743271224],[-0.2505175983436853,0.060041407867494824],[-0.2608695652173913,0.06418219461697723],[-0.26811594202898553,0.06728778467908902],[-0.2712215320910973,0.06935817805383022],[-0.2722567287784679,0.06935817805383022],[-0.2722567287784679,0.06935817805383022],[-0.2722567287784679,0.06935817805383022],[-0.2722567287784679,0.06935817805383022],[-0.2722567287784679,0.06935817805383022],[-0.2722567287784679,0.06935817805383022],[-0.2722567287784679,0.06935817805383022],[-0.2722567287784679,0.06935817805383022],[-0.2722567287784679,0.06935817805383022],[-0.2722567287784679,0.06935817805383022],[-0.2722567287784679,0.06935817805383022],[-0.2722567287784679,0.06935817805383022],[-0.2722567287784679,0.06935817805383022],[-0.2722567287784679,0.06935817805383022],[-0.2722567287784679,0.06935817805383022],[-0.2722567287784679,0.06935817805383022],[-0.2722567287784679,0.06935817805383022]],[[0.003105590062111801,-0.19461697722567287],[0.003105590062111801,-0.19461697722567287],[0.003105590062111801,-0.19461697722567287],[0.003105590062111801,-0.19461697722567287],[0.003105590062111801,-0.19461697722567287],[0.003105590062111801,-0.19461697722567287],[0.003105590062111801,-0.19254658385093168],[0.003105590062111801,-0.19047619047619047],[0.005175983436853002,-0.1873706004140787],[0.007246376811594203,-0.18426501035196688],[0.009316770186335404,-0.18115942028985507],[0.012422360248447204,-0.17701863354037267],[0.015527950310559006,-0.17184265010351968],[0.018633540372670808,-0.16770186335403728],[0.022774327122153208,-0.16252587991718426],[0.032091097308488616,-0.15320910973084886],[0.041407867494824016,-0.14492753623188406],[0.051759834368530024,-0.13664596273291926],[0.06418219461697723,-0.13146997929606624],[0.07763975155279502,-0.12525879917184266],[0.09006211180124224,-0.12008281573498965],[0.10766045548654245,-0.11387163561076605],[0.12111801242236025,-0.10973084886128365],[0.13871635610766045,-0.10559006211180125],[0.15527950310559005,-0.10144927536231885],[0.17287784679089027,-0.09730848861283643],[0.1873706004140787,-0.09420289855072464],[0.19875776397515527,-0.09006211180124224],[0.2111801242236025,-0.08695652173913043],[0.2225672877846791,-0.08281573498964803],[0.2401656314699793,-0.07867494824016563],[0.2515527950310559,-0.07660455486542443],[0.2619047619047619,-0.07556935817805382],[0.2722567287784679,-0.07556935817805382],[0.2784679089026915,-0.07556935817805382],[0.2815734989648033,-0.07556935817805382],[0.28467908902691513,-0.07556935817805382],[0.2857142857142857,-0.07556935817805382],[0.28778467908902694,-0.07453416149068323],[0.2888198757763975,-0.07453416149068323],[0.2888198757763975,-0.07349896480331262],[0.2888198757763975,-0.07349896480331262],[0.2888198757763975,-0.07349896480331262],[0.2888198757763975,-0.07349896480331262],[0.2888198757763975,-0.07349896480331262],[0.2888198757763975,-0.07349896480331262],[0.2888198757763975,-0.07349896480331262]]]",2,"[98,47]",,,,,,,,,,,,,,stripmall6.jpg,space,6.666,0,5,5,95,1,waitingroom2.jpg,warehouse2.jpg,weightroom4.jpg,tvstudio3.jpg
Image_List_3,,,,,,,,,,,,,,,,44293,2020-11-23_15h35.17.105,analogCatScenes,2020.1.3,Win32,60,"[1920,966]","[[[-0.005175983436853002,-0.19047619047619047],[-0.005175983436853002,-0.19047619047619047],[-0.005175983436853002,-0.19047619047619047],[-0.006211180124223602,-0.19047619047619047],[-0.008281573498964804,-0.19047619047619047],[-0.011387163561076604,-0.18944099378881987],[-0.016563146997929608,-0.18840579710144928],[-0.027950310559006212,-0.18426501035196688],[-0.043478260869565216,-0.18012422360248448],[-0.060041407867494824,-0.17598343685300208],[-0.08074534161490683,-0.17184265010351968],[-0.10559006211180125,-0.16563146997929606],[-0.11594202898550725,-0.16459627329192547],[-0.12008281573498965,-0.16459627329192547],[-0.12318840579710146,-0.16459627329192547],[-0.12732919254658384,-0.16459627329192547],[-0.13664596273291926,-0.16666666666666666],[-0.14803312629399587,-0.16977225672877846],[-0.16045548654244307,-0.17184265010351968],[-0.17184265010351968,-0.17287784679089027],[-0.18426501035196688,-0.17494824016563146],[-0.18944099378881987,-0.17701863354037267],[-0.1956521739130435,-0.17908902691511386],[-0.20186335403726707,-0.18115942028985507],[-0.20496894409937888,-0.18322981366459629],[-0.2080745341614907,-0.18426501035196688],[-0.2122153209109731,-0.18530020703933747],[-0.21325051759834368,-0.18633540372670807],[-0.2163561076604555,-0.1873706004140787],[-0.21842650103519667,-0.18944099378881987],[-0.21842650103519667,-0.18944099378881987],[-0.21842650103519667,-0.18944099378881987],[-0.21842650103519667,-0.18944099378881987],[-0.21842650103519667,-0.18944099378881987],[-0.21842650103519667,-0.19047619047619047],[-0.21842650103519667,-0.19047619047619047]],[[-0.005175983436853002,-0.19461697722567287],[-0.005175983436853002,-0.19461697722567287],[-0.005175983436853002,-0.19461697722567287],[-0.005175983436853002,-0.19461697722567287],[-0.005175983436853002,-0.19358178053830227],[-0.005175983436853002,-0.19358178053830227],[-0.005175983436853002,-0.19254658385093168],[-0.005175983436853002,-0.18944099378881987],[-0.005175983436853002,-0.18633540372670807],[-0.005175983436853002,-0.18322981366459629],[-0.005175983436853002,-0.17805383022774326],[-0.005175983436853002,-0.17287784679089027],[-0.007246376811594203,-0.16563146997929606],[-0.008281573498964804,-0.15942028985507245],[-0.008281573498964804,-0.15113871635610765],[-0.010351966873706004,-0.13457556935817805],[-0.014492753623188406,-0.12318840579710146],[-0.018633540372670808,-0.11076604554865424],[-0.022774327122153208,-0.10041407867494824],[-0.025879917184265012,-0.08902691511387163],[-0.031055900621118012,-0.07971014492753623],[-0.037267080745341616,-0.07246376811594203],[-0.041407867494824016,-0.06832298136645963],[-0.045548654244306416,-0.06314699792960662],[-0.046583850931677016,-0.062111801242236024],[-0.046583850931677016,-0.061076604554865424],[-0.046583850931677016,-0.061076604554865424],[-0.046583850931677016,-0.061076604554865424],[-0.046583850931677016,-0.061076604554865424],[-0.046583850931677016,-0.061076604554865424],[-0.046583850931677016,-0.061076604554865424],[-0.046583850931677016,-0.061076604554865424],[-0.046583850931677016,-0.061076604554865424],[-0.046583850931677016,-0.061076604554865424]]]",2,"[36,34]",,,,,,,,,,,,,,factory1.jpg,space,4.783,0,6,6,45,1,fittingroom2.jpg,frontFoyer7.jpg,forestpath4.jpg,dock4.jpg
Image_List_3,,,,,,,,,,,,,,,,44293,2020-11-23_15h35.17.105,analogCatScenes,2020.1.3,Win32,60,"[1920,966]","[[[-0.0010351966873706005,-0.1997929606625259],[-0.0010351966873706005,-0.1997929606625259],[-0.0010351966873706005,-0.1997929606625259],[-0.0010351966873706005,-0.1997929606625259],[-0.0010351966873706005,-0.1997929606625259],[-0.0010351966873706005,-0.1997929606625259],[-0.0010351966873706005,-0.1997929606625259],[-0.0010351966873706005,-0.1997929606625259],[-0.0010351966873706005,-0.19772256728778467],[0,-0.1956521739130435],[0,-0.19461697722567287],[0.0010351966873706005,-0.1915113871635611],[0.002070393374741201,-0.18840579710144928],[0.003105590062111801,-0.18633540372670807],[0.005175983436853002,-0.18115942028985507],[0.006211180124223602,-0.17701863354037267],[0.007246376811594203,-0.17184265010351968],[0.007246376811594203,-0.16563146997929606],[0.008281573498964804,-0.15838509316770186],[0.010351966873706004,-0.14906832298136646],[0.012422360248447204,-0.13871635610766045],[0.014492753623188406,-0.12732919254658384],[0.015527950310559006,-0.11594202898550725],[0.017598343685300208,-0.10559006211180125],[0.022774327122153208,-0.08799171842650104],[0.025879917184265012,-0.07556935817805382],[0.028985507246376812,-0.06418219461697723],[0.031055900621118012,-0.052795031055900624],[0.034161490683229816,-0.039337474120082816],[0.036231884057971016,-0.027950310559006212],[0.042443064182194616,-0.008281573498964804],[0.045548654244306416,0.006211180124223602],[0.048654244306418216,0.017598343685300208],[0.051759834368530024,0.028985507246376812],[0.053830227743271224,0.037267080745341616],[0.054865424430641824,0.042443064182194616],[0.055900621118012424,0.044513457556935816],[0.055900621118012424,0.045548654244306416],[0.055900621118012424,0.045548654244306416],[0.055900621118012424,0.045548654244306416],[0.055900621118012424,0.045548654244306416],[0.055900621118012424,0.045548654244306416],[0.055900621118012424,0.045548654244306416],[0.055900621118012424,0.045548654244306416],[0.055900621118012424,0.045548654244306416],[0.055900621118012424,0.045548654244306416],[0.055900621118012424,0.045548654244306416]]]",1,[47],,,,,,,,,,,,,,porch.jpg,space,2.745,0,7,7,80,1,pavilion2.jpg,racecarcourse2.jpg,poolhall5.jpg,parkinggarage4.jpg
Image_List_3,,,,,,,,,,,,,,,,44293,2020-11-23_15h35.17.105,analogCatScenes,2020.1.3,Win32,60,"[1920,966]","[[[-0.0010351966873706005,-0.1956521739130435],[-0.004140786749482402,-0.1956521739130435],[-0.006211180124223602,-0.19668737060041408],[-0.010351966873706004,-0.19668737060041408],[-0.019668737060041408,-0.19668737060041408],[-0.032091097308488616,-0.1956521739130435],[-0.06625258799171843,-0.18840579710144928],[-0.09523809523809523,-0.17908902691511386],[-0.12836438923395446,-0.16563146997929606],[-0.15010351966873706,-0.15838509316770186],[-0.16666666666666666,-0.15113871635610765],[-0.17598343685300208,-0.14803312629399587],[-0.17598343685300208,-0.14803312629399587],[-0.17598343685300208,-0.14803312629399587],[-0.17598343685300208,-0.14803312629399587],[-0.17598343685300208,-0.14803312629399587],[-0.17598343685300208,-0.14803312629399587],[-0.17598343685300208,-0.14803312629399587],[-0.17598343685300208,-0.14803312629399587],[-0.17598343685300208,-0.14803312629399587],[-0.17598343685300208,-0.14803312629399587],[-0.17598343685300208,-0.14803312629399587],[-0.17598343685300208,-0.14803312629399587],[-0.17598343685300208,-0.14803312629399587],[-0.17598343685300208,-0.14803312629399587],[-0.17598343685300208,-0.14803312629399587],[-0.17598343685300208,-0.14803312629399587]],[[-0.010351966873706004,-0.1956521739130435],[-0.010351966873706004,-0.1956521739130435],[-0.010351966873706004,-0.1956521739130435],[-0.010351966873706004,-0.1956521739130435],[-0.010351966873706004,-0.1956521739130435],[-0.010351966873706004,-0.1956521739130435],[-0.010351966873706004,-0.1956521739130435],[-0.010351966873706004,-0.1956521739130435],[-0.010351966873706004,-0.1956521739130435],[-0.010351966873706004,-0.1956521739130435],[-0.010351966873706004,-0.1956521739130435],[-0.010351966873706004,-0.1956521739130435],[-0.010351966873706004,-0.1956521739130435],[-0.010351966873706004,-0.1956521739130435],[-0.002070393374741201,-0.19461697722567287],[0.012422360248447204,-0.19461697722567287],[0.034161490683229816,-0.19772256728778467],[0.06521739130434782,-0.19772256728778467],[0.11076604554865424,-0.19875776397515527],[0.14803312629399587,-0.20082815734989648],[0.17391304347826086,-0.19772256728778467],[0.17701863354037267,-0.1956521739130435],[0.17805383022774326,-0.1956521739130435],[0.17805383022774326,-0.1956521739130435],[0.18115942028985507,-0.19461697722567287],[0.18322981366459629,-0.19358178053830227],[0.18426501035196688,-0.19358178053830227],[0.18426501035196688,-0.19358178053830227],[0.18426501035196688,-0.19358178053830227],[0.18426501035196688,-0.19358178053830227],[0.18633540372670807,-0.19254658385093168],[0.1915113871635611,-0.19254658385093168],[0.19461697722567287,-0.19254658385093168],[0.1956521739130435,-0.19254658385093168],[0.1956521739130435,-0.19254658385093168],[0.1956521739130435,-0.19254658385093168],[0.1956521739130435,-0.19254658385093168],[0.1956521739130435,-0.19254658385093168],[0.1956521739130435,-0.19254658385093168],[0.1956521739130435,-0.19254658385093168],[0.1956521739130435,-0.19254658385093168],[0.1956521739130435,-0.19254658385093168],[0.1956521739130435,-0.19254658385093168],[0.1956521739130435,-0.19254658385093168],[0.1956521739130435,-0.19254658385093168]]]",2,"[27,45]",,,,,,,,,,,,,,dinosaur4.jpg,space,3.766,0,8,8,37,1,dining_car.jpg,driveway4.jpg,driveway7.jpg,citystreet9.jpg
Image_List_3,,,,,,,,,,,,,,,,44293,2020-11-23_15h35.17.105,analogCatScenes,2020.1.3,Win32,60,"[1920,966]","[[[-0.005175983436853002,-0.20186335403726707],[-0.005175983436853002,-0.20186335403726707],[-0.005175983436853002,-0.20186335403726707],[-0.005175983436853002,-0.20186335403726707],[-0.005175983436853002,-0.20186335403726707],[-0.005175983436853002,-0.20186335403726707],[-0.005175983436853002,-0.20186335403726707],[-0.005175983436853002,-0.20186335403726707],[-0.005175983436853002,-0.20186335403726707],[-0.005175983436853002,-0.20186335403726707],[-0.005175983436853002,-0.20186335403726707],[-0.005175983436853002,-0.20186335403726707],[-0.005175983436853002,-0.20186335403726707],[-0.006211180124223602,-0.20186335403726707],[-0.006211180124223602,-0.20186335403726707],[-0.006211180124223602,-0.20186335403726707],[-0.007246376811594203,-0.20186335403726707],[-0.010351966873706004,-0.20082815734989648],[-0.013457556935817806,-0.1997929606625259],[-0.030020703933747412,-0.1956521739130435],[-0.046583850931677016,-0.19047619047619047],[-0.06418219461697723,-0.18322981366459629],[-0.08281573498964803,-0.17598343685300208],[-0.10041407867494824,-0.16873706004140787],[-0.11801242236024845,-0.16459627329192547],[-0.14078674948240166,-0.15838509316770186],[-0.15527950310559005,-0.15527950310559005],[-0.16666666666666666,-0.15320910973084886],[-0.17805383022774326,-0.15320910973084886],[-0.18944099378881987,-0.15320910973084886],[-0.20186335403726707,-0.15320910973084886],[-0.2153209109730849,-0.15527950310559005],[-0.2267080745341615,-0.15631469979296067],[-0.2308488612836439,-0.15631469979296067],[-0.2329192546583851,-0.15631469979296067],[-0.2329192546583851,-0.15631469979296067],[-0.2329192546583851,-0.15631469979296067],[-0.2329192546583851,-0.15631469979296067],[-0.2329192546583851,-0.15631469979296067],[-0.2329192546583851,-0.15631469979296067],[-0.2329192546583851,-0.15631469979296067],[-0.2329192546583851,-0.15631469979296067],[-0.2329192546583851,-0.15631469979296067],[-0.2329192546583851,-0.15631469979296067],[-0.2329192546583851,-0.15631469979296067],[-0.2329192546583851,-0.15631469979296067],[-0.2329192546583851,-0.15631469979296067],[-0.2329192546583851,-0.15734989648033126],[-0.2329192546583851,-0.15734989648033126],[-0.2329192546583851,-0.15734989648033126],[-0.2329192546583851,-0.15734989648033126],[-0.2329192546583851,-0.15734989648033126]],[[0.004140786749482402,-0.19875776397515527],[0.004140786749482402,-0.19875776397515527],[0.004140786749482402,-0.19875776397515527],[0.004140786749482402,-0.19875776397515527],[0.004140786749482402,-0.19875776397515527],[0.004140786749482402,-0.19875776397515527],[0.004140786749482402,-0.19875776397515527],[0.004140786749482402,-0.19875776397515527],[0.004140786749482402,-0.19875776397515527],[0.004140786749482402,-0.19875776397515527],[0.004140786749482402,-0.19875776397515527],[0.004140786749482402,-0.19875776397515527],[0.004140786749482402,-0.19875776397515527],[0.004140786749482402,-0.19875776397515527],[0.004140786749482402,-0.19875776397515527],[0.004140786749482402,-0.19875776397515527],[0.004140786749482402,-0.19875776397515527],[0.004140786749482402,-0.19875776397515527],[0.004140786749482402,-0.19875776397515527],[0.004140786749482402,-0.19875776397515527],[0.004140786749482402,-0.19875776397515527],[0.004140786749482402,-0.19875776397515527],[0.004140786749482402,-0.19875776397515527],[0.004140786749482402,-0.19875776397515527],[0.004140786749482402,-0.19875776397515527],[0.004140786749482402,-0.19875776397515527],[0.004140786749482402,-0.19875776397515527],[0.008281573498964804,-0.19875776397515527],[0.021739130434782608,-0.19875776397515527],[0.054865424430641824,-0.19875776397515527],[0.08695652173913043,-0.20186335403726707],[0.12318840579710146,-0.2070393374741201],[0.15113871635610765,-0.2122153209109731],[0.17080745341614906,-0.2163561076604555],[0.18012422360248448,-0.21739130434782608],[0.18115942028985507,-0.21842650103519667],[0.18115942028985507,-0.21842650103519667],[0.18115942028985507,-0.21842650103519667],[0.18115942028985507,-0.21842650103519667],[0.18115942028985507,-0.21842650103519667],[0.18115942028985507,-0.21842650103519667],[0.18115942028985507,-0.21842650103519667],[0.18115942028985507,-0.21842650103519667],[0.18115942028985507,-0.21842650103519667],[0.18115942028985507,-0.21842650103519667],[0.18115942028985507,-0.21842650103519667],[0.18115942028985507,-0.21842650103519667],[0.18115942028985507,-0.21842650103519667],[0.18115942028985507,-0.21842650103519667],[0.18115942028985507,-0.21842650103519667],[0.18115942028985507,-0.21842650103519667],[0.18115942028985507,-0.21842650103519667],[0.18115942028985507,-0.21842650103519667]],[[-0.008281573498964804,-0.18944099378881987],[-0.008281573498964804,-0.18944099378881987],[-0.008281573498964804,-0.18944099378881987],[-0.008281573498964804,-0.18944099378881987],[-0.008281573498964804,-0.18944099378881987],[-0.008281573498964804,-0.18944099378881987],[-0.008281573498964804,-0.18944099378881987],[-0.008281573498964804,-0.18944099378881987],[-0.008281573498964804,-0.18944099378881987],[-0.008281573498964804,-0.18944099378881987],[-0.008281573498964804,-0.18944099378881987],[-0.008281573498964804,-0.18944099378881987],[-0.008281573498964804,-0.18944099378881987],[-0.008281573498964804,-0.18944099378881987],[-0.008281573498964804,-0.18944099378881987],[-0.008281573498964804,-0.18840579710144928],[-0.008281573498964804,-0.18426501035196688],[-0.008281573498964804,-0.18012422360248448],[-0.006211180124223602,-0.17080745341614906],[-0.003105590062111801,-0.15838509316770186],[-0.0010351966873706005,-0.14492753623188406],[0.002070393374741201,-0.12732919254658384],[0.002070393374741201,-0.11697722567287784],[0.004140786749482402,-0.10455486542443064],[0.005175983436853002,-0.09316770186335403],[0.008281573498964804,-0.08178053830227744],[0.010351966873706004,-0.07142857142857142],[0.012422360248447204,-0.061076604554865424],[0.014492753623188406,-0.051759834368530024],[0.016563146997929608,-0.043478260869565216],[0.022774327122153208,-0.026915113871635612],[0.023809523809523808,-0.023809523809523808],[0.024844720496894408,-0.020703933747412008],[0.024844720496894408,-0.019668737060041408],[0.024844720496894408,-0.018633540372670808],[0.024844720496894408,-0.018633540372670808],[0.024844720496894408,-0.018633540372670808],[0.024844720496894408,-0.018633540372670808],[0.024844720496894408,-0.018633540372670808],[0.024844720496894408,-0.018633540372670808],[0.024844720496894408,-0.018633540372670808],[0.024844720496894408,-0.018633540372670808],[0.024844720496894408,-0.018633540372670808],[0.024844720496894408,-0.017598343685300208],[0.025879917184265012,-0.013457556935817806],[0.025879917184265012,-0.011387163561076604],[0.025879917184265012,-0.007246376811594203],[0.025879917184265012,-0.003105590062111801],[0.025879917184265012,0.0010351966873706005],[0.025879917184265012,0.005175983436853002],[0.025879917184265012,0.009316770186335404],[0.025879917184265012,0.012422360248447204],[0.025879917184265012,0.014492753623188406],[0.025879917184265012,0.015527950310559006],[0.025879917184265012,0.016563146997929608],[0.025879917184265012,0.016563146997929608],[0.025879917184265012,0.016563146997929608],[0.025879917184265012,0.016563146997929608],[0.025879917184265012,0.016563146997929608],[0.025879917184265012,0.016563146997929608],[0.025879917184265012,0.016563146997929608],[0.025879917184265012,0.016563146997929608],[0.025879917184265012,0.016563146997929608],[0.025879917184265012,0.016563146997929608]]]",3,"[52,53,64]",,,,,,,,,,,,,,metroInside3.jpg,space,10.217,0,9,9,71,1,metroInside2.jpg,pavilion5.jpg,museum3.jpg,jewelrystore.jpg
Image_List_3,,,,,,,,,,,,,,,,44293,2020-11-23_15h35.17.105,analogCatScenes,2020.1.3,Win32,60,"[1920,966]","[[[-0.003105590062111801,-0.19875776397515527],[-0.003105590062111801,-0.19875776397515527],[-0.003105590062111801,-0.19875776397515527],[-0.003105590062111801,-0.19875776397515527],[-0.003105590062111801,-0.19875776397515527],[-0.003105590062111801,-0.19875776397515527],[-0.004140786749482402,-0.19772256728778467],[-0.006211180124223602,-0.19461697722567287],[-0.008281573498964804,-0.1915113871635611],[-0.011387163561076604,-0.18840579710144928],[-0.014492753623188406,-0.18426501035196688],[-0.017598343685300208,-0.18012422360248448],[-0.020703933747412008,-0.17701863354037267],[-0.023809523809523808,-0.17391304347826086],[-0.027950310559006212,-0.16977225672877846],[-0.031055900621118012,-0.16666666666666666],[-0.035196687370600416,-0.16356107660455488],[-0.043478260869565216,-0.15734989648033126],[-0.053830227743271224,-0.14699792960662525],[-0.06625258799171843,-0.13457556935817805],[-0.08178053830227744,-0.12008281573498965],[-0.11283643892339544,-0.09316770186335403],[-0.14182194616977226,-0.07246376811594203],[-0.16459627329192547,-0.054865424430641824],[-0.18322981366459629,-0.038302277432712216],[-0.20186335403726707,-0.024844720496894408],[-0.2153209109730849,-0.014492753623188406],[-0.2267080745341615,-0.007246376811594203],[-0.23809523809523808,-0.002070393374741201],[-0.2412008281573499,0.0010351966873706005],[-0.2453416149068323,0.004140786749482402],[-0.2453416149068323,0.004140786749482402],[-0.2453416149068323,0.004140786749482402],[-0.2453416149068323,0.004140786749482402],[-0.2453416149068323,0.004140786749482402],[-0.2453416149068323,0.004140786749482402],[-0.2453416149068323,0.004140786749482402],[-0.2453416149068323,0.004140786749482402],[-0.2453416149068323,0.004140786749482402],[-0.2453416149068323,0.004140786749482402],[-0.2453416149068323,0.004140786749482402],[-0.2453416149068323,0.004140786749482402],[-0.2453416149068323,0.004140786749482402],[-0.2453416149068323,0.004140786749482402],[-0.2453416149068323,0.004140786749482402]],[[-0.003105590062111801,-0.19254658385093168],[-0.003105590062111801,-0.19254658385093168],[-0.003105590062111801,-0.19254658385093168],[-0.003105590062111801,-0.19254658385093168],[-0.003105590062111801,-0.19254658385093168],[-0.003105590062111801,-0.19254658385093168],[-0.0010351966873706005,-0.19047619047619047],[0.002070393374741201,-0.18633540372670807],[0.006211180124223602,-0.18322981366459629],[0.018633540372670808,-0.16873706004140787],[0.034161490683229816,-0.15527950310559005],[0.053830227743271224,-0.14078674948240166],[0.08178053830227744,-0.12008281573498965],[0.11387163561076605,-0.09834368530020704],[0.14182194616977226,-0.07556935817805382],[0.17184265010351968,-0.051759834368530024],[0.18944099378881987,-0.039337474120082816],[0.20186335403726707,-0.030020703933747412],[0.21325051759834368,-0.023809523809523808],[0.21842650103519667,-0.020703933747412008],[0.2225672877846791,-0.017598343685300208],[0.22567287784679088,-0.015527950310559006],[0.2277432712215321,-0.013457556935817806],[0.2277432712215321,-0.013457556935817806],[0.2277432712215321,-0.013457556935817806],[0.2277432712215321,-0.013457556935817806],[0.2277432712215321,-0.013457556935817806],[0.2277432712215321,-0.013457556935817806],[0.2277432712215321,-0.013457556935817806],[0.2277432712215321,-0.013457556935817806],[0.2277432712215321,-0.013457556935817806],[0.2277432712215321,-0.013457556935817806],[0.2277432712215321,-0.013457556935817806],[0.2277432712215321,-0.013457556935817806],[0.2277432712215321,-0.013457556935817806],[0.2277432712215321,-0.013457556935817806],[0.2277432712215321,-0.013457556935817806],[0.2277432712215321,-0.013457556935817806],[0.2277432712215321,-0.013457556935817806]],[[0.002070393374741201,-0.19772256728778467],[0.002070393374741201,-0.19668737060041408],[0.002070393374741201,-0.19668737060041408],[0.002070393374741201,-0.19668737060041408],[0.002070393374741201,-0.19668737060041408],[0.002070393374741201,-0.19668737060041408],[0.002070393374741201,-0.19668737060041408],[0.002070393374741201,-0.19668737060041408],[0.002070393374741201,-0.19668737060041408],[0.002070393374741201,-0.19668737060041408],[0.002070393374741201,-0.19668737060041408],[0.002070393374741201,-0.19668737060041408],[0.002070393374741201,-0.19668737060041408],[0.002070393374741201,-0.19668737060041408],[0.002070393374741201,-0.19461697722567287],[0.0010351966873706005,-0.18840579710144928],[0,-0.17494824016563146],[-0.0010351966873706005,-0.15631469979296067],[-0.003105590062111801,-0.13664596273291926],[-0.006211180124223602,-0.09937888198757763],[-0.006211180124223602,-0.07971014492753623],[-0.006211180124223602,-0.06521739130434782],[-0.006211180124223602,-0.054865424430641824],[-0.006211180124223602,-0.046583850931677016],[-0.007246376811594203,-0.041407867494824016],[-0.007246376811594203,-0.035196687370600416],[-0.007246376811594203,-0.027950310559006212],[-0.008281573498964804,-0.024844720496894408],[-0.009316770186335404,-0.021739130434782608],[-0.009316770186335404,-0.019668737060041408],[-0.009316770186335404,-0.015527950310559006],[-0.011387163561076604,-0.012422360248447204],[-0.012422360248447204,-0.009316770186335404],[-0.012422360248447204,-0.007246376811594203],[-0.012422360248447204,-0.007246376811594203],[-0.012422360248447204,-0.007246376811594203],[-0.012422360248447204,-0.007246376811594203],[-0.012422360248447204,-0.007246376811594203],[-0.012422360248447204,-0.007246376811594203],[-0.012422360248447204,-0.007246376811594203],[-0.012422360248447204,-0.007246376811594203],[-0.012422360248447204,-0.007246376811594203],[-0.012422360248447204,-0.007246376811594203],[-0.012422360248447204,-0.007246376811594203],[-0.012422360248447204,-0.007246376811594203],[-0.012422360248447204,-0.007246376811594203],[-0.012422360248447204,-0.007246376811594203],[-0.012422360248447204,-0.007246376811594203],[-0.012422360248447204,-0.007246376811594203],[-0.012422360248447204,-0.007246376811594203],[-0.012422360248447204,-0.007246376811594203]]]",3,"[45,39,51]",,,,,,,,,,,,,,ballroom4.jpg,space,9.872,0,10,10,10,1,backstage2.jpg,barbershop3.jpg,basketballcourt3.jpg,ATM4.jpg
Image_List_3,,,,,,,,,,,,,,,,44293,2020-11-23_15h35.17.105,analogCatScenes,2020.1.3,Win32,60,"[1920,966]","[[[0,-0.19772256728778467],[0,-0.19772256728778467],[0,-0.19772256728778467],[0,-0.19772256728778467],[0,-0.19668737060041408],[-0.0010351966873706005,-0.19358178053830227],[-0.006211180124223602,-0.19047619047619047],[-0.018633540372670808,-0.17805383022774326],[-0.049689440993788817,-0.15631469979296067],[-0.07453416149068323,-0.13975155279503104],[-0.10973084886128365,-0.12215320910973085],[-0.14906832298136646,-0.10248447204968944],[-0.18012422360248448,-0.08799171842650104],[-0.2039337474120083,-0.08281573498964803],[-0.21842650103519667,-0.07867494824016563],[-0.2308488612836439,-0.07660455486542443],[-0.2370600414078675,-0.07453416149068323],[-0.2422360248447205,-0.07453416149068323],[-0.2432712215320911,-0.07453416149068323],[-0.2432712215320911,-0.07453416149068323],[-0.2432712215320911,-0.07453416149068323],[-0.2432712215320911,-0.07453416149068323],[-0.2432712215320911,-0.07453416149068323],[-0.2432712215320911,-0.07453416149068323],[-0.2432712215320911,-0.07453416149068323],[-0.2432712215320911,-0.07453416149068323],[-0.2432712215320911,-0.07453416149068323],[-0.2432712215320911,-0.07453416149068323],[-0.2432712215320911,-0.07453416149068323],[-0.2432712215320911,-0.07453416149068323],[-0.2432712215320911,-0.07453416149068323]],[[0,-0.20186335403726707],[0,-0.20186335403726707],[0,-0.20186335403726707],[0,-0.20186335403726707],[0.003105590062111801,-0.1997929606625259],[0.013457556935817806,-0.19668737060041408],[0.025879917184265012,-0.19254658385093168],[0.046583850931677016,-0.18840579710144928],[0.07246376811594203,-0.18322981366459629],[0.10248447204968944,-0.17701863354037267],[0.14803312629399587,-0.16977225672877846],[0.17494824016563146,-0.16459627329192547],[0.19047619047619047,-0.16045548654244307],[0.20186335403726707,-0.15838509316770186],[0.21014492753623187,-0.15631469979296067],[0.21739130434782608,-0.15424430641821946],[0.2246376811594203,-0.15217391304347827],[0.2277432712215321,-0.15113871635610765],[0.22981366459627328,-0.15010351966873706],[0.22981366459627328,-0.15010351966873706],[0.22981366459627328,-0.15010351966873706],[0.2308488612836439,-0.15010351966873706],[0.2308488612836439,-0.15010351966873706],[0.2308488612836439,-0.15010351966873706],[0.2308488612836439,-0.15010351966873706],[0.2308488612836439,-0.15010351966873706],[0.2308488612836439,-0.15010351966873706],[0.2308488612836439,-0.15010351966873706],[0.2308488612836439,-0.15010351966873706]],[[0.004140786749482402,-0.19461697722567287],[0.004140786749482402,-0.19461697722567287],[0.007246376811594203,-0.18840579710144928],[0.010351966873706004,-0.17494824016563146],[0.014492753623188406,-0.15631469979296067],[0.017598343685300208,-0.12939958592132506],[0.017598343685300208,-0.09006211180124224],[0.014492753623188406,-0.051759834368530024],[0.009316770186335404,-0.021739130434782608],[0.003105590062111801,0.008281573498964804],[-0.0010351966873706005,0.022774327122153208],[-0.004140786749482402,0.028985507246376812],[-0.006211180124223602,0.031055900621118012],[-0.006211180124223602,0.032091097308488616],[-0.006211180124223602,0.032091097308488616],[-0.006211180124223602,0.032091097308488616],[-0.006211180124223602,0.032091097308488616],[-0.006211180124223602,0.032091097308488616],[-0.006211180124223602,0.032091097308488616],[-0.006211180124223602,0.032091097308488616],[-0.006211180124223602,0.032091097308488616],[-0.006211180124223602,0.032091097308488616],[-0.006211180124223602,0.032091097308488616],[-0.006211180124223602,0.032091097308488616],[-0.006211180124223602,0.032091097308488616],[-0.006211180124223602,0.032091097308488616],[-0.006211180124223602,0.032091097308488616],[-0.006211180124223602,0.032091097308488616],[-0.006211180124223602,0.032091097308488616],[-0.006211180124223602,0.032091097308488616],[-0.006211180124223602,0.032091097308488616],[-0.006211180124223602,0.032091097308488616]]]",3,"[31,29,32]",,,,,,,,,,,,,,playground9.jpg,space,5.112,0,11,11,79,1,pasture.jpg,poolhall2.jpeg,pier2.jpg,observatory2.jpg
Image_List_3,,,,,,,,,,,,,,,,44293,2020-11-23_15h35.17.105,analogCatScenes,2020.1.3,Win32,60,"[1920,966]","[[[0.004140786749482402,-0.20600414078674947],[0.004140786749482402,-0.20600414078674947],[0.004140786749482402,-0.20600414078674947],[0.004140786749482402,-0.20600414078674947],[0.004140786749482402,-0.20600414078674947],[0.004140786749482402,-0.20600414078674947],[0.004140786749482402,-0.20496894409937888],[0.004140786749482402,-0.20496894409937888],[0.004140786749482402,-0.20496894409937888],[0.007246376811594203,-0.20496894409937888],[0.019668737060041408,-0.20082815734989648],[0.039337474120082816,-0.19461697722567287],[0.07556935817805382,-0.1873706004140787],[0.13457556935817805,-0.18115942028985507],[0.2111801242236025,-0.17805383022774326],[0.3053830227743271,-0.17391304347826086],[0.34265010351966874,-0.17391304347826086]]]",1,[17],,,,,,,,,,,,,,lightingstore4.jpg,space,2.301,0,12,12,68,1,liquorstore7.jpg,parkinglot.jpg,lockerroom2.jpg,hospitalroom3.jpg
Image_List_3,,,,,,,,,,,,,,,,44293,2020-11-23_15h35.17.105,analogCatScenes,2020.1.3,Win32,60,"[1920,966]","[[[0.0010351966873706005,-0.1997929606625259],[0.0010351966873706005,-0.1997929606625259],[0.0010351966873706005,-0.1997929606625259],[0.0010351966873706005,-0.1997929606625259],[0.0010351966873706005,-0.1997929606625259],[0.0010351966873706005,-0.1997929606625259],[0.0010351966873706005,-0.1997929606625259],[0.0010351966873706005,-0.1997929606625259],[0.0010351966873706005,-0.19875776397515527],[0.0010351966873706005,-0.19668737060041408],[0,-0.19461697722567287],[0,-0.19254658385093168],[0,-0.1915113871635611],[0,-0.18944099378881987],[0,-0.18633540372670807],[0,-0.18219461697722567],[0,-0.17494824016563146],[0,-0.16252587991718426],[0.0010351966873706005,-0.14699792960662525],[0.002070393374741201,-0.12939958592132506],[0.002070393374741201,-0.11076604554865424],[0,-0.09730848861283643],[-0.003105590062111801,-0.08592132505175984],[-0.008281573498964804,-0.07556935817805382],[-0.011387163561076604,-0.07246376811594203],[-0.015527950310559006,-0.06935817805383022],[-0.019668737060041408,-0.06625258799171843],[-0.023809523809523808,-0.06314699792960662],[-0.028985507246376812,-0.060041407867494824],[-0.035196687370600416,-0.055900621118012424],[-0.039337474120082816,-0.052795031055900624],[-0.041407867494824016,-0.051759834368530024],[-0.042443064182194616,-0.051759834368530024],[-0.042443064182194616,-0.051759834368530024],[-0.042443064182194616,-0.051759834368530024],[-0.042443064182194616,-0.051759834368530024],[-0.042443064182194616,-0.051759834368530024],[-0.042443064182194616,-0.051759834368530024],[-0.042443064182194616,-0.051759834368530024],[-0.042443064182194616,-0.051759834368530024],[-0.042443064182194616,-0.051759834368530024],[-0.042443064182194616,-0.051759834368530024],[-0.042443064182194616,-0.051759834368530024],[-0.042443064182194616,-0.051759834368530024],[-0.042443064182194616,-0.051759834368530024],[-0.042443064182194616,-0.051759834368530024],[-0.042443064182194616,-0.051759834368530024],[-0.042443064182194616,-0.051759834368530024],[-0.042443064182194616,-0.051759834368530024]],[[-0.006211180124223602,-0.20186335403726707],[-0.006211180124223602,-0.20186335403726707],[-0.006211180124223602,-0.20186335403726707],[-0.006211180124223602,-0.20186335403726707],[-0.006211180124223602,-0.20082815734989648],[-0.007246376811594203,-0.19875776397515527],[-0.013457556935817806,-0.1956521739130435],[-0.038302277432712216,-0.18944099378881987],[-0.060041407867494824,-0.18633540372670807],[-0.07867494824016563,-0.18322981366459629],[-0.09316770186335403,-0.18322981366459629],[-0.10248447204968944,-0.18322981366459629],[-0.10973084886128365,-0.18322981366459629],[-0.11490683229813664,-0.18322981366459629],[-0.11697722567287784,-0.18322981366459629],[-0.12008281573498965,-0.18322981366459629],[-0.12525879917184266,-0.18322981366459629],[-0.12939958592132506,-0.18322981366459629],[-0.13146997929606624,-0.18322981366459629],[-0.13146997929606624,-0.18322981366459629],[-0.13146997929606624,-0.18322981366459629],[-0.13146997929606624,-0.18322981366459629],[-0.13146997929606624,-0.18322981366459629],[-0.13146997929606624,-0.18322981366459629],[-0.13146997929606624,-0.18322981366459629],[-0.13146997929606624,-0.18426501035196688]],[[-0.006211180124223602,-0.19668737060041408],[-0.006211180124223602,-0.19668737060041408],[-0.006211180124223602,-0.19668737060041408],[-0.006211180124223602,-0.19668737060041408],[-0.006211180124223602,-0.19668737060041408],[-0.006211180124223602,-0.19668737060041408],[-0.006211180124223602,-0.19668737060041408],[-0.005175983436853002,-0.19668737060041408],[0.005175983436853002,-0.19254658385093168],[0.023809523809523808,-0.18633540372670807],[0.07142857142857142,-0.16356107660455488],[0.11180124223602485,-0.15113871635610765],[0.13561076604554864,-0.14492753623188406],[0.14803312629399587,-0.14182194616977226],[0.15631469979296067,-0.14078674948240166],[0.15838509316770186,-0.13871635610766045],[0.16045548654244307,-0.13768115942028986],[0.16149068322981366,-0.13768115942028986],[0.16149068322981366,-0.13768115942028986],[0.16149068322981366,-0.13768115942028986],[0.16149068322981366,-0.13768115942028986],[0.16149068322981366,-0.13768115942028986],[0.16149068322981366,-0.13768115942028986],[0.16149068322981366,-0.13768115942028986],[0.16149068322981366,-0.13768115942028986],[0.16149068322981366,-0.13768115942028986],[0.16149068322981366,-0.13768115942028986],[0.16149068322981366,-0.13768115942028986],[0.16149068322981366,-0.13768115942028986],[0.16149068322981366,-0.13768115942028986]]]",3,"[49,26,30]",,,,,,,,,,,,,,gazebo5.jpg,space,4.617,0,13,13,55,1,greenmountains.jpg,hotelRoom3.jpg,hotelRoom7.jpg,frontLawn2.jpg
Image_List_3,,,,,,,,,,,,,,,,44293,2020-11-23_15h35.17.105,analogCatScenes,2020.1.3,Win32,60,"[1920,966]","[[[0,-0.19668737060041408],[0,-0.19668737060041408],[0,-0.19668737060041408],[0,-0.19668737060041408],[0,-0.19668737060041408],[0,-0.19668737060041408],[0,-0.19668737060041408],[0,-0.19668737060041408],[0,-0.19668737060041408],[0.006211180124223602,-0.19461697722567287],[0.040372670807453416,-0.18012422360248448],[0.12939958592132506,-0.14596273291925466],[0.18633540372670807,-0.12732919254658384],[0.22153209109730848,-0.11490683229813664],[0.2401656314699793,-0.11180124223602485],[0.2525879917184265,-0.10869565217391304],[0.2577639751552795,-0.10766045548654245]],[[-0.005175983436853002,-0.1915113871635611],[-0.005175983436853002,-0.1915113871635611],[-0.005175983436853002,-0.19047619047619047],[-0.005175983436853002,-0.18944099378881987],[0,-0.18530020703933747],[0.004140786749482402,-0.17494824016563146],[0.007246376811594203,-0.16045548654244307],[0.010351966873706004,-0.14285714285714285],[0.010351966873706004,-0.12215320910973085],[0.008281573498964804,-0.09730848861283643],[0.003105590062111801,-0.07349896480331262],[-0.004140786749482402,-0.053830227743271224],[-0.016563146997929608,-0.031055900621118012],[-0.019668737060041408,-0.025879917184265012],[-0.020703933747412008,-0.023809523809523808],[-0.020703933747412008,-0.023809523809523808],[-0.020703933747412008,-0.023809523809523808],[-0.020703933747412008,-0.023809523809523808],[-0.020703933747412008,-0.023809523809523808],[-0.020703933747412008,-0.023809523809523808],[-0.020703933747412008,-0.023809523809523808],[-0.020703933747412008,-0.023809523809523808],[-0.020703933747412008,-0.023809523809523808],[-0.020703933747412008,-0.023809523809523808],[-0.020703933747412008,-0.023809523809523808],[-0.020703933747412008,-0.023809523809523808]],[[-0.002070393374741201,-0.19358178053830227],[-0.002070393374741201,-0.19358178053830227],[-0.002070393374741201,-0.19358178053830227],[-0.002070393374741201,-0.19358178053830227],[-0.002070393374741201,-0.19358178053830227],[-0.002070393374741201,-0.19358178053830227],[-0.002070393374741201,-0.19358178053830227],[-0.002070393374741201,-0.19358178053830227],[-0.002070393374741201,-0.19358178053830227],[-0.011387163561076604,-0.19461697722567287],[-0.026915113871635612,-0.1956521739130435],[-0.051759834368530024,-0.1956521739130435],[-0.07763975155279502,-0.1956521739130435],[-0.09834368530020704,-0.1956521739130435],[-0.12318840579710146,-0.19461697722567287],[-0.15010351966873706,-0.19358178053830227],[-0.17701863354037267,-0.19047619047619047],[-0.19668737060041408,-0.1873706004140787],[-0.20082815734989648,-0.1873706004140787],[-0.20186335403726707,-0.1873706004140787],[-0.20186335403726707,-0.1873706004140787],[-0.20186335403726707,-0.1873706004140787],[-0.20186335403726707,-0.1873706004140787],[-0.20186335403726707,-0.1873706004140787],[-0.20186335403726707,-0.1873706004140787],[-0.20186335403726707,-0.1873706004140787],[-0.20186335403726707,-0.1873706004140787],[-0.20186335403726707,-0.1873706004140787],[-0.20186335403726707,-0.1873706004140787],[-0.20186335403726707,-0.1873706004140787],[-0.20186335403726707,-0.1873706004140787],[-0.20186335403726707,-0.1873706004140787],[-0.20186335403726707,-0.1873706004140787],[-0.20186335403726707,-0.1873706004140787]]]",3,"[17,26,34]",,,,,,,,,,,,,,lockerroom3.jpg,space,6.016,0,14,14,70,1,lockerroom4.jpg,pavilion.jpg,minigolf8.jpg,igloo.jpg
Image_List_3,,,,,,,,,,,,,,,,44293,2020-11-23_15h35.17.105,analogCatScenes,2020.1.3,Win32,60,"[1920,966]","[[[0.005175983436853002,-0.1915113871635611],[0.005175983436853002,-0.1915113871635611],[0.005175983436853002,-0.1915113871635611],[0.005175983436853002,-0.1915113871635611],[0.005175983436853002,-0.1915113871635611],[0.005175983436853002,-0.1915113871635611],[0.005175983436853002,-0.1915113871635611],[0.005175983436853002,-0.1915113871635611],[0.005175983436853002,-0.1915113871635611],[0.005175983436853002,-0.18944099378881987],[0.007246376811594203,-0.18530020703933747],[0.011387163561076604,-0.17598343685300208],[0.015527950310559006,-0.16563146997929606],[0.018633540372670808,-0.15424430641821946],[0.022774327122153208,-0.14078674948240166],[0.026915113871635612,-0.12422360248447205],[0.030020703933747412,-0.10766045548654245],[0.030020703933747412,-0.09109730848861283],[0.030020703933747412,-0.06521739130434782],[0.024844720496894408,-0.047619047619047616],[0.020703933747412008,-0.032091097308488616],[0.016563146997929608,-0.018633540372670808],[0.013457556935817806,-0.009316770186335404],[0.008281573498964804,-0.004140786749482402],[0.006211180124223602,-0.0010351966873706005],[0.005175983436853002,0],[0.005175983436853002,0],[0.005175983436853002,0],[0.005175983436853002,0],[0.005175983436853002,0],[0.005175983436853002,0],[0.005175983436853002,0],[0.005175983436853002,0],[0.005175983436853002,0],[0.005175983436853002,0],[0.005175983436853002,0],[0.005175983436853002,-0.0010351966873706005],[0.004140786749482402,-0.003105590062111801]],[[-0.007246376811594203,-0.19875776397515527],[-0.007246376811594203,-0.19875776397515527],[-0.007246376811594203,-0.19875776397515527],[-0.007246376811594203,-0.19875776397515527],[-0.007246376811594203,-0.19875776397515527],[-0.007246376811594203,-0.19875776397515527],[-0.007246376811594203,-0.19875776397515527],[-0.007246376811594203,-0.19772256728778467],[-0.009316770186335404,-0.1956521739130435],[-0.012422360248447204,-0.19254658385093168],[-0.023809523809523808,-0.1873706004140787],[-0.036231884057971016,-0.18115942028985507],[-0.047619047619047616,-0.17701863354037267],[-0.061076604554865424,-0.17287784679089027],[-0.07453416149068323,-0.16873706004140787],[-0.08799171842650104,-0.16459627329192547],[-0.10144927536231885,-0.16356107660455488],[-0.12422360248447205,-0.16149068322981366],[-0.13561076604554864,-0.16045548654244307],[-0.14182194616977226,-0.16045548654244307],[-0.14492753623188406,-0.16045548654244307],[-0.14699792960662525,-0.16045548654244307],[-0.14803312629399587,-0.16045548654244307],[-0.15010351966873706,-0.16045548654244307],[-0.15424430641821946,-0.16045548654244307],[-0.15631469979296067,-0.16149068322981366],[-0.15838509316770186,-0.16252587991718426],[-0.15942028985507245,-0.16252587991718426],[-0.15942028985507245,-0.16252587991718426],[-0.15942028985507245,-0.16252587991718426],[-0.15942028985507245,-0.16252587991718426],[-0.16045548654244307,-0.16252587991718426],[-0.16045548654244307,-0.16252587991718426],[-0.16045548654244307,-0.16356107660455488],[-0.16045548654244307,-0.16356107660455488]]]",2,"[38,35]",,,,,,,,,,,,,,waitingroom4.jpg,space,3.917,0,15,15,97,1,warehouseoutside4.jpg,wineVineyard2.jpg,winebarrel3.jpg,warehouseoutside3.jpg
