image_list,key_resp_intructions.keys,key_resp_intructions.rt,key_resp_intructions_3.keys,key_resp_intructions_3.rt,PracticeComplete_2.keys,PracticeComplete_2.rt,PracticeComplete_3.keys,PracticeComplete_3.rt,demo_trials.thisRepN,demo_trials.thisTrialN,demo_trials.thisN,demo_trials.thisIndex,demo_trials.ran,demo_images,path_images,participant,date,expName,psychopyVersion,OS,frameRate,windowSize,practice_complete.keys,practice_complete.rt,boxes_checked,PracticeComplete.keys,PracticeComplete.rt,practice_trials.thisRepN,practice_trials.thisTrialN,practice_trials.thisN,practice_trials.thisIndex,practice_trials.ran,practice_images,feedback_images,key_resp_intructions_2.keys,key_resp_intructions_2.rt,Image_List_4,trial_complete.keys,trial_complete.rt,trial_mouse.x,trial_mouse.y,trial_mouse.leftButton,trial_mouse.midButton,trial_mouse.rightButton,trial_mouse.time,trial_mouse.clicked_name,trials.thisRepN,trials.thisTrialN,trials.thisN,trials.thisIndex,trials.ran,Image_List_1,Image_List_2,Image_List_3,Image_List_5,key_resp.keys,key_resp.rt
Image_List_4,space,4.8512,space,2.12353,space,7.564185,space,1.986575,0,0,0,4,1,left.jpg,left_path.jpg,44321,2020-11-23_12h49.01.911,lingCatScenes,2020.1.3,MacIntel,60,,,,,,,,,,,,,,,,,,,,,,,,,,,,,,,,,,,,
Image_List_4,,,,,space,4.05698,space,1.253665,0,1,1,6,1,right_left.jpg,right_left_path.jpg,44321,2020-11-23_12h49.01.911,lingCatScenes,2020.1.3,MacIntel,60,,,,,,,,,,,,,,,,,,,,,,,,,,,,,,,,,,,,
Image_List_4,,,,,space,1.537825,space,1.222945,0,2,2,5,1,right.jpg,right_path.jpg,44321,2020-11-23_12h49.01.911,lingCatScenes,2020.1.3,MacIntel,60,,,,,,,,,,,,,,,,,,,,,,,,,,,,,,,,,,,,
Image_List_4,,,,,space,0.882765,space,0.62093,0,3,3,0,1,ahead.jpg,ahead_path.jpg,44321,2020-11-23_12h49.01.911,lingCatScenes,2020.1.3,MacIntel,60,,,,,,,,,,,,,,,,,,,,,,,,,,,,,,,,,,,,
Image_List_4,,,,,space,1.401135,space,1.705795,0,4,4,3,1,ahead_right_left.jpg,ahead_right_left_path.jpg,44321,2020-11-23_12h49.01.911,lingCatScenes,2020.1.3,MacIntel,60,,,,,,,,,,,,,,,,,,,,,,,,,,,,,,,,,,,,
Image_List_4,,,,,space,1.094305,space,0.941365,0,5,5,1,1,ahead_left.jpg,ahead_left_path.jpg,44321,2020-11-23_12h49.01.911,lingCatScenes,2020.1.3,MacIntel,60,,,,,,,,,,,,,,,,,,,,,,,,,,,,,,,,,,,,
Image_List_4,,,,,space,1.450125,space,0.535225,0,6,6,2,1,ahead_right.jpg,ahead_right_path.jpg,44321,2020-11-23_12h49.01.911,lingCatScenes,2020.1.3,MacIntel,60,,,,,,,,,,,,,,,,,,,,,,,,,,,,,,,,,,,,
Image_List_4,,,,,,,,,,,,,,,,44321,2020-11-23_12h49.01.911,lingCatScenes,2020.1.3,MacIntel,60,"[1440,900]",space,1.461875,[],space,0.55038,0,0,0,5,1,right_2.jpg,right_2_path.jpg,,,,,,,,,,,,,,,,,,,,,,,
Image_List_4,,,,,,,,,,,,,,,,44321,2020-11-23_12h49.01.911,lingCatScenes,2020.1.3,MacIntel,60,"[1440,900]",space,1.085675,[],space,0.47363,0,1,1,4,1,left_2.jpg,left_2_path.jpg,,,,,,,,,,,,,,,,,,,,,,,
Image_List_4,,,,,,,,,,,,,,,,44321,2020-11-23_12h49.01.911,lingCatScenes,2020.1.3,MacIntel,60,"[1440,900]",space,1.49561,[],space,2.1252,0,2,2,6,1,right_left_2.jpg,right_left_2_path.jpg,,,,,,,,,,,,,,,,,,,,,,,
Image_List_4,,,,,,,,,,,,,,,,44321,2020-11-23_12h49.01.911,lingCatScenes,2020.1.3,MacIntel,60,"[1440,900]",space,7.13229,"[""ahead_box""]",space,2.08393,0,3,3,0,1,ahead_2.jpg,ahead_2_path.jpg,,,,,,,,,,,,,,,,,,,,,,,
Image_List_4,,,,,,,,,,,,,,,,44321,2020-11-23_12h49.01.911,lingCatScenes,2020.1.3,MacIntel,60,"[1440,900]",space,8.783445,"[""ahead_box"",""slight_right_box"",""slight_left_box""]",space,2.4755,0,4,4,3,1,ahead_right_left_2.jpg,ahead_right_left_2_path.jpg,,,,,,,,,,,,,,,,,,,,,,,
Image_List_4,,,,,,,,,,,,,,,,44321,2020-11-23_12h49.01.911,lingCatScenes,2020.1.3,MacIntel,60,"[1440,900]",space,5.035345,"[""ahead_box"",""sharp_right_box""]",space,0.69311,0,5,5,2,1,ahead_right_2.jpg,ahead_right_2_path.jpg,,,,,,,,,,,,,,,,,,,,,,,
Image_List_4,,,,,,,,,,,,,,,,44321,2020-11-23_12h49.01.911,lingCatScenes,2020.1.3,MacIntel,60,"[1440,900]",space,3.63456,"[""ahead_box""]",space,1.1282,0,6,6,1,1,ahead_left_2.jpg,ahead_left_2_path.jpg,,,,,,,,,,,,,,,,,,,,,,,
Image_List_4,,,,,,,,,,,,,,,,44321,2020-11-23_12h49.01.911,lingCatScenes,2020.1.3,MacIntel,60,"[1440,900]",,,"[""trial_left_box""]",,,,,,,,,,space,3.795935,foodcourt6.jpg,space,3.748445,[-0.3949652777777778],[-0.28802951388888887],[1],[0],[0],[3.2150949999922886],"[""trial_left_box""]",0,0,0,44,1,firestation2.jpg,frontFoyer4.jpg,elevatorOutside1.jpg,dock2.jpg,,
Image_List_4,,,,,,,,,,,,,,,,44321,2020-11-23_12h49.01.911,lingCatScenes,2020.1.3,MacIntel,60,"[1440,900]",,,"[""trial_ahead_box""]",,,,,,,,,,,,kindergarten_classroom7.jpg,space,1.872215,[0.018138020833333334],[-0.3115581597222222],[1],[0],[0],[1.6920249999966472],"[""trial_ahead_box""]",0,1,1,61,1,HorseRaceTrack.jpg,metroInside4.jpg,homegarden6.jpg,hayfield6.jpg,,
Image_List_4,,,,,,,,,,,,,,,,44321,2020-11-23_12h49.01.911,lingCatScenes,2020.1.3,MacIntel,60,"[1440,900]",,,[],,,,,,,,,,,,golfcourse7.jpg,space,0.189985,[],[],[],[],[],[],[],0,2,2,48,1,frontDoor2.jpg,golfcourse6.jpg,fittingroom5.jpg,fabricstore2.jpg,,
Image_List_4,,,,,,,,,,,,,,,,44321,2020-11-23_12h49.01.911,lingCatScenes,2020.1.3,MacIntel,60,"[1440,900]",,,"[""trial_sharp_right_box"",""trial_sharp_left_box""]",,,,,,,,,,,,wrestlingring7.jpg,space,5.14036,"[0.6116883680555556,-0.5889930555555556]","[-0.31671875,-0.2969574652777778]","[1,1]","[0,0]","[0,0]","[3.7290849999990314,4.79465500000515]","[""trial_sharp_right_box"",""trial_sharp_left_box""]",0,3,3,99,1,wineVineyard9.jpg,yogastudio4.jpg,windmill2.jpg,yogastudio1.jpg,,
Image_List_4,,,,,,,,,,,,,,,,44321,2020-11-23_12h49.01.911,lingCatScenes,2020.1.3,MacIntel,60,"[1440,900]",,,"[""trial_sharp_right_box"",""trial_ahead_box""]",,,,,,,,,,,,dentist4.jpg,space,4.607315,"[0.6069921875,0.017703993055555554]","[-0.30938368055555554,-0.30279947916666666]","[1,1]","[0,0]","[0,0]","[3.3438700000115205,4.294034999998985]","[""trial_sharp_right_box"",""trial_ahead_box""]",0,4,4,32,1,dancestudio6.jpg,diner12.jpg,constructionSite2.jpg,cabin4.jpg,,
Image_List_4,,,,,,,,,,,,,,,,44321,2020-11-23_12h49.01.911,lingCatScenes,2020.1.3,MacIntel,60,"[1440,900]",,,"[""trial_sharp_left_box""]",,,,,,,,,,,,warehouseoutside2.jpg,space,3.87517,"[-0.5601475694444444,-0.59375]","[-0.3070833333333333,-0.3063020833333333]","[1,1]","[0,0]","[0,0]","[2.344004999991739,2.6933999999891967]","[""trial_sharp_left_box""]",0,5,5,93,1,tollbooth8.jpg,volleyballcourt4.jpg,staircase4.jpg,tenniscourt.jpg,,
Image_List_4,,,,,,,,,,,,,,,,44321,2020-11-23_12h49.01.911,lingCatScenes,2020.1.3,MacIntel,60,"[1440,900]",,,"[""trial_ahead_box""]",,,,,,,,,,,,museum3.jpg,space,3.244165,[0.011888020833333334],[-0.309765625],[1],[0],[0],[1.6776599999866448],"[""trial_ahead_box""]",0,6,6,71,1,metroInside2.jpg,pavilion5.jpg,metroInside3.jpg,jewelrystore.jpg,,
Image_List_4,,,,,,,,,,,,,,,,44321,2020-11-23_12h49.01.911,lingCatScenes,2020.1.3,MacIntel,60,"[1440,900]",,,"[""trial_ahead_box""]",,,,,,,,,,,,metroInside1.jpg,space,1.511825,[0.010308159722222222],[-0.29598524305555557],[1],[0],[0],[1.3123999999952503],"[""trial_ahead_box""]",0,7,7,69,1,liquorstore8.jpg,parkinglot2.jpg,livingroom.jpg,icecream2.jpg,,
Image_List_4,,,,,,,,,,,,,,,,44321,2020-11-23_12h49.01.911,lingCatScenes,2020.1.3,MacIntel,60,"[1440,900]",,,"[""trial_ahead_box"",""trial_sharp_left_box""]",,,,,,,,,,,,homegarage4.jpg,space,3.49081,"[0.010308159722222222,-0.6131857638888889]","[-0.29598524305555557,-0.30265625]","[1,1]","[0,0]","[0,0]","[1.1771949999965727,3.0926200000103563]","[""trial_ahead_box"",""trial_sharp_left_box""]",0,8,8,54,1,greenhouse2.jpg,horsebarn11.jpg,gazebo2.jpg,frontFoyer.jpg,,
Image_List_4,,,,,,,,,,,,,,,,44321,2020-11-23_12h49.01.911,lingCatScenes,2020.1.3,MacIntel,60,"[1440,900]",,,"[""trial_ahead_box""]",,,,,,,,,,,,pavilion3.jpg,space,1.24368,[-0.00011284722222222222],[-0.3054253472222222],[1],[0],[0],[1.010100000014063],"[""trial_ahead_box""]",0,9,9,78,1,parkinglot3.jpg,poolhall1.jpg,pier5.jpg,observatory1.jpg,,
Image_List_4,,,,,,,,,,,,,,,,44321,2020-11-23_12h49.01.911,lingCatScenes,2020.1.3,MacIntel,60,"[1440,900]",,,"[""trial_slight_right_box""]",,,,,,,,,,,,checkoutcounter2.jpg,space,1.893355,[0.20994791666666668],[-0.31106336805555557],[1],[0],[0],[1.6952900000032969],"[""trial_slight_right_box""]",0,10,10,25,1,campsite7.jpg,conference3.jpg,church3.jpg,botanicalGarden4.jpg,,
Image_List_4,,,,,,,,,,,,,,,,44321,2020-11-23_12h49.01.911,lingCatScenes,2020.1.3,MacIntel,60,"[1440,900]",,,"[""trial_slight_right_box""]",,,,,,,,,,,,igloo4.jpg,space,1.7772,[0.19966145833333335],[-0.31383246527777775],[1],[0],[0],[1.6112399999983609],"[""trial_slight_right_box""]",0,11,11,58,1,highway7.jpg,lab1.jpg,hedgemaze1.jpg,grocerystore2.jpg,,
Image_List_4,,,,,,,,,,,,,,,,44321,2020-11-23_12h49.01.911,lingCatScenes,2020.1.3,MacIntel,60,"[1440,900]",,,"[""trial_ahead_box""]",,,,,,,,,,,,driveway7.jpg,space,1.124835,[-0.006141493055555555],[-0.31268229166666667],[1],[0],[0],[0.9423700000043027],"[""trial_ahead_box""]",0,12,12,37,1,dining_car.jpg,driveway4.jpg,dinosaur4.jpg,citystreet9.jpg,,
Image_List_4,,,,,,,,,,,,,,,,44321,2020-11-23_12h49.01.911,lingCatScenes,2020.1.3,MacIntel,60,"[1440,900]",,,"[""trial_slight_right_box""]",,,,,,,,,,,,lab5.jpg,space,1.345645,[0.21916232638888888],[-0.3009765625],[1],[0],[0],[1.1624050000100397],"[""trial_slight_right_box""]",0,13,13,64,1,igloo2.jpg,newsstand5.jpg,jewelrystore8.jpg,homegarage2.jpg,,
Image_List_4,,,,,,,,,,,,,,,,44321,2020-11-23_12h49.01.911,lingCatScenes,2020.1.3,MacIntel,60,"[1440,900]",,,"[""trial_ahead_box""]",,,,,,,,,,,,forestpath4.jpg,space,1.14171,[0.009140625],[-0.29434027777777777],[1],[0],[0],[0.9777149999863468],"[""trial_ahead_box""]",0,14,14,45,1,fittingroom2.jpg,frontFoyer7.jpg,factory1.jpg,dock4.jpg,,
Image_List_4,,,,,,,,,,,,,,,,44321,2020-11-23_12h49.01.911,lingCatScenes,2020.1.3,MacIntel,60,"[1440,900]",,,"[""trial_ahead_box""]",,,,,,,,,,,,farm4.jpg,space,1.174385,[0.009140625],[-0.29434027777777777],[1],[0],[0],[0.9451399999961723],"[""trial_ahead_box""]",0,15,15,42,1,exerciseequipment3.jpg,firestation3.jpg,drymountains6.jpg,desertvegetation2.jpg,,
Image_List_4,,,,,,,,,,,,,,,,44321,2020-11-23_12h49.01.911,lingCatScenes,2020.1.3,MacIntel,60,"[1440,900]",,,"[""trial_ahead_box"",""trial_slight_left_box""]",,,,,,,,,,,,hotelRoom7.jpg,space,3.580015,"[0.009140625,-0.1763715277777778]","[-0.29434027777777777,-0.2984982638888889]","[1,1]","[0,0]","[0,0]","[1.5936750000109896,2.25939500000095]","[""trial_ahead_box"",""trial_slight_left_box""]",0,16,16,55,1,greenmountains.jpg,hotelRoom3.jpg,gazebo5.jpg,frontLawn2.jpg,,
Image_List_4,,,,,,,,,,,,,,,,44321,2020-11-23_12h49.01.911,lingCatScenes,2020.1.3,MacIntel,60,"[1440,900]",,,"[""trial_right_box""]",,,,,,,,,,,,restaurant8.jpg,space,1.993955,[0.4041840277777778],[-0.29890625],[1],[0],[0],[1.8300549999985378],"[""trial_right_box""]",0,17,17,83,1,readingroom1.jpg,sculpturegarden1.jpg,promenadeDeck6.jpg,readingroom2.jpg,,
Image_List_4,,,,,,,,,,,,,,,,44321,2020-11-23_12h49.01.911,lingCatScenes,2020.1.3,MacIntel,60,"[1440,900]",,,"[""trial_ahead_box""]",,,,,,,,,,,,highway.jpg,space,0.98187,[0.00328125],[-0.3009027777777778],[1],[0],[0],[0.8625800000154413],"[""trial_ahead_box""]",0,18,18,52,1,gasstation7.jpg,hardwarestore1.jpg,frontFoyer6.jpg,forestpath2.jpg,,
Image_List_4,,,,,,,,,,,,,,,,44321,2020-11-23_12h49.01.911,lingCatScenes,2020.1.3,MacIntel,60,"[1440,900]",,,"[""trial_ahead_box""]",,,,,,,,,,,,sandDunes_desert_outdoor8.jpg,space,0.974425,[0.00328125],[-0.3009027777777778],[1],[0],[0],[0.8118850000028033],"[""trial_ahead_box""]",0,19,19,86,1,restaurant14.jpg,stripmall.jpg,ruralroad3.jpg,rooftop4.jpg,,
Image_List_4,,,,,,,,,,,,,,,,44321,2020-11-23_12h49.01.911,lingCatScenes,2020.1.3,MacIntel,60,"[1440,900]",,,"[""trial_ahead_box"",""trial_left_box"",""trial_right_box""]",,,,,,,,,,,,minigolf8.jpg,space,4.97832,"[0.00328125,0.43213541666666666,-0.3652690972222222,-0.4158116319444444,0.409453125]","[-0.3009027777777778,-0.3054296875,-0.29327256944444446,-0.29983506944444444,-0.3036067708333333]","[1,1,1,1,1]","[0,0,0,0,0]","[0,0,0,0,0]","[1.4772250000096392,2.2109549999877345,3.459694999997737,3.8766649999888614,4.809979999990901]","[""trial_ahead_box"",""trial_left_box"",""trial_right_box""]",0,20,20,70,1,lockerroom4.jpg,pavilion.jpg,lockerroom3.jpg,igloo.jpg,,
Image_List_4,,,,,,,,,,,,,,,,44321,2020-11-23_12h49.01.911,lingCatScenes,2020.1.3,MacIntel,60,"[1440,900]",,,"[""trial_right_box""]",,,,,,,,,,,,hayfield4.jpg,space,1.82982,[0.38836805555555554],[-0.3074131944444444],[1],[0],[0],[1.6619449999998324],"[""trial_right_box""]",0,21,21,51,1,gasstation6.jpg,hallway5.jpg,frontDoor5.jpg,firestation5.jpg,,
Image_List_4,,,,,,,,,,,,,,,,44321,2020-11-23_12h49.01.911,lingCatScenes,2020.1.3,MacIntel,60,"[1440,900]",,,"[""trial_sharp_right_box"",""trial_sharp_left_box""]",,,,,,,,,,,,fountain7.jpg,space,5.0085,"[0.4008072916666667,0.5986805555555555,-0.5943532986111111,0.421640625]","[-0.29770833333333335,-0.30081163194444444,-0.28985677083333333,-0.3039409722222222]","[1,1,1,1]","[0,0,0,0]","[0,0,0,0]","[1.69372999999905,2.5280750000092667,3.4935650000115857,4.793119999987539]","[""trial_right_box"",""trial_sharp_right_box"",""trial_sharp_left_box"",""trial_right_box""]",0,22,22,47,1,frontDoor.jpg,gasstation8.jpg,firestation4.jpg,elevatorOutside2.jpg,,
Image_List_4,,,,,,,,,,,,,,,,44321,2020-11-23_12h49.01.911,lingCatScenes,2020.1.3,MacIntel,60,"[1440,900]",,,"[""trial_ahead_box""]",,,,,,,,,,,,windmill1.jpg,space,1.47446,[-0.01771267361111111],[-0.3009809027777778],[1],[0],[0],[1.2942549999861512],"[""trial_ahead_box""]",0,23,23,96,1,warehouse4.jpg,warehouseoutside1.jpg,tenniscourt3.jpg,warehouse1.jpg,,
Image_List_4,,,,,,,,,,,,,,,,44321,2020-11-23_12h49.01.911,lingCatScenes,2020.1.3,MacIntel,60,"[1440,900]",,,"[""trial_ahead_box""]",,,,,,,,,,,,sandDunes_desert_outdoor3.jpg,space,0.9638,[-0.010008680555555555],[-0.29985243055555555],[1],[0],[0],[0.7936000000045169],"[""trial_ahead_box""]",0,24,24,85,1,recordingstudio4.jpg,sidewalk5.jpg,ruralroad2.jpg,rooftop3.jpg,,
Image_List_4,,,,,,,,,,,,,,,,44321,2020-11-23_12h49.01.911,lingCatScenes,2020.1.3,MacIntel,60,"[1440,900]",,,"[""trial_slight_left_box""]",,,,,,,,,,,,hut5.jpg,space,2.47646,[-0.18095052083333332],[-0.3152951388888889],[1],[0],[0],[2.195099999982631],"[""trial_slight_left_box""]",0,25,25,57,1,hayfield5.jpg,jail1.jpg,hallway4.jpg,gazebo.jpg,,
Image_List_4,,,,,,,,,,,,,,,,44321,2020-11-23_12h49.01.911,lingCatScenes,2020.1.3,MacIntel,60,"[1440,900]",,,"[""trial_slight_left_box""]",,,,,,,,,,,,bleachers7.jpg,space,3.25633,[-0.1784982638888889],[-0.3106467013888889],[1],[0],[0],[2.9434999999939464],"[""trial_slight_left_box""]",0,26,26,12,1,baggageClaim4.jpg,bedroom6.jpg,bambooforest5.jpg,backyard5.jpg,,
Image_List_4,,,,,,,,,,,,,,,,44321,2020-11-23_12h49.01.911,lingCatScenes,2020.1.3,MacIntel,60,"[1440,900]",,,"[""trial_left_box""]",,,,,,,,,,,,stripmall3.jpg,space,2.80659,[-0.3826345486111111],[-0.30226128472222225],[1],[0],[0],[2.509590000001481],"[""trial_left_box""]",0,27,27,90,1,savanna5.jpg,trainStation1.jpg,sidewalk1.jpg,shoestore4.jpg,,
Image_List_4,,,,,,,,,,,,,,,,44321,2020-11-23_12h49.01.911,lingCatScenes,2020.1.3,MacIntel,60,"[1440,900]",,,"[""trial_left_box""]",,,,,,,,,,,,bar.jpg,space,1.330045,[-0.4174045138888889],[-0.3057595486111111],[1],[0],[0],[1.161935000010999],"[""trial_left_box""]",0,28,28,8,1,attic3.jpg,banquetHall6.jpg,balconyIN.jpg,applestore4.jpg,,
Image_List_4,,,,,,,,,,,,,,,,44321,2020-11-23_12h49.01.911,lingCatScenes,2020.1.3,MacIntel,60,"[1440,900]",,,"[""trial_left_box""]",,,,,,,,,,,,cave5.jpg,space,1.444185,[-0.4091927083333333],[-0.305],[1],[0],[0],[1.3124599999864586],"[""trial_left_box""]",0,29,29,21,1,botanicalGarden6.jpg,cemetery6.jpg,campusquad3.jpg,beach1.jpeg,,
Image_List_4,,,,,,,,,,,,,,,,44321,2020-11-23_12h49.01.911,lingCatScenes,2020.1.3,MacIntel,60,"[1440,900]",,,"[""trial_ahead_box""]",,,,,,,,,,,,cave4.jpg,space,1.957055,[0.0008637152777777778],[-0.3209592013888889],[1],[0],[0],[1.8255150000040885],"[""trial_ahead_box""]",0,30,30,20,1,boardwalk6.jpg,cave.jpg,campsite3.jpg,basketballcourt7.jpg,,
Image_List_4,,,,,,,,,,,,,,,,44321,2020-11-23_12h49.01.911,lingCatScenes,2020.1.3,MacIntel,60,"[1440,900]",,,"[""trial_slight_left_box""]",,,,,,,,,,,,poolhall5.jpg,space,2.192795,[-0.1895138888888889],[-0.29335069444444445],[1],[0],[0],[2.028435000014724],"[""trial_slight_left_box""]",0,31,31,80,1,pavilion2.jpg,racecarcourse2.jpg,porch.jpg,parkinggarage4.jpg,,
Image_List_4,,,,,,,,,,,,,,,,44321,2020-11-23_12h49.01.911,lingCatScenes,2020.1.3,MacIntel,60,"[1440,900]",,,"[""trial_slight_right_box""]",,,,,,,,,,,,pier2.jpg,space,1.26636,[0.18782552083333334],[-0.2991623263888889],[1],[0],[0],[1.1466099999961443],"[""trial_slight_right_box""]",0,32,32,79,1,pasture.jpg,poolhall2.jpeg,playground9.jpg,observatory2.jpg,,
Image_List_4,,,,,,,,,,,,,,,,44321,2020-11-23_12h49.01.911,lingCatScenes,2020.1.3,MacIntel,60,"[1440,900]",,,"[""trial_ahead_box""]",,,,,,,,,,,,castle4.jpg,space,1.4809,"[-0.03780815972222222,-0.014943576388888888]","[-0.2992925347222222,-0.2975434027777778]","[1,1]","[0,0]","[0,0]","[1.096174999984214,1.4462499999790452]","[""trial_ahead_box""]",0,33,33,19,1,boardwalk2.jpg,casino3.jpg,cafeteria1.jpg,basketballcourt.jpg,,
Image_List_4,,,,,,,,,,,,,,,,44321,2020-11-23_12h49.01.911,lingCatScenes,2020.1.3,MacIntel,60,"[1440,900]",,,"[""trial_sharp_right_box""]",,,,,,,,,,,,kindergarten_classroom5.jpg,space,3.9062,"[0.5904991319444445,0.014622395833333333]","[-0.30755208333333334,-0.3001258680555556]","[1,1]","[0,0]","[0,0]","[2.81028000000515,3.593605000001844]","[""trial_sharp_right_box"",""trial_ahead_box""]",0,34,34,59,1,homegarden7.jpg,library_aisle8.jpg,highway4.jpg,grocerystore3.jpg,,
Image_List_4,,,,,,,,,,,,,,,,44321,2020-11-23_12h49.01.911,lingCatScenes,2020.1.3,MacIntel,60,"[1440,900]",,,"[""trial_ahead_box""]",,,,,,,,,,,,park8.jpg,space,1.31727,[0.014622395833333333],[-0.3001258680555556],[1],[0],[0],[1.1609950000129174],"[""trial_ahead_box""]",0,35,35,77,1,parkinggarage2.jpg,playroom6.jpg,pasture9.jpg,mallindoor6.jpg,,
Image_List_4,,,,,,,,,,,,,,,,44321,2020-11-23_12h49.01.911,lingCatScenes,2020.1.3,MacIntel,60,"[1440,900]",,,"[""trial_ahead_box""]",,,,,,,,,,,,courtroom2.jpg,space,0.927995,[0.020065104166666667],[-0.3001258680555556],[1],[0],[0],[0.793950000021141],"[""trial_ahead_box""]",0,36,36,31,1,cubicle4.jpg,desertvegetation6.jpg,conference4.jpg,cabin3.jpg,,
Image_List_4,,,,,,,,,,,,,,,,44321,2020-11-23_12h49.01.911,lingCatScenes,2020.1.3,MacIntel,60,"[1440,900]",,,"[""trial_right_box""]",,,,,,,,,,,,diner11.jpg,space,1.310055,[0.4120920138888889],[-0.31020399305555557],[1],[0],[0],[1.1299399999843445],"[""trial_right_box""]",0,37,37,34,1,deck4.jpg,diningroom5.jpg,courthouse4.jpg,campusquad1.jpg,,
Image_List_4,,,,,,,,,,,,,,,,44321,2020-11-23_12h49.01.911,lingCatScenes,2020.1.3,MacIntel,60,"[1440,900]",,,"[""trial_sharp_left_box""]",,,,,,,,,,,,staircase7.jpg,space,4.427335,"[-0.384296875,-0.5585069444444445,-0.6079644097222222,-0.3986631944444444]","[-0.3160980902777778,-0.304453125,-0.3066059027777778,-0.30504774305555554]","[1,1,1,1]","[0,0,0,0]","[0,0,0,0]","[2.5928899999998976,3.1766000000061467,3.6437450000084937,4.260390000010375]","[""trial_left_box"",""trial_sharp_left_box"",""trial_left_box""]",0,38,38,89,1,ruralroad7.jpg,track5.jpg,ShowJumping7.jpg,sculpturegarden3.jpg,,
Image_List_4,,,,,,,,,,,,,,,,44321,2020-11-23_12h49.01.911,lingCatScenes,2020.1.3,MacIntel,60,"[1440,900]",,,"[""trial_right_box""]",,,,,,,,,,,,lab3.jpg,space,1.37606,[0.40368489583333333],[-0.3130078125],[1],[0],[0],[1.1623250000120606],"[""trial_right_box""]",0,39,39,62,1,hotellobby2.jpg,minigolf.jpg,horsebarn8.jpg,hayfield7.jpg,,
Image_List_4,,,,,,,,,,,,,,,,44321,2020-11-23_12h49.01.911,lingCatScenes,2020.1.3,MacIntel,60,"[1440,900]",,,"[""trial_ahead_box""]",,,,,,,,,,,,weightroom.jpg,space,1.326335,[-0.01987847222222222],[-0.29856336805555556],[1],[0],[0],[1.0946149999799673],"[""trial_ahead_box""]",0,40,40,94,1,treehouse.jpg,waitingroom3.jpg,staircase6.jpg,trainStation3.jpg,,
Image_List_4,,,,,,,,,,,,,,,,44321,2020-11-23_12h49.01.911,lingCatScenes,2020.1.3,MacIntel,60,"[1440,900]",,,"[""trial_ahead_box""]",,,,,,,,,,,,baywindow5.jpg,space,1.02633,[-0.01987847222222222],[-0.29856336805555556],[1],[0],[0],[0.8778250000032131],"[""trial_ahead_box""]",0,41,41,11,1,backyard2.jpg,basketballcourt4.jpg,bambooforest3.jpg,backyard1.jpg,,
Image_List_4,,,,,,,,,,,,,,,,44321,2020-11-23_12h49.01.911,lingCatScenes,2020.1.3,MacIntel,60,"[1440,900]",,,"[""trial_ahead_box""]",,,,,,,,,,,,cemetery3.jpg,space,0.724675,[-0.01987847222222222],[-0.29856336805555556],[1],[0],[0],[0.6092449999996461],"[""trial_ahead_box""]",0,42,42,23,1,bus_shelter.jpg,church8.jpg,carmechanic4.jpeg,bleachers6.jpg,,
Image_List_4,,,,,,,,,,,,,,,,44321,2020-11-23_12h49.01.911,lingCatScenes,2020.1.3,MacIntel,60,"[1440,900]",,,"[""trial_ahead_box""]",,,,,,,,,,,,sandDunes_desert_outdoor.jpg,space,0.7432,[-0.01987847222222222],[-0.29856336805555556],[1],[0],[0],[0.5780549999908544],"[""trial_ahead_box""]",0,43,43,84,1,readingroom5.jpg,sidewalk2.jpg,restaurant13.jpg,rooftop2.jpg,,
Image_List_4,,,,,,,,,,,,,,,,44321,2020-11-23_12h49.01.911,lingCatScenes,2020.1.3,MacIntel,60,"[1440,900]",,,"[""trial_ahead_box""]",,,,,,,,,,,,campusquad4.jpg,space,0.80982,[-0.01987847222222222],[-0.29856336805555556],[1],[0],[0],[0.6571100000001024],"[""trial_ahead_box""]",0,44,44,16,1,basement.jpg,cafeteria6.jpg,breakroom2.jpg,barbershop2.jpg,,
Image_List_4,,,,,,,,,,,,,,,,44321,2020-11-23_12h49.01.911,lingCatScenes,2020.1.3,MacIntel,60,"[1440,900]",,,"[""trial_right_box""]",,,,,,,,,,,,baggageClaim3.jpg,space,2.233825,[0.40477430555555555],[-0.30746527777777777],[1],[0],[0],[1.2629149999993388],"[""trial_right_box""]",0,45,45,7,1,attic2.jpg,banquetHall4.jpg,backstage1.jpg,applestore2.jpg,,
Image_List_4,,,,,,,,,,,,,,,,44321,2020-11-23_12h49.01.911,lingCatScenes,2020.1.3,MacIntel,60,"[1440,900]",,,"[""trial_right_box"",""trial_slight_left_box""]",,,,,,,,,,,,cemetery.jpg,space,2.917195,"[0.37754340277777776,-0.1864279513888889]","[-0.30233940972222223,-0.2865407986111111]","[1,1]","[0,0]","[0,0]","[2.0462850000185426,2.7470700000121724]","[""trial_right_box"",""trial_slight_left_box""]",0,46,46,22,1,bowlingalley5.jpg,church6.jpg,cargo5.jpg,bistrooutdoor6.jpg,,
Image_List_4,,,,,,,,,,,,,,,,44321,2020-11-23_12h49.01.911,lingCatScenes,2020.1.3,MacIntel,60,"[1440,900]",,,"[""trial_right_box""]",,,,,,,,,,,,copyroom2.jpg,space,2.394145,"[0.35821180555555554,0.43015625,0.4115234375]","[-0.30224392361111113,-0.3020138888888889,-0.30246527777777776]","[1,1,1]","[0,0,0]","[0,0,0]","[1.5117899999895599,1.8453849999932572,2.228324999974575]","[""trial_right_box""]",0,47,47,30,1,courthouse1.jpg,desertvegetation3.jpg,clothingstore2.jpg,bus_shelter3.jpg,,
Image_List_4,,,,,,,,,,,,,,,,44321,2020-11-23_12h49.01.911,lingCatScenes,2020.1.3,MacIntel,60,"[1440,900]",,,"[""trial_ahead_box""]",,,,,,,,,,,,park.jpg,space,1.17625,[0.006393229166666667],[-0.28260850694444445],[1],[0],[0],[1.0126250000030268],"[""trial_ahead_box""]",0,48,48,75,1,pantry5.jpg,playground6.jpg,operatingroom4.jpg,lockerroom.jpg,,
Image_List_4,,,,,,,,,,,,,,,,44321,2020-11-23_12h49.01.911,lingCatScenes,2020.1.3,MacIntel,60,"[1440,900]",,,"[""trial_sharp_right_box"",""trial_ahead_box""]",,,,,,,,,,,,dugout1.jpg,space,2.59773,"[0.5850043402777778,0.02064670138888889]","[-0.28760416666666666,-0.2997222222222222]","[1,1]","[0,0]","[0,0]","[1.5607449999952223,2.4433549999957904]","[""trial_sharp_right_box"",""trial_ahead_box""]",0,49,49,40,1,drycleaners4.jpg,farm1.jpg,drymountains.jpg,clothingstore3.jpg,,
Image_List_4,,,,,,,,,,,,,,,,44321,2020-11-23_12h49.01.911,lingCatScenes,2020.1.3,MacIntel,60,"[1440,900]",,,"[""trial_right_box""]",,,,,,,,,,,,tvstudio2.jpg,space,1.493205,[0.4075651041666667],[-0.30182291666666666],[1],[0],[0],[1.3443200000037905],"[""trial_right_box""]",0,50,50,92,1,staircase.jpg,volleyballcourt.jpg,skatepark7.jpg,soccerfield2.jpg,,
Image_List_4,,,,,,,,,,,,,,,,44321,2020-11-23_12h49.01.911,lingCatScenes,2020.1.3,MacIntel,60,"[1440,900]",,,"[""trial_slight_right_box""]",,,,,,,,,,,,attic4.jpg,space,1.264045,[0.20312934027777776],[-0.3015277777777778],[1],[0],[0],[1.1119699999981094],"[""trial_slight_right_box""]",0,51,51,5,1,artStudio3.jpg,bambooforest.jpg,auto_showroom4.jpg,amusement3.jpg,,
Image_List_4,,,,,,,,,,,,,,,,44321,2020-11-23_12h49.01.911,lingCatScenes,2020.1.3,MacIntel,60,"[1440,900]",,,"[""trial_left_box"",""trial_right_box""]",,,,,,,,,,,,constructionSite4.jpg,space,2.929185,"[-0.4002690972222222,0.38140625]","[-0.2936371527777778,-0.3009982638888889]","[1,1]","[0,0]","[0,0]","[1.8126700000138953,2.5798200000135694]","[""trial_left_box"",""trial_right_box""]",0,52,52,29,1,cornfield2.jpg,deck2.jpg,cliff2.jpg,bridalboutique3.jpg,,
Image_List_4,,,,,,,,,,,,,,,,44321,2020-11-23_12h49.01.911,lingCatScenes,2020.1.3,MacIntel,60,"[1440,900]",,,"[""trial_sharp_right_box"",""trial_left_box""]",,,,,,,,,,,,airplanecabin5.jpg,space,3.006885,"[0.6180859375,-0.388125]","[-0.3029904513888889,-0.28738715277777777]","[1,1]","[0,0]","[0,0]","[1.9280199999921024,2.8286649999790825]","[""trial_sharp_right_box"",""trial_left_box""]",0,53,53,0,1,airplanecabin1.jpg,alley2.jpg,appleorchard4.jpg,airplanecabin3.jpg,,
Image_List_4,,,,,,,,,,,,,,,,44321,2020-11-23_12h49.01.911,lingCatScenes,2020.1.3,MacIntel,60,"[1440,900]",,,"[""trial_slight_right_box""]",,,,,,,,,,,,diner10.jpg,space,1.408005,[0.22190104166666666],[-0.2963671875],[1],[0],[0],[1.2465599999995902],"[""trial_slight_right_box""]",0,54,54,33,1,deck1.jpg,diningroom1.jpg,courthouse2.jpg,cabinIndoors5.jpg,,
Image_List_4,,,,,,,,,,,,,,,,44321,2020-11-23_12h49.01.911,lingCatScenes,2020.1.3,MacIntel,60,"[1440,900]",,,"[""trial_ahead_box""]",,,,,,,,,,,,rainforest5.jpg,space,1.27696,[-0.009552951388888889],[-0.29842447916666665],[1],[0],[0],[1.0939499999803957],"[""trial_ahead_box""]",0,55,55,81,1,promenadeDeck.jpg,ruralroad5.jpg,promenadeDeck2.jpg,pasture8.jpg,,
Image_List_4,,,,,,,,,,,,,,,,44321,2020-11-23_12h49.01.911,lingCatScenes,2020.1.3,MacIntel,60,"[1440,900]",,,"[""trial_right_box"",""trial_left_box""]",,,,,,,,,,,,museum4.jpg,space,4.127605,"[0.4279383680555556,0.3711762152777778,0.3976866319444444,-0.34047743055555557,-0.3917795138888889]","[-0.3140407986111111,-0.3086284722222222,-0.3044965277777778,-0.2903472222222222,-0.29147569444444443]","[1,1,1,1,1]","[0,0,0,0,0]","[0,0,0,0,0]","[1.5785449999966659,2.378919999988284,2.9117700000060722,3.69539999999688,3.9958299999998417]","[""trial_right_box"",""trial_left_box""]",0,56,56,72,1,museum5.jpg,pharmacy4.jpg,musicStore1.jpg,kindergarten_classroom.jpg,,
Image_List_4,,,,,,,,,,,,,,,,44321,2020-11-23_12h49.01.911,lingCatScenes,2020.1.3,MacIntel,60,"[1440,900]",,,"[""trial_ahead_box""]",,,,,,,,,,,,carmechanic.jpg,space,1.59296,[0.0201953125],[-0.2879904513888889],[1],[0],[0],[1.3276499999919906],"[""trial_ahead_box""]",0,57,57,17,1,bikerack1.jpg,campsite6.jpg,breakroom4.jpg,baseball6.jpg,,
Image_List_4,,,,,,,,,,,,,,,,44321,2020-11-23_12h49.01.911,lingCatScenes,2020.1.3,MacIntel,60,"[1440,900]",,,"[""trial_right_box""]",,,,,,,,,,,,appleorchard3.jpg,space,1.87581,[0.3983289930555556],[-0.29975260416666666],[1],[0],[0],[1.6602949999796692],"[""trial_right_box""]",0,58,58,4,1,artStudio1.jpg,baggageClaim2.jpg,auto_showroom1.jpg,alley4.jpg,,
Image_List_4,,,,,,,,,,,,,,,,44321,2020-11-23_12h49.01.911,lingCatScenes,2020.1.3,MacIntel,60,"[1440,900]",,,[],,,,,,,,,,,,churchInside3.jpg,space,1.55939,"[0.025112847222222224,-0.033502604166666665]","[-0.29205729166666666,-0.29907552083333333]","[1,1]","[0,0]","[0,0]","[1.1258300000044983,1.4933900000178255]",[],0,59,59,26,1,campusquad2.jpg,cornfield4.jpg,church4.jpg,botanicalGarden7.jpg,,
Image_List_4,,,,,,,,,,,,,,,,44321,2020-11-23_12h49.01.911,lingCatScenes,2020.1.3,MacIntel,60,"[1440,900]",,,"[""trial_right_box""]",,,,,,,,,,,,clothingstore5.jpg,space,3.0889,"[0.19421440972222223,0.4416796875,0.3796831597222222,0.19854600694444444]","[-0.2932248263888889,-0.2927517361111111,-0.3020920138888889,-0.30188368055555553]","[1,1,1,1]","[0,0,0,0]","[0,0,0,0]","[1.2270649999845773,1.8625849999953061,2.260649999981979,2.928054999996675]","[""trial_slight_right_box"",""trial_right_box"",""trial_slight_right_box""]",0,60,60,28,1,churchInside1.jpg,dancestudio5.jpg,citystreet10.jpg,bridalboutique2.jpg,,
Image_List_4,,,,,,,,,,,,,,,,44321,2020-11-23_12h49.01.911,lingCatScenes,2020.1.3,MacIntel,60,"[1440,900]",,,"[""trial_slight_left_box""]",,,,,,,,,,,,greenhouse.jpg,space,1.241015,[-0.20521701388888888],[-0.30028211805555555],[1],[0],[0],[1.0440149999922141],"[""trial_slight_left_box""]",0,61,61,49,1,frontDoor3.jpg,greenhouse5.jpg,flowershop3.jpg,farm2.jpg,,
Image_List_4,,,,,,,,,,,,,,,,44321,2020-11-23_12h49.01.911,lingCatScenes,2020.1.3,MacIntel,60,"[1440,900]",,,[],,,,,,,,,,,,appleorchard2.jpg,space,1.32415,[-0.02990451388888889],[-0.29769965277777777],[1],[0],[0],[1.1114900000102352],[],0,62,62,3,1,apartmentBuilding2.jpg,attic1.jpg,aquarium1.jpg,alley3.jpg,,
Image_List_4,,,,,,,,,,,,,,,,44321,2020-11-23_12h49.01.911,lingCatScenes,2020.1.3,MacIntel,60,"[1440,900]",,,"[""trial_right_box""]",,,,,,,,,,,,lab4.jpg,space,1.54302,[0.3873697916666667],[-0.29430989583333333],[1],[0],[0],[1.3292350000119768],"[""trial_right_box""]",0,63,63,63,1,hut2.jpg,museum6.jpg,hotelRoom2.jpg,highway2.jpg,,
Image_List_4,,,,,,,,,,,,,,,,44321,2020-11-23_12h49.01.911,lingCatScenes,2020.1.3,MacIntel,60,"[1440,900]",,,"[""trial_right_box""]",,,,,,,,,,,,nursery4.jpg,space,1.580845,[0.40918836805555553],[-0.2933159722222222],[1],[0],[0],[1.4608049999806099],"[""trial_right_box""]",0,64,64,73,1,musicStore3.jpg,photographer_studio2.jpg,nursery.jpg,library_aisle9.jpg,,
Image_List_4,,,,,,,,,,,,,,,,44321,2020-11-23_12h49.01.911,lingCatScenes,2020.1.3,MacIntel,60,"[1440,900]",,,"[""trial_ahead_box""]",,,,,,,,,,,,park2.jpg,space,1.33279,[-0.011888020833333334],[-0.2982682291666667],[1],[0],[0],[1.112589999975171],"[""trial_ahead_box""]",0,65,65,76,1,parkinggarage.jpg,playroom4.jpg,parkinggarage3.jpg,lookout4.jpg,,
Image_List_4,,,,,,,,,,,,,,,,44321,2020-11-23_12h49.01.911,lingCatScenes,2020.1.3,MacIntel,60,"[1440,900]",,,"[""trial_right_box""]",,,,,,,,,,,,sculpturegarden2.jpg,space,1.616825,[0.4062326388888889],[-0.3039192708333333],[1],[0],[0],[1.4789349999919068],"[""trial_right_box""]",0,66,66,87,1,restaurantkitchen2.jpg,theater2.jpg,savanna.jpg,RVinside2.jpg,,
Image_List_4,,,,,,,,,,,,,,,,44321,2020-11-23_12h49.01.911,lingCatScenes,2020.1.3,MacIntel,60,"[1440,900]",,,"[""trial_ahead_box""]",,,,,,,,,,,,readingroom4.jpg,space,1.328225,[-0.008181423611111112],[-0.29680121527777775],[1],[0],[0],[1.1303200000256766],"[""trial_ahead_box""]",0,67,67,82,1,publicrestroom2.jpg,sandDunes_desert_outdoor9.jpg,promenadeDeck3.jpg,postoffice4.jpg,,
Image_List_4,,,,,,,,,,,,,,,,44321,2020-11-23_12h49.01.911,lingCatScenes,2020.1.3,MacIntel,60,"[1440,900]",,,"[""trial_left_box""]",,,,,,,,,,,,baggageClaim1.jpg,space,1.393605,[-0.3793446180555556],[-0.3083723958333333],[1],[0],[0],[1.1434299999964423],"[""trial_left_box""]",0,68,68,6,1,ATM1.jpg,banquetHall2.jpg,auto_showroom5.jpg,apartmentBuilding3.jpg,,
Image_List_4,,,,,,,,,,,,,,,,44321,2020-11-23_12h49.01.911,lingCatScenes,2020.1.3,MacIntel,60,"[1440,900]",,,"[""trial_ahead_box""]",,,,,,,,,,,,basketballcourt3.jpg,space,1.883845,"[0.03327256944444444,0.0023524305555555555]","[-0.3029600694444444,-0.30649739583333335]","[1,1]","[0,0]","[0,0]","[1.4444450000009965,1.744604999985313]","[""trial_ahead_box""]",0,69,69,10,1,backstage2.jpg,barbershop3.jpg,ballroom4.jpg,ATM4.jpg,,
Image_List_4,,,,,,,,,,,,,,,,44321,2020-11-23_12h49.01.911,lingCatScenes,2020.1.3,MacIntel,60,"[1440,900]",,,"[""trial_ahead_box""]",,,,,,,,,,,,labClass7.jpg,space,0.765355,[0.0028038194444444443],[-0.30649739583333335],[1],[0],[0],[0.6786699999938719],"[""trial_ahead_box""]",0,70,70,65,1,igloo5.jpg,newsstand7.jpg,laundromat2.jpeg,homeoffice8.jpg,,
Image_List_4,,,,,,,,,,,,,,,,44321,2020-11-23_12h49.01.911,lingCatScenes,2020.1.3,MacIntel,60,"[1440,900]",,,"[""trial_right_box""]",,,,,,,,,,,,airportTerminal3.jpg,space,1.21205,[0.3806206597222222],[-0.3066449652777778],[1],[0],[0],[1.028214999998454],"[""trial_right_box""]",0,71,71,1,1,airportTerminal4.jpg,apartmentBuilding1.jpg,applestore1.jpg,airportTerminal2.jpg,,
Image_List_4,,,,,,,,,,,,,,,,44321,2020-11-23_12h49.01.911,lingCatScenes,2020.1.3,MacIntel,60,"[1440,900]",,,"[""trial_ahead_box""]",,,,,,,,,,,,closet.jpg,space,2.31329,[-0.010099826388888889],[-0.29907118055555554],[1],[0],[0],[2.17872999998508],"[""trial_ahead_box""]",0,72,72,27,1,castle3.jpg,courtroom3.jpg,churchInside4.jpg,brewery2.jpg,,
Image_List_4,,,,,,,,,,,,,,,,44321,2020-11-23_12h49.01.911,lingCatScenes,2020.1.3,MacIntel,60,"[1440,900]",,,"[""trial_ahead_box""]",,,,,,,,,,,,basement5.jpg,space,0.944365,[-0.01790798611111111],[-0.2979644097222222],[1],[0],[0],[0.7285599999886472],"[""trial_ahead_box""]",0,73,73,9,1,auto_showroom3.jpg,bar2.jpg,ballroom2.jpg,arcade2.jpg,,
Image_List_4,,,,,,,,,,,,,,,,44321,2020-11-23_12h49.01.911,lingCatScenes,2020.1.3,MacIntel,60,"[1440,900]",,,"[""trial_right_box""]",,,,,,,,,,,,liquorstore.jpg,space,1.00994,[0.4125737847222222],[-0.2998177083333333],[1],[0],[0],[0.7952750000113156],"[""trial_right_box""]",0,74,74,66,1,library_aisle10.jpg,office3.jpg,laundromat3.jpg,horsebarn9.jpg,,
Image_List_4,,,,,,,,,,,,,,,,44321,2020-11-23_12h49.01.911,lingCatScenes,2020.1.3,MacIntel,60,"[1440,900]",,,"[""trial_left_box""]",,,,,,,,,,,,ticket_counter6.jpg,space,1.7096,[-0.39428385416666667],[-0.30233072916666665],[1],[0],[0],[1.5277549999882467],"[""trial_left_box""]",0,75,75,91,1,shoestore2.jpg,trainStation5.jpg,skatepark5.jpg,sidewalk3.jpg,,
Image_List_4,,,,,,,,,,,,,,,,44321,2020-11-23_12h49.01.911,lingCatScenes,2020.1.3,MacIntel,60,"[1440,900]",,,"[""trial_ahead_box""]",,,,,,,,,,,,fountain4.jpg,space,1.077315,[0.0020876736111111113],[-0.29444444444444445],[1],[0],[0],[0.9263650000211783],"[""trial_ahead_box""]",0,76,76,46,1,flowershop.jpg,frontLawn5.jpg,farmersmarket4.jpg,dormroom6.jpg,,
Image_List_4,,,,,,,,,,,,,,,,44321,2020-11-23_12h49.01.911,lingCatScenes,2020.1.3,MacIntel,60,"[1440,900]",,,"[""trial_ahead_box""]",,,,,,,,,,,,winebarrel4.jpg,space,2.04924,[0.0013975694444444443],[-0.29444444444444445],[1],[0],[0],[0.8279050000128336],"[""trial_ahead_box""]",0,77,77,98,1,weightroom5.jpg,wineVineyard8.jpg,warehouse3.jpg,winebarrel2.jpg,,
Image_List_4,,,,,,,,,,,,,,,,44321,2020-11-23_12h49.01.911,lingCatScenes,2020.1.3,MacIntel,60,"[1440,900]",,,"[""trial_ahead_box""]",,,,,,,,,,,,homegarage3.jpg,space,1.632765,"[0.041171875,0.020520833333333332]","[-0.29680989583333334,-0.2991796875]","[1,1]","[0,0]","[0,0]","[1.1963749999995343,1.4791799999948125]","[""trial_ahead_box""]",0,78,78,53,1,gazebo3.jpg,homeoffice.jpg,frontLawn3.jpg,fountain.jpg,,
Image_List_4,,,,,,,,,,,,,,,,44321,2020-11-23_12h49.01.911,lingCatScenes,2020.1.3,MacIntel,60,"[1440,900]",,,"[""trial_ahead_box""]",,,,,,,,,,,,hut1.jpg,space,0.661525,[0.006167534722222222],[-0.29845486111111114],[1],[0],[0],[0.5636949999898206],"[""trial_ahead_box""]",0,79,79,56,1,grocerystore5.jpg,hut3.jpg,golfcourse10.jpg,gasstation2.jpg,,
Image_List_4,,,,,,,,,,,,,,,,44321,2020-11-23_12h49.01.911,lingCatScenes,2020.1.3,MacIntel,60,"[1440,900]",,,"[""trial_sharp_left_box""]",,,,,,,,,,,,botanicalGarden5.jpg,space,2.444415,[-0.581171875],[-0.2902777777777778],[1],[0],[0],[2.3285500000056345],"[""trial_sharp_left_box""]",0,80,80,14,1,ballroom1.jpg,breakroom5.jpg,bistrooutdoor5.jpg,ballroom3.jpg,,
Image_List_4,,,,,,,,,,,,,,,,44321,2020-11-23_12h49.01.911,lingCatScenes,2020.1.3,MacIntel,60,"[1440,900]",,,"[""trial_ahead_box""]",,,,,,,,,,,,kindergarten_classroom6.jpg,space,1.70658,[-0.01691840277777778],[-0.30160590277777777],[1],[0],[0],[1.6605250000138767],"[""trial_ahead_box""]",0,81,81,60,1,hometheater2.jpg,lightingstore3.jpg,homegarage.jpg,hallway.jpg,,
Image_List_4,,,,,,,,,,,,,,,,44321,2020-11-23_12h49.01.911,lingCatScenes,2020.1.3,MacIntel,60,"[1440,900]",,,"[""trial_ahead_box""]",,,,,,,,,,,,driveway8.jpg,space,1.959485,[],[],[],[],[],[],[],0,82,82,38,1,dining_car2.jpg,elevatorOutside4.jpg,dock1.jpg,classroom1.jpg,,
Image_List_4,,,,,,,,,,,,,,,,44321,2020-11-23_12h49.01.911,lingCatScenes,2020.1.3,MacIntel,60,"[1440,900]",,,"[""trial_ahead_box""]",,,,,,,,,,,,cemetery5.jpg,space,1.292295,[0.005334201388888889],[-0.2989670138888889],[1],[0],[0],[1.1276249999937136],"[""trial_ahead_box""]",0,83,83,24,1,campsite.jpg,cliff3.jpg,cave6.jpg,boardwalk.jpg,,
Image_List_4,,,,,,,,,,,,,,,,44321,2020-11-23_12h49.01.911,lingCatScenes,2020.1.3,MacIntel,60,"[1440,900]",,,"[""trial_ahead_box""]",,,,,,,,,,,,castle2.jpg,space,0.761505,[0.005334201388888889],[-0.2989670138888889],[1],[0],[0],[0.6460899999947287],"[""trial_ahead_box""]",0,84,84,18,1,bleachers5.jpg,casino1.jpg,brewery4.jpg,basement6.jpg,,
Image_List_4,,,,,,,,,,,,,,,,44321,2020-11-23_12h49.01.911,lingCatScenes,2020.1.3,MacIntel,60,"[1440,900]",,,"[""trial_slight_left_box""]",,,,,,,,,,,,boardwalk4.jpg,space,1.45845,[-0.1768532986111111],[-0.29657118055555554],[1],[0],[0],[1.3114449999993667],"[""trial_slight_left_box""]",0,85,85,13,1,balconyIN2.jpg,bowlingalley3.jpg,beach2.jpg,backyard6.jpg,,
Image_List_4,,,,,,,,,,,,,,,,44321,2020-11-23_12h49.01.911,lingCatScenes,2020.1.3,MacIntel,60,"[1440,900]",,,"[""trial_ahead_box""]",,,,,,,,,,,,doctor1.jpg,space,2.40813,[-0.005911458333333334],[-0.28866753472222223],[1],[0],[0],[2.193984999990789],"[""trial_ahead_box""]",0,86,86,36,1,diner14.jpg,dormroom9.jpg,dining_car3.jpg,checkoutcounter9.jpg,,
Image_List_4,,,,,,,,,,,,,,,,44321,2020-11-23_12h49.01.911,lingCatScenes,2020.1.3,MacIntel,60,"[1440,900]",,,"[""trial_ahead_box""]",,,,,,,,,,,,lockerroom2.jpg,space,1.328885,[-0.0063671875],[-0.2884375],[1],[0],[0],[1.1805599999788683],"[""trial_ahead_box""]",0,87,87,68,1,liquorstore7.jpg,parkinglot.jpg,lightingstore4.jpg,hospitalroom3.jpg,,
Image_List_4,,,,,,,,,,,,,,,,44321,2020-11-23_12h49.01.911,lingCatScenes,2020.1.3,MacIntel,60,"[1440,900]",,,"[""trial_ahead_box""]",,,,,,,,,,,,weightroom4.jpg,space,0.886355,[-0.0063671875],[-0.2884375],[1],[0],[0],[0.614000000001397],"[""trial_ahead_box""]",0,88,88,95,1,waitingroom2.jpg,warehouse2.jpg,stripmall6.jpg,tvstudio3.jpg,,
Image_List_4,,,,,,,,,,,,,,,,44321,2020-11-23_12h49.01.911,lingCatScenes,2020.1.3,MacIntel,60,"[1440,900]",,,"[""trial_ahead_box""]",,,,,,,,,,,,cabinIndoors.jpg,space,2.163245,[0.005238715277777778],[-0.2853125],[1],[0],[0],[2.0138349999906495],"[""trial_ahead_box""]",0,89,89,15,1,bambooforest4.jpg,cafeteria5.jpg,bleachers8.jpg,bar8.jpg,,
Image_List_4,,,,,,,,,,,,,,,,44321,2020-11-23_12h49.01.911,lingCatScenes,2020.1.3,MacIntel,60,"[1440,900]",,,"[""trial_ahead_box""]",,,,,,,,,,,,winebarrel3.jpg,space,0.760025,[0.005238715277777778],[-0.28553819444444445],[1],[0],[0],[0.6456250000046566],"[""trial_ahead_box""]",0,90,90,97,1,warehouseoutside4.jpg,wineVineyard2.jpg,waitingroom4.jpg,warehouseoutside3.jpg,,
Image_List_4,,,,,,,,,,,,,,,,44321,2020-11-23_12h49.01.911,lingCatScenes,2020.1.3,MacIntel,60,"[1440,900]",,,"[""trial_ahead_box""]",,,,,,,,,,,,hallway2.jpg,space,0.828715,[0.004548611111111111],[-0.28553819444444445],[1],[0],[0],[0.6797749999968801],"[""trial_ahead_box""]",0,91,91,50,1,frontLawn4.jpg,grocerystore6.jpg,forestpath6.jpg,fireplace4.jpg,,
Image_List_4,,,,,,,,,,,,,,,,44321,2020-11-23_12h49.01.911,lingCatScenes,2020.1.3,MacIntel,60,"[1440,900]",,,"[""trial_slight_right_box""]",,,,,,,,,,,,dining_car6.jpg,space,1.459975,[0.2022048611111111],[-0.2880078125],[1],[0],[0],[1.3274450000026263],"[""trial_slight_right_box""]",0,92,92,35,1,deck5.jpg,dock3.jpg,cubicle7.jpg,carmechanic2.jpg,,
Image_List_4,,,,,,,,,,,,,,,,44321,2020-11-23_12h49.01.911,lingCatScenes,2020.1.3,MacIntel,60,"[1440,900]",,,"[""trial_right_box"",""trial_left_box""]",,,,,,,,,,,,liquorstore2.jpg,space,2.592075,"[0.40020399305555554,-0.38922743055555553]","[-0.29756944444444444,-0.278125]","[1,1]","[0,0]","[0,0]","[1.3432000000029802,2.3099199999996927]","[""trial_right_box"",""trial_left_box""]",0,93,93,67,1,library_aisle3.jpg,park7.jpg,laundromat4.jpg,hospitalroom2.jpg,,
Image_List_4,,,,,,,,,,,,,,,,44321,2020-11-23_12h49.01.911,lingCatScenes,2020.1.3,MacIntel,60,"[1440,900]",,,"[""trial_ahead_box""]",,,,,,,,,,,,drymountains5.jpg,space,2.12535,[-0.01197048611111111],[-0.3199782986111111],[1],[0],[0],[1.4777999999932945],"[""trial_ahead_box""]",0,94,94,39,1,driveway6.jpg,eyeglassstore9.jpg,drycleaners6.jpg,cliff5.jpg,,
Image_List_4,,,,,,,,,,,,,,,,44321,2020-11-23_12h49.01.911,lingCatScenes,2020.1.3,MacIntel,60,"[1440,900]",,,"[""trial_slight_right_box""]",,,,,,,,,,,,foodcourt.jpg,space,2.426785,[0.21758246527777778],[-0.2990798611111111],[1],[0],[0],[2.2791050000232644],"[""trial_slight_right_box""]",0,95,95,43,1,exerciseequipment5.jpg,forestpath10.jpg,dugout2.jpg,diningroom3.jpg,,
Image_List_4,,,,,,,,,,,,,,,,44321,2020-11-23_12h49.01.911,lingCatScenes,2020.1.3,MacIntel,60,"[1440,900]",,,"[""trial_ahead_box""]",,,,,,,,,,,,operatingroom1.jpg,space,1.89166,[0.0021354166666666665],[-0.29495225694444444],[1],[0],[0],[1.7455699999991339],"[""trial_ahead_box""]",0,96,96,74,1,newsstand2.jpg,playground10.jpg,observatory4.jpeg,lightingstore2.jpg,,
Image_List_4,,,,,,,,,,,,,,,,44321,2020-11-23_12h49.01.911,lingCatScenes,2020.1.3,MacIntel,60,"[1440,900]",,,"[""trial_ahead_box""]",,,,,,,,,,,,soccerfield.jpg,space,0.72653,[0.0019053819444444444],[-0.2951779513888889],[1],[0],[0],[0.5791000000026543],"[""trial_ahead_box""]",0,97,97,88,1,rooftop1.jpg,track.jpg,sculpturegarden4.jpg,sandbox.jpg,,
Image_List_4,,,,,,,,,,,,,,,,44321,2020-11-23_12h49.01.911,lingCatScenes,2020.1.3,MacIntel,60,"[1440,900]",,,"[""trial_sharp_left_box"",""trial_sharp_right_box""]",,,,,,,,,,,,apartmentBuilding4.jpg,space,2.625035,"[-0.6047829861111111,0.5799479166666667]","[-0.2886197916666667,-0.2958029513888889]","[1,1]","[0,0]","[0,0]","[1.6111850000161212,2.4604200000176206]","[""trial_sharp_left_box"",""trial_sharp_right_box""]",0,98,98,2,1,alley1.jpg,arcade1.jpg,applestore6.jpg,airportTerminal6.jpg,,
Image_List_4,,,,,,,,,,,,,,,,44321,2020-11-23_12h49.01.911,lingCatScenes,2020.1.3,MacIntel,60,"[1440,900]",,,[],,,,,,,,,,,,fabricstore1.jpg,space,1.456015,[-0.04074652777777778],[-0.2890451388888889],[1],[0],[0],[1.3082050000084564],[],0,99,99,41,1,dugout4.jpg,farm3.jpg,drymountains3.jpg,dentist2.jpg,,
Image_List_4,,,,,,,,,,,,,,,,44321,2020-11-23_12h49.01.911,lingCatScenes,2020.1.3,MacIntel,60,,,,,,,,,,,,,,,,,,,,,,,,,,,,,,,,,,,space,10.71901
