image_list,key_resp_intructions.keys,key_resp_intructions.rt,key_resp_intructions_3.keys,key_resp_intructions_3.rt,PracticeComplete_2.keys,PracticeComplete_2.rt,PracticeComplete_3.keys,PracticeComplete_3.rt,demo_trials.thisRepN,demo_trials.thisTrialN,demo_trials.thisN,demo_trials.thisIndex,demo_trials.ran,demo_images,path_images,participant,date,expName,psychopyVersion,OS,frameRate,windowSize,practice_complete.keys,practice_complete.rt,boxes_checked,PracticeComplete.keys,PracticeComplete.rt,practice_trials.thisRepN,practice_trials.thisTrialN,practice_trials.thisN,practice_trials.thisIndex,practice_trials.ran,practice_images,feedback_images,key_resp_intructions_2.keys,key_resp_intructions_2.rt,Image_List_5,trial_complete.keys,trial_complete.rt,trial_mouse.x,trial_mouse.y,trial_mouse.leftButton,trial_mouse.midButton,trial_mouse.rightButton,trial_mouse.time,trial_mouse.clicked_name,trials.thisRepN,trials.thisTrialN,trials.thisN,trials.thisIndex,trials.ran,Image_List_1,Image_List_2,Image_List_3,Image_List_4,key_resp.keys,key_resp.rt
Image_List_5,space,55.88165,space,5.1259,space,8.059155,space,5.18658,0,0,0,2,1,ahead_right.jpg,ahead_right_path.jpg,44368,2020-11-23_19h54.48.972,lingCatScenes,2020.1.3,Win32,60,,,,,,,,,,,,,,,,,,,,,,,,,,,,,,,,,,,,
Image_List_5,,,,,space,0.130895,space,4.50506,0,1,1,1,1,ahead_left.jpg,ahead_left_path.jpg,44368,2020-11-23_19h54.48.972,lingCatScenes,2020.1.3,Win32,60,,,,,,,,,,,,,,,,,,,,,,,,,,,,,,,,,,,,
Image_List_5,,,,,space,2.426235,space,4.676815,0,2,2,0,1,ahead.jpg,ahead_path.jpg,44368,2020-11-23_19h54.48.972,lingCatScenes,2020.1.3,Win32,60,,,,,,,,,,,,,,,,,,,,,,,,,,,,,,,,,,,,
Image_List_5,,,,,space,7.54334,space,2.259745,0,3,3,5,1,right.jpg,right_path.jpg,44368,2020-11-23_19h54.48.972,lingCatScenes,2020.1.3,Win32,60,,,,,,,,,,,,,,,,,,,,,,,,,,,,,,,,,,,,
Image_List_5,,,,,space,3.91283,space,5.69339,0,4,4,3,1,ahead_right_left.jpg,ahead_right_left_path.jpg,44368,2020-11-23_19h54.48.972,lingCatScenes,2020.1.3,Win32,60,,,,,,,,,,,,,,,,,,,,,,,,,,,,,,,,,,,,
Image_List_5,,,,,space,1.42512,space,2.653115,0,5,5,4,1,left.jpg,left_path.jpg,44368,2020-11-23_19h54.48.972,lingCatScenes,2020.1.3,Win32,60,,,,,,,,,,,,,,,,,,,,,,,,,,,,,,,,,,,,
Image_List_5,,,,,space,1.93321,space,2.269455,0,6,6,6,1,right_left.jpg,right_left_path.jpg,44368,2020-11-23_19h54.48.972,lingCatScenes,2020.1.3,Win32,60,,,,,,,,,,,,,,,,,,,,,,,,,,,,,,,,,,,,
Image_List_5,,,,,,,,,,,,,,,,44368,2020-11-23_19h54.48.972,lingCatScenes,2020.1.3,Win32,60,"[1280,720]",space,13.344575,"[""right_box""]",space,2.242815,0,0,0,5,1,right_2.jpg,right_2_path.jpg,,,,,,,,,,,,,,,,,,,,,,,
Image_List_5,,,,,,,,,,,,,,,,44368,2020-11-23_19h54.48.972,lingCatScenes,2020.1.3,Win32,60,"[1280,720]",space,7.226985,"[""slight_right_box"",""ahead_box""]",space,3.69058,0,1,1,1,1,ahead_left_2.jpg,ahead_left_2_path.jpg,,,,,,,,,,,,,,,,,,,,,,,
Image_List_5,,,,,,,,,,,,,,,,44368,2020-11-23_19h54.48.972,lingCatScenes,2020.1.3,Win32,60,"[1280,720]",space,11.58216,"[""ahead_box"",""slight_left_box"",""left_box"",""slight_right_box"",""right_box""]",space,4.261195,0,2,2,3,1,ahead_right_left_2.jpg,ahead_right_left_2_path.jpg,,,,,,,,,,,,,,,,,,,,,,,
Image_List_5,,,,,,,,,,,,,,,,44368,2020-11-23_19h54.48.972,lingCatScenes,2020.1.3,Win32,60,"[1280,720]",space,6.88285,"[""left_box""]",space,1.019075,0,3,3,4,1,left_2.jpg,left_2_path.jpg,,,,,,,,,,,,,,,,,,,,,,,
Image_List_5,,,,,,,,,,,,,,,,44368,2020-11-23_19h54.48.972,lingCatScenes,2020.1.3,Win32,60,"[1280,720]",space,3.46834,"[""ahead_box""]",space,1.04077,0,4,4,0,1,ahead_2.jpg,ahead_2_path.jpg,,,,,,,,,,,,,,,,,,,,,,,
Image_List_5,,,,,,,,,,,,,,,,44368,2020-11-23_19h54.48.972,lingCatScenes,2020.1.3,Win32,60,"[1280,720]",space,4.684425,"[""ahead_box"",""sharp_right_box""]",space,2.561965,0,5,5,2,1,ahead_right_2.jpg,ahead_right_2_path.jpg,,,,,,,,,,,,,,,,,,,,,,,
Image_List_5,,,,,,,,,,,,,,,,44368,2020-11-23_19h54.48.972,lingCatScenes,2020.1.3,Win32,60,"[1280,720]",space,5.26645,"[""slight_right_box"",""slight_left_box""]",space,1.30818,0,6,6,6,1,right_left_2.jpg,right_left_2_path.jpg,,,,,,,,,,,,,,,,,,,,,,,
Image_List_5,,,,,,,,,,,,,,,,44368,2020-11-23_19h54.48.972,lingCatScenes,2020.1.3,Win32,60,"[1280,720]",,,"[""trial_ahead_box"",""trial_right_box""]",,,,,,,,,,space,3.708785,postoffice4.jpg,space,5.464815,"[0.013888915793763267,0.40185189031892354]","[-0.29259261621369254,-0.3055555795629819]","[1,1]","[0,0]","[0,0]","[2.431315000168979,4.897725000046194]","[""trial_ahead_box"",""trial_right_box""]",0,0,0,82,1,publicrestroom2.jpg,sandDunes_desert_outdoor9.jpg,promenadeDeck3.jpg,readingroom4.jpg,,
Image_List_5,,,,,,,,,,,,,,,,44368,2020-11-23_19h54.48.972,lingCatScenes,2020.1.3,Win32,60,"[1280,720]",,,"[""trial_slight_right_box"",""trial_ahead_box""]",,,,,,,,,,,,homegarage2.jpg,space,6.87597,"[0.187962995055649,-0.0018518254160881042]","[-0.3027778017024199,-0.3092592833770646]","[1,1]","[0,0]","[0,0]","[5.120615000138059,6.452440000139177]","[""trial_slight_right_box"",""trial_ahead_box""]",0,1,1,64,1,igloo2.jpg,newsstand5.jpg,jewelrystore8.jpg,lab5.jpg,,
Image_List_5,,,,,,,,,,,,,,,,44368,2020-11-23_19h54.48.972,lingCatScenes,2020.1.3,Win32,60,"[1280,720]",,,"[""trial_sharp_right_box""]",,,,,,,,,,,,airplanecabin3.jpg,space,8.258605,"[0.1972222545908557,0.6111111558145947,0.19259262482325237]","[-0.2888889123996099,-0.31018526584462053,-0.3129630437051825]","[1,1,1]","[0,0,0]","[0,0,0]","[5.4424100001342595,6.6847999999299645,8.009240000043064]","[""trial_slight_right_box"",""trial_sharp_right_box"",""trial_slight_right_box""]",0,2,2,0,1,airplanecabin1.jpg,alley2.jpg,appleorchard4.jpg,airplanecabin5.jpg,,
Image_List_5,,,,,,,,,,,,,,,,44368,2020-11-23_19h54.48.972,lingCatScenes,2020.1.3,Win32,60,"[1280,720]",,,"[""trial_ahead_box""]",,,,,,,,,,,,botanicalGarden4.jpg,space,7.545295,[0.02037039746840795],[-0.3046297101234965],[1],[0],[0],[7.286149999825284],"[""trial_ahead_box""]",0,3,3,25,1,campsite7.jpg,conference3.jpg,church3.jpg,checkoutcounter2.jpg,,
Image_List_5,,,,,,,,,,,,,,,,44368,2020-11-23_19h54.48.972,lingCatScenes,2020.1.3,Win32,60,"[1280,720]",,,"[""trial_right_box"",""trial_left_box"",""trial_ahead_box""]",,,,,,,,,,,,soccerfield2.jpg,space,6.72855,"[0.4101852239006095,-0.35185183584690094,-0.3787036884990003,0.004629712772591827]","[-0.3166666910052299,-0.28055557881792387,-0.2916666902601719,-0.32129637728686855]","[1,1,1,1]","[0,0,0,0]","[0,0,0,0]","[3.1471800000872463,4.513054999988526,5.497065000003204,6.447274999925867]","[""trial_right_box"",""trial_left_box"",""trial_ahead_box""]",0,4,4,92,1,staircase.jpg,volleyballcourt.jpg,skatepark7.jpg,tvstudio2.jpg,,
Image_List_5,,,,,,,,,,,,,,,,44368,2020-11-23_19h54.48.972,lingCatScenes,2020.1.3,Win32,60,"[1280,720]",,,"[""trial_ahead_box"",""trial_sharp_left_box""]",,,,,,,,,,,,dock4.jpg,space,5.63693,"[-0.03240738188227018,0.004629712772591827,-0.5916666578087542]","[-0.3055555795629819,-0.3064815055165026,-0.3231481726798746]","[1,1,1]","[0,0,0]","[0,0,0]","[2.480184999993071,3.497620000038296,4.88023000000976]","[""trial_ahead_box"",""trial_sharp_left_box""]",0,5,5,45,1,fittingroom2.jpg,frontFoyer7.jpg,factory1.jpg,forestpath4.jpg,,
Image_List_5,,,,,,,,,,,,,,,,44368,2020-11-23_19h54.48.972,lingCatScenes,2020.1.3,Win32,60,"[1280,720]",,,"[""trial_left_box"",""trial_sharp_right_box"",""trial_ahead_box""]",,,,,,,,,,,,lockerroom.jpg,space,9.997085,"[-0.5935185097157956,-0.38333331826660366,-0.6101851768791675,0.5972222665117847,0.007407490633153833]","[-0.3018519322629345,-0.3046297101234965,-0.3046297101234965,-0.3055555795629819,-0.31759261695875063]","[1,1,1,1,1]","[0,0,0,0,0]","[0,0,0,0,0]","[2.2917949999682605,3.607594999950379,4.398615000071004,7.940925000002608,9.741709999972954]","[""trial_sharp_left_box"",""trial_left_box"",""trial_sharp_left_box"",""trial_sharp_right_box"",""trial_ahead_box""]",0,6,6,75,1,pantry5.jpg,playground6.jpg,operatingroom4.jpg,park.jpg,,
Image_List_5,,,,,,,,,,,,,,,,44368,2020-11-23_19h54.48.972,lingCatScenes,2020.1.3,Win32,60,"[1280,720]",,,"[""trial_sharp_left_box""]",,,,,,,,,,,,arcade2.jpg,space,4.37856,"[-0.5694444349242581,-0.6018518432974815]","[-0.2981481719348166,-0.2990741544023725]","[1,1]","[0,0]","[0,0]","[2.4745850001927465,3.225245000096038]","[""trial_sharp_left_box""]",0,7,7,9,1,auto_showroom3.jpg,bar2.jpg,ballroom2.jpg,basement5.jpg,,
Image_List_5,,,,,,,,,,,,,,,,44368,2020-11-23_19h54.48.972,lingCatScenes,2020.1.3,Win32,60,"[1280,720]",,,"[""trial_ahead_box"",""trial_slight_right_box"",""trial_slight_left_box""]",,,,,,,,,,,,backyard1.jpg,space,8.435525,"[-0.01574071471889814,0.3990741124583615,0.39814818650484085,0.2120370698471864,-0.1925925718413459]","[-0.28981483835313054,-0.3000000238418579,-0.3120370612376266,-0.3129630437051825,-0.29259261621369254]","[1,1,1,1,1]","[0,0,0,0,0]","[0,0,0,0,0]","[3.3079800000414252,5.241365000139922,6.691660000011325,7.341390000190586,8.191580000100657]","[""trial_ahead_box"",""trial_right_box"",""trial_right_box"",""trial_slight_right_box"",""trial_slight_left_box""]",0,8,8,11,1,backyard2.jpg,basketballcourt4.jpg,bambooforest3.jpg,baywindow5.jpg,,
Image_List_5,,,,,,,,,,,,,,,,44368,2020-11-23_19h54.48.972,lingCatScenes,2020.1.3,Win32,60,"[1280,720]",,,"[""trial_ahead_box""]",,,,,,,,,,,,observatory1.jpg,space,3.1194,[-0.0064813986696562],[-0.32407415514743054],[1],[0],[0],[1.8739200001582503],"[""trial_ahead_box""]",0,9,9,78,1,parkinglot3.jpg,poolhall1.jpg,pier5.jpg,pavilion3.jpg,,
Image_List_5,,,,,,,,,,,,,,,,44368,2020-11-23_19h54.48.972,lingCatScenes,2020.1.3,Win32,60,"[1280,720]",,,"[""trial_ahead_box"",""trial_right_box"",""trial_left_box""]",,,,,,,,,,,,dentist2.jpg,space,6.82394,"[-0.011111084951294793,0.4148148536682129,-0.3990740594764551]","[-0.2981481719348166,-0.3046297101234965,-0.2787037269108825]","[1,1,1]","[0,0,0]","[0,0,0]","[2.008640000130981,5.507720000110567,6.541800000006333]","[""trial_ahead_box"",""trial_right_box"",""trial_left_box""]",0,10,10,41,1,dugout4.jpg,farm3.jpg,drymountains3.jpg,fabricstore1.jpg,,
Image_List_5,,,,,,,,,,,,,,,,44368,2020-11-23_19h54.48.972,lingCatScenes,2020.1.3,Win32,60,"[1280,720]",,,"[""trial_sharp_right_box""]",,,,,,,,,,,,dock2.jpg,space,3.47668,[0.621296341303322],[-0.2907408208206865],[1],[0],[0],[2.7766200001351535],"[""trial_sharp_right_box""]",0,11,11,44,1,firestation2.jpg,frontFoyer4.jpg,elevatorOutside1.jpg,foodcourt6.jpg,,
Image_List_5,,,,,,,,,,,,,,,,44368,2020-11-23_19h54.48.972,lingCatScenes,2020.1.3,Win32,60,"[1280,720]",,,"[""trial_ahead_box"",""trial_slight_right_box"",""trial_slight_left_box""]",,,,,,,,,,,,bar8.jpg,space,5.202685,"[0.0018519349120298203,0.14907410500778093,0.16296299431059097,0.1916666988697317,-0.19444442374838722]","[-0.3092592833770646,-0.30833335742354395,-0.3120370612376266,-0.31018526584462053,-0.32407415514743054]","[1,1,1,1,1]","[0,0,0,0,0]","[0,0,0,0,0]","[1.6797549999319017,2.4139949998352677,3.1628149999305606,3.9291349998675287,4.913314999779686]","[""trial_ahead_box"",""trial_slight_right_box"",""trial_slight_left_box""]",0,12,12,15,1,bambooforest4.jpg,cafeteria5.jpg,bleachers8.jpg,cabinIndoors.jpg,,
Image_List_5,,,,,,,,,,,,,,,,44368,2020-11-23_19h54.48.972,lingCatScenes,2020.1.3,Win32,60,"[1280,720]",,,"[""trial_slight_right_box""]",,,,,,,,,,,,igloo.jpg,space,3.175965,[0.21851855152183108],[-0.2907408208206865],[1],[0],[0],[2.2525549998972565],"[""trial_slight_right_box""]",0,13,13,70,1,lockerroom4.jpg,pavilion.jpg,lockerroom3.jpg,minigolf8.jpg,,
Image_List_5,,,,,,,,,,,,,,,,44368,2020-11-23_19h54.48.972,lingCatScenes,2020.1.3,Win32,60,"[1280,720]",,,"[""trial_ahead_box""]",,,,,,,,,,,,alley4.jpg,space,1.833015,[-0.013888862811856799],[-0.31018526584462053],[1],[0],[0],[1.5800699999090284],"[""trial_ahead_box""]",0,14,14,4,1,artStudio1.jpg,baggageClaim2.jpg,auto_showroom1.jpg,appleorchard3.jpg,,
Image_List_5,,,,,,,,,,,,,,,,44368,2020-11-23_19h54.48.972,lingCatScenes,2020.1.3,Win32,60,"[1280,720]",,,"[""trial_right_box"",""trial_left_box""]",,,,,,,,,,,,gazebo.jpg,space,4.59567,"[0.4212963353428576,-0.39351850375533104]","[-0.3027778017024199,-0.3055555795629819]","[1,1]","[0,0]","[0,0]","[3.3245099999476224,4.248189999954775]","[""trial_right_box"",""trial_left_box""]",0,15,15,57,1,hayfield5.jpg,jail1.jpg,hallway4.jpg,hut5.jpg,,
Image_List_5,,,,,,,,,,,,,,,,44368,2020-11-23_19h54.48.972,lingCatScenes,2020.1.3,Win32,60,"[1280,720]",,,"[""trial_left_box"",""trial_right_box""]",,,,,,,,,,,,classroom1.jpg,space,10.286805,"[0.17314817979931832,0.187962995055649,-0.19907405351599058,0.1759259576598803,-0.3703703549173143,-0.3861110961271657,0.3907407788766755]","[-0.2916666902601719,-0.2944444681207339,-0.33055558030804,-0.30092594979537857,-0.28981483835313054,-0.2916666902601719,-0.30370372765594056]","[1,1,1,1,1,1,1]","[0,0,0,0,0,0,0]","[0,0,0,0,0,0,0]","[3.0084949999582022,3.859070000005886,5.075734999962151,6.6592049999162555,8.092094999970868,8.791894999798387,9.958574999822304]","[""trial_slight_right_box"",""trial_slight_right_box"",""trial_left_box"",""trial_right_box""]",0,16,16,38,1,dining_car2.jpg,elevatorOutside4.jpg,dock1.jpg,driveway8.jpg,,
Image_List_5,,,,,,,,,,,,,,,,44368,2020-11-23_19h54.48.972,lingCatScenes,2020.1.3,Win32,60,"[1280,720]",,,"[""trial_left_box""]",,,,,,,,,,,,winebarrel2.jpg,space,2.41809,[-0.4120370228257444],[-0.31759261695875063],[1],[0],[0],[1.9639950001146644],"[""trial_left_box""]",0,17,17,98,1,weightroom5.jpg,wineVineyard8.jpg,warehouse3.jpg,winebarrel4.jpg,,
Image_List_5,,,,,,,,,,,,,,,,44368,2020-11-23_19h54.48.972,lingCatScenes,2020.1.3,Win32,60,"[1280,720]",,,"[""trial_sharp_left_box"",""trial_sharp_right_box""]",,,,,,,,,,,,sculpturegarden3.jpg,space,5.586885,"[-0.6175925845073329,-0.6092592509256469,0.6092594169356238]","[-0.3398148398432467,-0.3231481726798746,-0.3046297101234965]","[1,1,1]","[0,0,0]","[0,0,0]","[3.3126349998638034,4.112659999867901,5.34626999986358]","[""trial_sharp_left_box"",""trial_sharp_right_box""]",0,18,18,89,1,ruralroad7.jpg,track5.jpg,ShowJumping7.jpg,staircase7.jpg,,
Image_List_5,,,,,,,,,,,,,,,,44368,2020-11-23_19h54.48.972,lingCatScenes,2020.1.3,Win32,60,"[1280,720]",,,"[""trial_slight_right_box"",""trial_slight_left_box""]",,,,,,,,,,,,mallindoor6.jpg,space,7.4453,"[0.1972222545908557,-0.20555553519063527]","[-0.2990741544023725,-0.29722224598129593]","[1,1]","[0,0]","[0,0]","[5.358645000029355,7.091114999959245]","[""trial_slight_right_box"",""trial_slight_left_box""]",0,19,19,77,1,parkinggarage2.jpg,playroom6.jpg,pasture9.jpg,park8.jpg,,
Image_List_5,,,,,,,,,,,,,,,,44368,2020-11-23_19h54.48.972,lingCatScenes,2020.1.3,Win32,60,"[1280,720]",,,"[""trial_sharp_left_box""]",,,,,,,,,,,,bridalboutique2.jpg,space,3.61074,[-0.6055555471115642],[-0.2814815047714445],[1],[0],[0],[3.307899999897927],"[""trial_sharp_left_box""]",0,20,20,28,1,churchInside1.jpg,dancestudio5.jpg,citystreet10.jpg,clothingstore5.jpg,,
Image_List_5,,,,,,,,,,,,,,,,44368,2020-11-23_19h54.48.972,lingCatScenes,2020.1.3,Win32,60,"[1280,720]",,,"[""trial_right_box""]",,,,,,,,,,,,kindergarten_classroom.jpg,space,5.719775,[0.4055555941330062],[-0.31388891314466794],[1],[0],[0],[4.094319999916479],"[""trial_right_box""]",0,21,21,72,1,museum5.jpg,pharmacy4.jpg,musicStore1.jpg,museum4.jpg,,
Image_List_5,,,,,,,,,,,,,,,,44368,2020-11-23_19h54.48.972,lingCatScenes,2020.1.3,Win32,60,"[1280,720]",,,"[""trial_slight_right_box"",""trial_ahead_box""]",,,,,,,,,,,,backyard6.jpg,space,4.204375,"[0.21851855152183108,0.004629712772591827]","[-0.31111113528410594,-0.3092592833770646]","[1,1]","[0,0]","[0,0]","[2.957924999995157,3.9750500000081956]","[""trial_slight_right_box"",""trial_ahead_box""]",0,22,22,13,1,balconyIN2.jpg,bowlingalley3.jpg,beach2.jpg,boardwalk4.jpg,,
Image_List_5,,,,,,,,,,,,,,,,44368,2020-11-23_19h54.48.972,lingCatScenes,2020.1.3,Win32,60,"[1280,720]",,,"[""trial_ahead_box""]",,,,,,,,,,,,grocerystore2.jpg,space,1.406125,[0.004629712772591827],[-0.3092592833770646],[1],[0],[0],[1.0067849999759346],"[""trial_ahead_box""]",0,23,23,58,1,highway7.jpg,lab1.jpg,hedgemaze1.jpg,igloo4.jpg,,
Image_List_5,,,,,,,,,,,,,,,,44368,2020-11-23_19h54.48.972,lingCatScenes,2020.1.3,Win32,60,"[1280,720]",,,"[""trial_ahead_box""]",,,,,,,,,,,,sandbox.jpg,space,3.875785,"[0.01944447151488728,0.01944447151488728,0.01944447151488728]","[-0.3018519322629345,-0.3018519322629345,-0.3018519322629345]","[1,1,1]","[0,0,0]","[0,0,0]","[2.588844999903813,3.138929999899119,3.6558149999473244]","[""trial_ahead_box"",""trial_ahead_box"",""trial_ahead_box""]",0,24,24,88,1,rooftop1.jpg,track.jpg,sculpturegarden4.jpg,soccerfield.jpg,,
Image_List_5,,,,,,,,,,,,,,,,44368,2020-11-23_19h54.48.972,lingCatScenes,2020.1.3,Win32,60,"[1280,720]",,,"[""trial_ahead_box"",""trial_slight_left_box"",""trial_left_box"",""trial_sharp_left_box"",""trial_slight_right_box"",""trial_right_box"",""trial_sharp_right_box""]",,,,,,,,,,,,baseball6.jpg,space,8.022805,"[0.01944447151488728,-0.20925923900471793,-0.3925925778018104,-0.6037036952045228,0.1861111431486077,0.20277781031197972,0.18981484696269035,0.3935185567372375,0.593518562697702]","[-0.3018519322629345,-0.3046297101234965,-0.27592594905032053,-0.31018526584462053,-0.30370372765594056,-0.30092594979537857,-0.30370372765594056,-0.32407415514743054,-0.28333335667848586]","[1,1,1,1,1,1,1,1,1]","[0,0,0,0,0,0,0,0,0]","[0,0,0,0,0,0,0,0,0]","[2.3528549999464303,3.2864850000478327,4.036300000036135,4.835570000112057,5.636189999990165,5.769705000100657,6.603099999949336,7.068835000041872,7.569485000101849]","[""trial_ahead_box"",""trial_slight_left_box"",""trial_left_box"",""trial_sharp_left_box"",""trial_slight_right_box"",""trial_slight_right_box"",""trial_slight_right_box"",""trial_right_box"",""trial_sharp_right_box""]",0,25,25,17,1,bikerack1.jpg,campsite6.jpg,breakroom4.jpg,carmechanic.jpg,,
Image_List_5,,,,,,,,,,,,,,,,44368,2020-11-23_19h54.48.972,lingCatScenes,2020.1.3,Win32,60,"[1280,720]",,,"[""trial_slight_left_box"",""trial_slight_right_box"",""trial_ahead_box""]",,,,,,,,,,,,bus_shelter3.jpg,space,6.476545,"[-0.18981479398078388,0.2000000324514177,0.19814818054437638,0.00277780435151524]","[-0.2916666902601719,-0.32500002458691596,-0.30740748798405854,-0.3055555795629819]","[1,1,1,1]","[0,0,0,0]","[0,0,0,0]","[2.495314999949187,3.4951299999374896,4.2955400000792,6.1614149999804795]","[""trial_slight_left_box"",""trial_slight_right_box"",""trial_ahead_box""]",0,26,26,30,1,courthouse1.jpg,desertvegetation3.jpg,clothingstore2.jpg,copyroom2.jpg,,
Image_List_5,,,,,,,,,,,,,,,,44368,2020-11-23_19h54.48.972,lingCatScenes,2020.1.3,Win32,60,"[1280,720]",,,"[""trial_slight_left_box""]",,,,,,,,,,,,hallway.jpg,space,3.16623,[-0.20925923900471793],[-0.2990741544023725],[1],[0],[0],[2.0412250000517815],"[""trial_slight_left_box""]",0,27,27,60,1,hometheater2.jpg,lightingstore3.jpg,homegarage.jpg,kindergarten_classroom6.jpg,,
Image_List_5,,,,,,,,,,,,,,,,44368,2020-11-23_19h54.48.972,lingCatScenes,2020.1.3,Win32,60,"[1280,720]",,,"[""trial_slight_right_box"",""trial_right_box"",""trial_left_box""]",,,,,,,,,,,,airportTerminal2.jpg,space,6.096305,"[0.19537040268381436,0.3861111491090722,-0.38333331826660366]","[-0.31018526584462053,-0.2981481719348166,-0.3000000238418579]","[1,1,1]","[0,0,0]","[0,0,0]","[2.091594999888912,3.091580000007525,5.807879999978468]","[""trial_slight_right_box"",""trial_right_box"",""trial_left_box""]",0,28,28,1,1,airportTerminal4.jpg,apartmentBuilding1.jpg,applestore1.jpg,airportTerminal3.jpg,,
Image_List_5,,,,,,,,,,,,,,,,44368,2020-11-23_19h54.48.972,lingCatScenes,2020.1.3,Win32,60,"[1280,720]",,,"[""trial_slight_right_box""]",,,,,,,,,,,,fabricstore2.jpg,space,3.427445,[0.1916666988697317],[-0.29259261621369254],[1],[0],[0],[1.9410999999381602],"[""trial_slight_right_box""]",0,29,29,48,1,frontDoor2.jpg,golfcourse6.jpg,fittingroom5.jpg,golfcourse7.jpg,,
Image_List_5,,,,,,,,,,,,,,,,44368,2020-11-23_19h54.48.972,lingCatScenes,2020.1.3,Win32,60,"[1280,720]",,,"[""trial_slight_left_box""]",,,,,,,,,,,,barbershop2.jpg,space,2.10346,[-0.1981481275624699],[-0.30092594979537857],[1],[0],[0],[1.8434900001157075],"[""trial_slight_left_box""]",0,30,30,16,1,basement.jpg,cafeteria6.jpg,breakroom2.jpg,campusquad4.jpg,,
Image_List_5,,,,,,,,,,,,,,,,44368,2020-11-23_19h54.48.972,lingCatScenes,2020.1.3,Win32,60,"[1280,720]",,,"[""trial_slight_right_box""]",,,,,,,,,,,,boardwalk.jpg,space,8.58425,"[0.4064815200865269,0.5601852283709579,0.2064815141260624,-0.024999974254104825,0.4027778162724442,0.023148175328969955]","[-0.2916666902601719,-0.3018519322629345,-0.32129637728686855,-0.3092592833770646,-0.3120370612376266,-0.2981481719348166]","[1,1,1,1,1,1]","[0,0,0,0,0,0]","[0,0,0,0,0,0]","[2.924929999979213,3.9418849998619407,4.924875000026077,5.991725000087172,7.240925000049174,8.258269999874756]","[""trial_right_box"",""trial_slight_right_box"",""trial_ahead_box"",""trial_right_box"",""trial_ahead_box""]",0,31,31,24,1,campsite.jpg,cliff3.jpg,cave6.jpg,cemetery5.jpg,,
Image_List_5,,,,,,,,,,,,,,,,44368,2020-11-23_19h54.48.972,lingCatScenes,2020.1.3,Win32,60,"[1280,720]",,,"[""trial_ahead_box"",""trial_right_box"",""trial_left_box""]",,,,,,,,,,,,gasstation2.jpg,space,6.714365,"[0.023148175328969955,0.38055559338794814,-0.4037036892440584]","[-0.2981481719348166,-0.3018519322629345,-0.31851859942630656]","[1,1,1]","[0,0,0]","[0,0,0]","[1.5573350000195205,4.724760000128299,6.3914700001478195]","[""trial_ahead_box"",""trial_right_box"",""trial_left_box""]",0,32,32,56,1,grocerystore5.jpg,hut3.jpg,golfcourse10.jpg,hut1.jpg,,
Image_List_5,,,,,,,,,,,,,,,,44368,2020-11-23_19h54.48.972,lingCatScenes,2020.1.3,Win32,60,"[1280,720]",,,"[""trial_slight_right_box""]",,,,,,,,,,,,alley3.jpg,space,3.650955,[0.21111114389366573],[-0.3092592833770646],[1],[0],[0],[2.7090249999891967],"[""trial_slight_right_box""]",0,33,33,3,1,apartmentBuilding2.jpg,attic1.jpg,aquarium1.jpg,appleorchard2.jpg,,
Image_List_5,,,,,,,,,,,,,,,,44368,2020-11-23_19h54.48.972,lingCatScenes,2020.1.3,Win32,60,"[1280,720]",,,"[""trial_left_box"",""trial_sharp_left_box"",""trial_slight_left_box"",""trial_ahead_box"",""trial_slight_right_box"",""trial_right_box"",""trial_sharp_right_box""]",,,,,,,,,,,,rooftop4.jpg,space,9.46127,"[-0.5731481387383408,-0.3916666518482897,-0.6361111035777463,-0.6027777692510022,-0.20555553519063527,0.0009259524444739024,0.21851855152183108,0.4101852239006095,0.6175927505173099]","[-0.2916666902601719,-0.2814815047714445,-0.30740748798405854,-0.30370372765594056,-0.30740748798405854,-0.28518526509956243,-0.29259261621369254,-0.2888889123996099,-0.28703706049256855]","[1,1,1,1,1,1,1,1,1]","[0,0,0,0,0,0,0,0,0]","[0,0,0,0,0,0,0,0,0]","[2.60550000006333,3.572944999905303,4.372955000028014,5.105299999937415,6.0729600000195205,6.70644999993965,7.355504999868572,8.272924999939278,9.289390000049025]","[""trial_left_box"",""trial_sharp_left_box"",""trial_slight_left_box"",""trial_ahead_box"",""trial_slight_right_box"",""trial_right_box"",""trial_sharp_right_box""]",0,34,34,86,1,restaurant14.jpg,stripmall.jpg,ruralroad3.jpg,sandDunes_desert_outdoor8.jpg,,
Image_List_5,,,,,,,,,,,,,,,,44368,2020-11-23_19h54.48.972,lingCatScenes,2020.1.3,Win32,60,"[1280,720]",,,"[""trial_ahead_box"",""trial_slight_right_box"",""trial_slight_left_box""]",,,,,,,,,,,,bridalboutique3.jpg,space,7.29564,"[-0.028703621554152254,-0.02314806583302824,0.19907410649789703,0.6148149726567479,-0.18981479398078388]","[-0.2953703940742546,-0.29629637654181046,-0.3129630437051825,-0.2953703940742546,-0.30833335742354395]","[1,1,1,1,1]","[0,0,0,0,0]","[0,0,0,0,0]","[1.5816199998371303,2.4478549999184906,4.497839999850839,5.814074999885634,7.0804749999661]","[""trial_ahead_box"",""trial_slight_right_box"",""trial_sharp_right_box"",""trial_slight_left_box""]",0,35,35,29,1,cornfield2.jpg,deck2.jpg,cliff2.jpg,constructionSite4.jpg,,
Image_List_5,,,,,,,,,,,,,,,,44368,2020-11-23_19h54.48.972,lingCatScenes,2020.1.3,Win32,60,"[1280,720]",,,"[""trial_slight_right_box""]",,,,,,,,,,,,shoestore4.jpg,space,6.91433,"[0.4324074467851056,0.2064815141260624]","[-0.3120370612376266,-0.29722224598129593]","[1,1]","[0,0]","[0,0]","[2.7590799999888986,4.2247999999672174]","[""trial_slight_right_box""]",0,36,36,90,1,savanna5.jpg,trainStation1.jpg,sidewalk1.jpg,stripmall3.jpg,,
Image_List_5,,,,,,,,,,,,,,,,44368,2020-11-23_19h54.48.972,lingCatScenes,2020.1.3,Win32,60,"[1280,720]",,,"[""trial_ahead_box""]",,,,,,,,,,,,RVinside2.jpg,space,3.71229,[-0.02222219639354282],[-0.27685193151787646],[1],[0],[0],[2.743000000016764],"[""trial_ahead_box""]",0,37,37,87,1,restaurantkitchen2.jpg,theater2.jpg,savanna.jpg,sculpturegarden2.jpg,,
Image_List_5,,,,,,,,,,,,,,,,44368,2020-11-23_19h54.48.972,lingCatScenes,2020.1.3,Win32,60,"[1280,720]",,,"[""trial_slight_left_box"",""trial_slight_right_box""]",,,,,,,,,,,,tvstudio3.jpg,space,5.34349,"[-0.1925925718413459,0.2064815141260624]","[-0.2944444681207339,-0.3157408215657445]","[1,1]","[0,0]","[0,0]","[3.8795049998443574,4.939239999977872]","[""trial_slight_left_box"",""trial_slight_right_box""]",0,38,38,95,1,waitingroom2.jpg,warehouse2.jpg,stripmall6.jpg,weightroom4.jpg,,
Image_List_5,,,,,,,,,,,,,,,,44368,2020-11-23_19h54.48.972,lingCatScenes,2020.1.3,Win32,60,"[1280,720]",,,"[""trial_ahead_box""]",,,,,,,,,,,,forestpath2.jpg,space,1.715685,[0.013888915793763267],[-0.3064815055165026],[1],[0],[0],[1.4580999999307096],"[""trial_ahead_box""]",0,39,39,52,1,gasstation7.jpg,hardwarestore1.jpg,frontFoyer6.jpg,highway.jpg,,
Image_List_5,,,,,,,,,,,,,,,,44368,2020-11-23_19h54.48.972,lingCatScenes,2020.1.3,Win32,60,"[1280,720]",,,"[""trial_ahead_box""]",,,,,,,,,,,,citystreet9.jpg,space,2.181635,[0.013888915793763267],[-0.3064815055165026],[1],[0],[0],[1.815805000020191],"[""trial_ahead_box""]",0,40,40,37,1,dining_car.jpg,driveway4.jpg,dinosaur4.jpg,driveway7.jpg,,
Image_List_5,,,,,,,,,,,,,,,,44368,2020-11-23_19h54.48.972,lingCatScenes,2020.1.3,Win32,60,"[1280,720]",,,"[""trial_ahead_box"",""trial_slight_left_box"",""trial_slight_right_box""]",,,,,,,,,,,,hospitalroom2.jpg,space,3.92193,"[2.6490953233506943e-8,-0.1805555344455772,0.2037037362655004]","[-0.3064815055165026,-0.2990741544023725,-0.3027778017024199]","[1,1,1]","[0,0,0]","[0,0,0]","[1.6582049999851733,2.590834999922663,3.6802300000563264]","[""trial_ahead_box"",""trial_slight_left_box"",""trial_slight_right_box""]",0,41,41,67,1,library_aisle3.jpg,park7.jpg,laundromat4.jpg,liquorstore2.jpg,,
Image_List_5,,,,,,,,,,,,,,,,44368,2020-11-23_19h54.48.972,lingCatScenes,2020.1.3,Win32,60,"[1280,720]",,,"[""trial_ahead_box"",""trial_slight_left_box"",""trial_left_box"",""trial_sharp_left_box"",""trial_slight_right_box"",""trial_sharp_right_box"",""trial_right_box""]",,,,,,,,,,,,basketballcourt.jpg,space,10.070545,"[-0.020370287972466233,-0.18148146039909788,-0.36944442896379365,-0.36944442896379365,-0.3944444297088517,-0.6361111035777463,-0.6222222142749363,0.179629661473963,0.42592596511046094,0.6175927505173099,0.4055555941330062]","[-0.3064815055165026,-0.3129630437051825,-0.3018519322629345,-0.3018519322629345,-0.3027778017024199,-0.28703706049256855,-0.28703706049256855,-0.2888889123996099,-0.28981483835313054,-0.3018519322629345,-0.3092592833770646]","[1,1,1,1,1,1,1,1,1,1,1]","[0,0,0,0,0,0,0,0,0,0,0]","[0,0,0,0,0,0,0,0,0,0,0]","[2.359209999907762,2.975719999987632,3.692185000050813,4.125830000033602,4.609140000073239,5.641605000011623,6.22571499994956,7.325634999899194,7.842084999894723,8.608914999989793,9.375650000059977]","[""trial_ahead_box"",""trial_slight_left_box"",""trial_left_box"",""trial_sharp_left_box"",""trial_slight_right_box"",""trial_sharp_right_box"",""trial_right_box""]",0,42,42,19,1,boardwalk2.jpg,casino3.jpg,cafeteria1.jpg,castle4.jpg,,
Image_List_5,,,,,,,,,,,,,,,,44368,2020-11-23_19h54.48.972,lingCatScenes,2020.1.3,Win32,60,"[1280,720]",,,"[""trial_ahead_box"",""trial_slight_left_box"",""trial_sharp_left_box"",""trial_left_box"",""trial_slight_right_box"",""trial_right_box"",""trial_sharp_right_box""]",,,,,,,,,,,,rooftop2.jpg,space,9.164065,"[0.008333360072639254,-0.1833333123061392,-0.35925924347506627,-0.35925924347506627,-0.5898148059017129,-0.4509259128736125,-0.42499998617503376,0.21296299580070707,0.42222226129637824,0.6083333779540326]","[-0.32222224672635397,-0.31388891314466794,-0.29629637654181046,-0.29629637654181046,-0.2814815047714445,-0.2907408208206865,-0.2916666902601719,-0.29259261621369254,-0.29351859868124847,-0.2990741544023725]","[1,1,0,1,1,1,1,1,1,1]","[0,0,0,0,0,0,0,0,0,0]","[0,0,1,0,0,0,0,0,0,0]","[1.9071150000672787,2.5734650001395494,3.1243600000161678,3.5739700000267476,4.207154999952763,4.706550000002608,5.1635300000198185,6.156810000073165,6.9908750001341105,8.523909999988973]","[""trial_ahead_box"",""trial_slight_left_box"",""trial_sharp_left_box"",""trial_left_box"",""trial_slight_right_box"",""trial_right_box"",""trial_sharp_right_box""]",0,43,43,84,1,readingroom5.jpg,sidewalk2.jpg,restaurant13.jpg,sandDunes_desert_outdoor.jpg,,
Image_List_5,,,,,,,,,,,,,,,,44368,2020-11-23_19h54.48.972,lingCatScenes,2020.1.3,Win32,60,"[1280,720]",,,"[""trial_slight_right_box"",""trial_right_box""]",,,,,,,,,,,,warehouse1.jpg,space,7.942285,"[0.18425929124156634,0.38425929720203084]","[-0.31018526584462053,-0.3092592833770646]","[1,1]","[0,0]","[0,0]","[1.687679999973625,6.687625000020489]","[""trial_slight_right_box"",""trial_right_box""]",0,44,44,96,1,warehouse4.jpg,warehouseoutside1.jpg,tenniscourt3.jpg,windmill1.jpg,,
Image_List_5,,,,,,,,,,,,,,,,44368,2020-11-23_19h54.48.972,lingCatScenes,2020.1.3,Win32,60,"[1280,720]",,,"[""trial_slight_right_box"",""trial_ahead_box"",""trial_slight_left_box"",""trial_left_box"",""trial_sharp_left_box""]",,,,,,,,,,,,observatory2.jpg,space,11.547645,"[0.22222225533591378,0.009259286026159922,-0.19907405351599058,-0.39629628161589303,-0.5888888799481922]","[-0.30833335742354395,-0.3000000238418579,-0.3166666910052299,-0.2990741544023725,-0.3157408215657445]","[1,1,1,1,1]","[0,0,0,0,0]","[0,0,0,0,0]","[1.7756149999331683,2.7590299998410046,3.7746949999127537,5.642144999932498,6.858914999989793]","[""trial_slight_right_box"",""trial_ahead_box"",""trial_slight_left_box"",""trial_left_box"",""trial_sharp_left_box""]",0,45,45,79,1,pasture.jpg,poolhall2.jpeg,playground9.jpg,pier2.jpg,,
Image_List_5,,,,,,,,,,,,,,,,44368,2020-11-23_19h54.48.972,lingCatScenes,2020.1.3,Win32,60,"[1280,720]",,,"[""trial_ahead_box"",""trial_slight_right_box"",""trial_slight_left_box"",""trial_left_box"",""trial_right_box""]",,,,,,,,,,,,horsebarn9.jpg,space,7.2915,"[0.013888915793763267,0.2037037362655004,-0.21388886877232127,-0.4064814671046204,0.3935185567372375]","[-0.2888889123996099,-0.29629637654181046,-0.2990741544023725,-0.27685193151787646,-0.29629637654181046]","[1,1,1,1,1]","[0,0,0,0,0]","[0,0,0,0,0]","[3.5735500000882894,4.406055000144988,5.190219999989495,6.139280000003055,7.040200000163168]","[""trial_ahead_box"",""trial_slight_right_box"",""trial_slight_left_box"",""trial_left_box"",""trial_right_box""]",0,46,46,66,1,library_aisle10.jpg,office3.jpg,laundromat3.jpg,liquorstore.jpg,,
Image_List_5,,,,,,,,,,,,,,,,44368,2020-11-23_19h54.48.972,lingCatScenes,2020.1.3,Win32,60,"[1280,720]",,,"[""trial_ahead_box""]",,,,,,,,,,,,cabin3.jpg,space,2.223095,"[-0.010185158997774123,-0.0009258429485321864]","[-0.27222224523623784,-0.3129630437051825]","[1,1]","[0,0]","[0,0]","[1.3455149999354035,1.9789050000254065]","[""trial_ahead_box""]",0,47,47,31,1,cubicle4.jpg,desertvegetation6.jpg,conference4.jpg,courtroom2.jpg,,
Image_List_5,,,,,,,,,,,,,,,,44368,2020-11-23_19h54.48.972,lingCatScenes,2020.1.3,Win32,60,"[1280,720]",,,"[""trial_ahead_box""]",,,,,,,,,,,,apartmentBuilding3.jpg,space,1.320785,[-0.0009258429485321864],[-0.3129630437051825],[1],[0],[0],[0.9908649998251349],"[""trial_ahead_box""]",0,48,48,6,1,ATM1.jpg,banquetHall2.jpg,auto_showroom5.jpg,baggageClaim1.jpg,,
Image_List_5,,,,,,,,,,,,,,,,44368,2020-11-23_19h54.48.972,lingCatScenes,2020.1.3,Win32,60,"[1280,720]",,,"[""trial_ahead_box"",""trial_slight_left_box"",""trial_slight_right_box""]",,,,,,,,,,,,yogastudio1.jpg,space,3.202725,"[-0.0009258429485321864,-0.17870368253853586,0.20185188435845905]","[-0.3129630437051825,-0.30740748798405854,-0.3203703948193126]","[1,1,1]","[0,0,0]","[0,0,0]","[1.2420799999963492,1.974709999980405,2.7086350000463426]","[""trial_ahead_box"",""trial_slight_left_box"",""trial_slight_right_box""]",0,49,49,99,1,wineVineyard9.jpg,yogastudio4.jpg,windmill2.jpg,wrestlingring7.jpg,,
Image_List_5,,,,,,,,,,,,,,,,44368,2020-11-23_19h54.48.972,lingCatScenes,2020.1.3,Win32,60,"[1280,720]",,,"[""trial_left_box""]",,,,,,,,,,,,farm2.jpg,space,4.93024,[-0.3925925778018104],[-0.29259261621369254],[1],[0],[0],[3.0660200000274926],"[""trial_left_box""]",0,50,50,49,1,frontDoor3.jpg,greenhouse5.jpg,flowershop3.jpg,greenhouse.jpg,,
Image_List_5,,,,,,,,,,,,,,,,44368,2020-11-23_19h54.48.972,lingCatScenes,2020.1.3,Win32,60,"[1280,720]",,,"[""trial_right_box""]",,,,,,,,,,,,checkoutcounter9.jpg,space,3.845625,[0.3814815193414688],[-0.2944444681207339],[1],[0],[0],[2.1731950000394136],"[""trial_right_box""]",0,51,51,36,1,diner14.jpg,dormroom9.jpg,dining_car3.jpg,doctor1.jpg,,
Image_List_5,,,,,,,,,,,,,,,,44368,2020-11-23_19h54.48.972,lingCatScenes,2020.1.3,Win32,60,"[1280,720]",,,"[""trial_ahead_box""]",,,,,,,,,,,,warehouseoutside3.jpg,space,1.898535,[-0.002777751369608773],[-0.30740748798405854],[1],[0],[0],[1.5584299999754876],"[""trial_ahead_box""]",0,52,52,97,1,warehouseoutside4.jpg,wineVineyard2.jpg,waitingroom4.jpg,winebarrel3.jpg,,
Image_List_5,,,,,,,,,,,,,,,,44368,2020-11-23_19h54.48.972,lingCatScenes,2020.1.3,Win32,60,"[1280,720]",,,"[""trial_slight_right_box""]",,,,,,,,,,,,campusquad1.jpg,space,2.371795,[0.20462966221902107],[-0.30833335742354395],[1],[0],[0],[1.617460000095889],"[""trial_slight_right_box""]",0,53,53,34,1,deck4.jpg,diningroom5.jpg,courthouse4.jpg,diner11.jpg,,
Image_List_5,,,,,,,,,,,,,,,,44368,2020-11-23_19h54.48.972,lingCatScenes,2020.1.3,Win32,60,"[1280,720]",,,"[""trial_slight_right_box"",""trial_slight_left_box"",""trial_ahead_box""]",,,,,,,,,,,,diningroom3.jpg,space,4.59369,"[0.20555558817254171,-0.20648146114415591,-0.025925843693590245,-0.012036954390780213]","[-0.29351859868124847,-0.31388891314466794,-0.31388891314466794,-0.3055555795629819]","[1,1,1,1]","[0,0,0,0]","[0,0,0,0]","[1.421864999923855,2.32162500009872,3.3384499999228865,4.337915000040084]","[""trial_slight_right_box"",""trial_slight_left_box"",""trial_ahead_box""]",0,54,54,43,1,exerciseequipment5.jpg,forestpath10.jpg,dugout2.jpg,foodcourt.jpg,,
Image_List_5,,,,,,,,,,,,,,,,44368,2020-11-23_19h54.48.972,lingCatScenes,2020.1.3,Win32,60,"[1280,720]",,,"[""trial_sharp_right_box"",""trial_sharp_left_box""]",,,,,,,,,,,,fireplace4.jpg,space,5.71458,"[0.621296341303322,-0.6046296211580435]","[-0.31388891314466794,-0.30092594979537857]","[1,1]","[0,0]","[0,0]","[2.8594449998345226,4.492474999977276]","[""trial_sharp_right_box"",""trial_sharp_left_box""]",0,55,55,50,1,frontLawn4.jpg,grocerystore6.jpg,forestpath6.jpg,hallway2.jpg,,
Image_List_5,,,,,,,,,,,,,,,,44368,2020-11-23_19h54.48.972,lingCatScenes,2020.1.3,Win32,60,"[1280,720]",,,"[""trial_right_box""]",,,,,,,,,,,,bleachers6.jpg,space,2.58071,[0.39444448269075816],[-0.29722224598129593],[1],[0],[0],[2.224400000181049],"[""trial_right_box""]",0,56,56,23,1,bus_shelter.jpg,church8.jpg,carmechanic4.jpeg,cemetery3.jpg,,
Image_List_5,,,,,,,,,,,,,,,,44368,2020-11-23_19h54.48.972,lingCatScenes,2020.1.3,Win32,60,"[1280,720]",,,"[""trial_slight_right_box""]",,,,,,,,,,,,brewery2.jpg,space,3.26285,"[0.23425929273168247,0.2000000324514177]","[-0.31111113528410594,-0.3120370612376266]","[1,1]","[0,0]","[0,0]","[2.1585949999280274,2.9755450000520796]","[""trial_slight_right_box""]",0,57,57,27,1,castle3.jpg,courtroom3.jpg,churchInside4.jpg,closet.jpg,,
Image_List_5,,,,,,,,,,,,,,,,44368,2020-11-23_19h54.48.972,lingCatScenes,2020.1.3,Win32,60,"[1280,720]",,,"[""trial_right_box""]",,,,,,,,,,,,botanicalGarden7.jpg,space,4.6545,[0.4092592979470889],[-0.3157408215657445],[1],[0],[0],[2.0531450000125915],"[""trial_right_box""]",0,58,58,26,1,campusquad2.jpg,cornfield4.jpg,church4.jpg,churchInside3.jpg,,
Image_List_5,,,,,,,,,,,,,,,,44368,2020-11-23_19h54.48.972,lingCatScenes,2020.1.3,Win32,60,"[1280,720]",,,"[""trial_slight_right_box""]",,,,,,,,,,,,highway2.jpg,space,3.25987,[0.20555558817254171],[-0.2990741544023725],[1],[0],[0],[2.9580050001386553],"[""trial_slight_right_box""]",0,59,59,63,1,hut2.jpg,museum6.jpg,hotelRoom2.jpg,lab4.jpg,,
Image_List_5,,,,,,,,,,,,,,,,44368,2020-11-23_19h54.48.972,lingCatScenes,2020.1.3,Win32,60,"[1280,720]",,,"[""trial_sharp_left_box"",""trial_sharp_right_box""]",,,,,,,,,,,,fountain.jpg,space,5.74979,"[-0.6222222142749363,0.6296296748850081,0.6092594169356238]","[-0.28425928263200656,-0.28518526509956243,-0.2916666902601719]","[1,1,1]","[0,0,0]","[0,0,0]","[2.2711150001268834,3.7369350001681596,4.65336999995634]","[""trial_sharp_left_box"",""trial_sharp_right_box""]",0,60,60,53,1,gazebo3.jpg,homeoffice.jpg,frontLawn3.jpg,homegarage3.jpg,,
Image_List_5,,,,,,,,,,,,,,,,44368,2020-11-23_19h54.48.972,lingCatScenes,2020.1.3,Win32,60,"[1280,720]",,,"[""trial_slight_right_box""]",,,,,,,,,,,,jewelrystore.jpg,space,3.80371,[0.20462966221902107],[-0.2944444681207339],[1],[0],[0],[2.859404999995604],"[""trial_slight_right_box""]",0,61,61,71,1,metroInside2.jpg,pavilion5.jpg,metroInside3.jpg,museum3.jpg,,
Image_List_5,,,,,,,,,,,,,,,,44368,2020-11-23_19h54.48.972,lingCatScenes,2020.1.3,Win32,60,"[1280,720]",,,"[""trial_right_box"",""trial_slight_right_box"",""trial_ahead_box"",""trial_slight_left_box"",""trial_left_box"",""trial_sharp_left_box"",""trial_sharp_right_box""]",,,,,,,,,,,,tenniscourt.jpg,space,10.42662,"[0.42222226129637824,0.20092595840493838,0.016666693654325274,-0.1888888680272632,-0.41759257854686843,-0.41574069838280947,-0.4166666525933478,-0.6018518432974815,0.5814816383300038]","[-0.3129630437051825,-0.30833335742354395,-0.3055555795629819,-0.30833335742354395,-0.33148150626156064,-0.32500002458691596,-0.3027778017024199,-0.3055555795629819,-0.2953703940742546]","[1,1,1,1,1,1,1,1,1]","[0,0,0,0,0,0,0,0,0]","[0,0,0,0,0,0,0,0,0]","[2.309015000006184,3.6598799999337643,4.292385000037029,5.258804999990389,6.075889999978244,6.692544999998063,7.5086499999742955,8.77619000012055,10.1921999999322]","[""trial_right_box"",""trial_slight_right_box"",""trial_ahead_box"",""trial_slight_left_box"",""trial_left_box"",""trial_sharp_left_box"",""trial_sharp_right_box""]",0,62,62,93,1,tollbooth8.jpg,volleyballcourt4.jpg,staircase4.jpg,warehouseoutside2.jpg,,
Image_List_5,,,,,,,,,,,,,,,,44368,2020-11-23_19h54.48.972,lingCatScenes,2020.1.3,Win32,60,"[1280,720]",,,"[""trial_ahead_box"",""trial_slight_left_box"",""trial_slight_right_box""]",,,,,,,,,,,,ballroom3.jpg,space,4.484405,"[-0.009259176530218207,-0.012962936858336131,-0.21574072067936262,0.2157407736612691]","[-0.32592595054043666,-0.30370372765594056,-0.3018519322629345,-0.29351859868124847]","[1,1,1,1]","[0,0,0,0]","[0,0,0,0]","[1.874115000013262,2.6241399999707937,3.407575000077486,4.274555000010878]","[""trial_ahead_box"",""trial_slight_left_box"",""trial_slight_right_box""]",0,63,63,14,1,ballroom1.jpg,breakroom5.jpg,bistrooutdoor5.jpg,botanicalGarden5.jpg,,
Image_List_5,,,,,,,,,,,,,,,,44368,2020-11-23_19h54.48.972,lingCatScenes,2020.1.3,Win32,60,"[1280,720]",,,"[""trial_slight_right_box""]",,,,,,,,,,,,icecream2.jpg,space,2.705235,[0.20740744007958306],[-0.29351859868124847],[1],[0],[0],[1.2186749998945743],"[""trial_slight_right_box""]",0,64,64,69,1,liquorstore8.jpg,parkinglot2.jpg,livingroom.jpg,metroInside1.jpg,,
Image_List_5,,,,,,,,,,,,,,,,44368,2020-11-23_19h54.48.972,lingCatScenes,2020.1.3,Win32,60,"[1280,720]",,,"[""trial_right_box"",""trial_ahead_box""]",,,,,,,,,,,,amusement3.jpg,space,3.757615,"[0.3935185567372375,0.01111113793320126]","[-0.2916666902601719,-0.31018526584462053]","[1,1]","[0,0]","[0,0]","[2.1423349999822676,3.5415950000751764]","[""trial_right_box"",""trial_ahead_box""]",0,65,65,5,1,artStudio3.jpg,bambooforest.jpg,auto_showroom4.jpg,attic4.jpg,,
Image_List_5,,,,,,,,,,,,,,,,44368,2020-11-23_19h54.48.972,lingCatScenes,2020.1.3,Win32,60,"[1280,720]",,,"[""trial_slight_right_box"",""trial_ahead_box""]",,,,,,,,,,,,beach1.jpeg,space,4.366955,"[0.19351855077677302,0.01111113793320126]","[-0.3092592833770646,-0.30833335742354395]","[1,1]","[0,0]","[0,0]","[1.484470000024885,4.111040000105277]","[""trial_slight_right_box"",""trial_ahead_box""]",0,66,66,21,1,botanicalGarden6.jpg,cemetery6.jpg,campusquad3.jpg,cave5.jpg,,
Image_List_5,,,,,,,,,,,,,,,,44368,2020-11-23_19h54.48.972,lingCatScenes,2020.1.3,Win32,60,"[1280,720]",,,"[""trial_ahead_box"",""trial_left_box"",""trial_right_box""]",,,,,,,,,,,,cabin4.jpg,space,8.168065,"[-0.010185158997774123,-0.4203703564074304,0.4240741132034196]","[-0.3055555795629819,-0.30370372765594056,-0.2879630429601245]","[1,1,1]","[0,0,0]","[0,0,0]","[3.3303199999500066,6.396324999863282,7.930434999987483]","[""trial_ahead_box"",""trial_left_box"",""trial_right_box""]",0,67,67,32,1,dancestudio6.jpg,diner12.jpg,constructionSite2.jpg,dentist4.jpg,,
Image_List_5,,,,,,,,,,,,,,,,44368,2020-11-23_19h54.48.972,lingCatScenes,2020.1.3,Win32,60,"[1280,720]",,,"[""trial_ahead_box""]",,,,,,,,,,,,readingroom2.jpg,space,4.468195,[0.023148175328969955],[-0.2907408208206865],[1],[0],[0],[1.3105649999342859],"[""trial_ahead_box""]",0,68,68,83,1,readingroom1.jpg,sculpturegarden1.jpg,promenadeDeck6.jpg,restaurant8.jpg,,
Image_List_5,,,,,,,,,,,,,,,,44368,2020-11-23_19h54.48.972,lingCatScenes,2020.1.3,Win32,60,"[1280,720]",,,"[""trial_ahead_box"",""trial_slight_left_box"",""trial_left_box"",""trial_slight_right_box"",""trial_right_box"",""trial_sharp_right_box""]",,,,,,,,,,,,basketballcourt7.jpg,space,10.939395,"[0.02037039746840795,-0.1925925718413459,-0.3953703556623724,0.20185188435845905,0.3935185567372375,0.3814815193414688,0.5842594161905658]","[-0.2879630429601245,-0.2907408208206865,-0.3046297101234965,-0.2907408208206865,-0.33796304445024056,-0.30833335742354395,-0.3046297101234965]","[1,1,1,1,1,1,1]","[0,0,0,0,0,0,0]","[0,0,0,0,0,0,0]","[5.9556799998972565,6.923089999938384,7.856414999812841,8.939874999923632,9.489579999819398,10.006264999974519,10.555689999833703]","[""trial_ahead_box"",""trial_slight_left_box"",""trial_left_box"",""trial_slight_right_box"",""trial_right_box"",""trial_sharp_right_box""]",0,69,69,20,1,boardwalk6.jpg,cave.jpg,campsite3.jpg,cave4.jpg,,
Image_List_5,,,,,,,,,,,,,,,,44368,2020-11-23_19h54.48.972,lingCatScenes,2020.1.3,Win32,60,"[1280,720]",,,"[""trial_left_box""]",,,,,,,,,,,,pasture8.jpg,space,2.85705,[-0.41481480068630644],[-0.29351859868124847],[1],[0],[0],[2.5544600000139326],"[""trial_left_box""]",0,70,70,81,1,promenadeDeck.jpg,ruralroad5.jpg,promenadeDeck2.jpg,rainforest5.jpg,,
Image_List_5,,,,,,,,,,,,,,,,44368,2020-11-23_19h54.48.972,lingCatScenes,2020.1.3,Win32,60,"[1280,720]",,,"[""trial_ahead_box"",""trial_sharp_right_box""]",,,,,,,,,,,,sidewalk3.jpg,space,4.58505,"[-0.042592510856962286,0.003703730305035909,0.6240741191638841]","[-0.29629637654181046,-0.30833335742354395,-0.31481483909818864]","[1,1,1]","[0,0,0]","[0,0,0]","[2.0246300001163036,2.3420600001700222,4.041145000141114]","[""trial_ahead_box"",""trial_sharp_right_box""]",0,71,71,91,1,shoestore2.jpg,trainStation5.jpg,skatepark5.jpg,ticket_counter6.jpg,,
Image_List_5,,,,,,,,,,,,,,,,44368,2020-11-23_19h54.48.972,lingCatScenes,2020.1.3,Win32,60,"[1280,720]",,,"[""trial_slight_right_box"",""trial_left_box""]",,,,,,,,,,,,applestore4.jpg,space,4.222215,"[0.1944444767302937,-0.4027777632905377]","[-0.30833335742354395,-0.28333335667848586]","[1,1]","[0,0]","[0,0]","[1.8422600000631064,3.2589799999259412]","[""trial_slight_right_box"",""trial_left_box""]",0,72,72,8,1,attic3.jpg,banquetHall6.jpg,balconyIN.jpg,bar.jpg,,
Image_List_5,,,,,,,,,,,,,,,,44368,2020-11-23_19h54.48.972,lingCatScenes,2020.1.3,Win32,60,"[1280,720]",,,"[""trial_ahead_box"",""trial_slight_right_box"",""trial_left_box""]",,,,,,,,,,,,basement6.jpg,space,6.21892,"[0.01018526849371584,0.20833336603310373,-0.41574069838280947]","[-0.30740748798405854,-0.2981481719348166,-0.31388891314466794]","[1,1,1]","[0,0,0]","[0,0,0]","[2.67538999998942,3.8079350001644343,5.941809999989346]","[""trial_ahead_box"",""trial_slight_right_box"",""trial_left_box""]",0,73,73,18,1,bleachers5.jpg,casino1.jpg,brewery4.jpg,castle2.jpg,,
Image_List_5,,,,,,,,,,,,,,,,44368,2020-11-23_19h54.48.972,lingCatScenes,2020.1.3,Win32,60,"[1280,720]",,,"[""trial_left_box"",""trial_slight_right_box"",""trial_right_box""]",,,,,,,,,,,,clothingstore3.jpg,space,7.844485,"[-0.3944444297088517,0.2064815141260624,0.3990741124583615]","[-0.29629637654181046,-0.3000000238418579,-0.2888889123996099]","[1,1,1]","[0,0,0]","[0,0,0]","[2.9301449998747557,4.237379999831319,7.179514999967068]","[""trial_left_box"",""trial_slight_right_box"",""trial_right_box""]",0,74,74,40,1,drycleaners4.jpg,farm1.jpg,drymountains.jpg,dugout1.jpg,,
Image_List_5,,,,,,,,,,,,,,,,44368,2020-11-23_19h54.48.972,lingCatScenes,2020.1.3,Win32,60,"[1280,720]",,,"[""trial_ahead_box"",""trial_sharp_left_box"",""trial_sharp_right_box""]",,,,,,,,,,,,carmechanic2.jpg,space,5.893285,"[-0.01481473225134222,0.5787038604694418,-0.5851851761341095,0.6222222672568427]","[-0.31018526584462053,-0.33518526658967857,-0.3000000238418579,-0.3027778017024199]","[1,1,1,1]","[0,0,0,0]","[0,0,0,0]","[1.855974999954924,3.155660000164062,4.3391200001351535,5.405514999991283]","[""trial_ahead_box"",""trial_sharp_left_box"",""trial_sharp_right_box""]",0,75,75,35,1,deck5.jpg,dock3.jpg,cubicle7.jpg,dining_car6.jpg,,
Image_List_5,,,,,,,,,,,,,,,,44368,2020-11-23_19h54.48.972,lingCatScenes,2020.1.3,Win32,60,"[1280,720]",,,"[""trial_right_box"",""trial_left_box""]",,,,,,,,,,,,applestore2.jpg,space,3.81159,"[0.38703707506259283,-0.37592591063843833]","[-0.2990741544023725,-0.29629637654181046]","[1,1]","[0,0]","[0,0]","[2.2306500000413507,3.513630000175908]","[""trial_right_box"",""trial_left_box""]",0,76,76,7,1,attic2.jpg,banquetHall4.jpg,backstage1.jpg,baggageClaim3.jpg,,
Image_List_5,,,,,,,,,,,,,,,,44368,2020-11-23_19h54.48.972,lingCatScenes,2020.1.3,Win32,60,"[1280,720]",,,"[""trial_slight_right_box"",""trial_right_box"",""trial_sharp_left_box"",""trial_sharp_right_box"",""trial_ahead_box""]",,,,,,,,,,,,lightingstore2.jpg,space,9.41184,"[0.21018521794014508,0.3990741124583615,-0.6129629547397296,0.5981483054933758,0.025000027236011295,0.025000027236011295,-0.004629603276650111]","[-0.2944444681207339,-0.28611113453904785,-0.29722224598129593,-0.2981481719348166,-0.30833335742354395,-0.30833335742354395,-0.3064815055165026]","[1,1,1,1,1,1,1]","[0,0,0,0,0,0,0]","[0,0,0,0,0,0,0]","[2.025285000214353,2.8753800000995398,4.176505000097677,6.608670000219718,7.791365000186488,8.358565000118688,9.10867500002496]","[""trial_slight_right_box"",""trial_right_box"",""trial_sharp_left_box"",""trial_sharp_right_box"",""trial_ahead_box""]",0,77,77,74,1,newsstand2.jpg,playground10.jpg,observatory4.jpeg,operatingroom1.jpg,,
Image_List_5,,,,,,,,,,,,,,,,44368,2020-11-23_19h54.48.972,lingCatScenes,2020.1.3,Win32,60,"[1280,720]",,,"[""trial_ahead_box"",""trial_sharp_left_box"",""trial_left_box"",""trial_slight_left_box"",""trial_slight_right_box"",""trial_right_box"",""trial_sharp_right_box""]",,,,,,,,,,,,hayfield7.jpg,space,7.68178,"[-0.004629603276650111,-0.5861111020876302,-0.4055555411510997,-0.21574072067936262,0.23796299654576514,0.21481484770774842,0.40092596436540284,0.5777778214878506]","[-0.3064815055165026,-0.2981481719348166,-0.3064815055165026,-0.3055555795629819,-0.27962970937843845,-0.28333335667848586,-0.28425928263200656,-0.2990741544023725]","[1,1,1,1,1,1,1,1]","[0,0,0,0,0,0,0,0]","[0,0,0,0,0,0,0,0]","[1.4424550000112504,2.475675000110641,3.091825000010431,4.0756049999035895,5.165585000067949,5.593785000033677,6.475540000014007,7.425610000034794]","[""trial_ahead_box"",""trial_sharp_left_box"",""trial_left_box"",""trial_slight_left_box"",""trial_slight_right_box"",""trial_right_box"",""trial_sharp_right_box""]",0,78,78,62,1,hotellobby2.jpg,minigolf.jpg,horsebarn8.jpg,lab3.jpg,,
Image_List_5,,,,,,,,,,,,,,,,44368,2020-11-23_19h54.48.972,lingCatScenes,2020.1.3,Win32,60,"[1280,720]",,,"[""trial_right_box"",""trial_slight_left_box"",""trial_left_box"",""trial_sharp_left_box"",""trial_slight_right_box"",""trial_sharp_right_box""]",,,,,,,,,,,,parkinggarage4.jpg,space,9.568985,"[0.4138889277146922,-0.19074071993430455,-0.3703703549173143,-0.3916666518482897,-0.6018518432974815,0.21111114389366573,0.6166667115357187]","[-0.3064815055165026,-0.29629637654181046,-0.30740748798405854,-0.30740748798405854,-0.3129630437051825,-0.31018526584462053,-0.31018526584462053]","[1,1,1,1,1,1,1]","[0,0,0,0,0,0,0]","[0,0,0,0,0,0,0]","[2.6874100000131875,4.149154999991879,5.114115000003949,5.831100000068545,6.698104999959469,8.155100000090897,9.31340999994427]","[""trial_right_box"",""trial_slight_left_box"",""trial_left_box"",""trial_sharp_left_box"",""trial_slight_right_box"",""trial_sharp_right_box""]",0,79,79,80,1,pavilion2.jpg,racecarcourse2.jpg,porch.jpg,poolhall5.jpg,,
Image_List_5,,,,,,,,,,,,,,,,44368,2020-11-23_19h54.48.972,lingCatScenes,2020.1.3,Win32,60,"[1280,720]",,,"[""trial_slight_right_box"",""trial_right_box"",""trial_slight_left_box"",""trial_ahead_box""]",,,,,,,,,,,,backyard5.jpg,space,7.46947,"[0.19259262482325237,0.4101852239006095,-0.20277775733007325,-0.01481473225134222]","[-0.31111113528410594,-0.3120370612376266,-0.2981481719348166,-0.3046297101234965]","[1,1,1,1]","[0,0,0,0]","[0,0,0,0]","[2.0753599999006838,3.4092749999836087,4.375234999926761,7.259059999836609]","[""trial_slight_right_box"",""trial_right_box"",""trial_slight_left_box"",""trial_ahead_box""]",0,80,80,12,1,baggageClaim4.jpg,bedroom6.jpg,bambooforest5.jpg,bleachers7.jpg,,
Image_List_5,,,,,,,,,,,,,,,,44368,2020-11-23_19h54.48.972,lingCatScenes,2020.1.3,Win32,60,"[1280,720]",,,"[""trial_ahead_box"",""trial_slight_left_box""]",,,,,,,,,,,,ATM4.jpg,space,4.14664,"[-0.01481473225134222,-0.19907405351599058]","[-0.3046297101234965,-0.3055555795629819]","[1,1]","[0,0]","[0,0]","[1.1755850000772625,2.5492899999953806]","[""trial_ahead_box"",""trial_slight_left_box""]",0,81,81,10,1,backstage2.jpg,barbershop3.jpg,ballroom4.jpg,basketballcourt3.jpg,,
Image_List_5,,,,,,,,,,,,,,,,44368,2020-11-23_19h54.48.972,lingCatScenes,2020.1.3,Win32,60,"[1280,720]",,,"[""trial_ahead_box"",""trial_slight_right_box""]",,,,,,,,,,,,dormroom6.jpg,space,2.710845,"[0.01203706388672193,0.19537040268381436]","[-0.2888889123996099,-0.3157408215657445]","[1,1]","[0,0]","[0,0]","[1.3408699999563396,2.397734999889508]","[""trial_ahead_box"",""trial_slight_right_box""]",0,82,82,46,1,flowershop.jpg,frontLawn5.jpg,farmersmarket4.jpg,fountain4.jpg,,
Image_List_5,,,,,,,,,,,,,,,,44368,2020-11-23_19h54.48.972,lingCatScenes,2020.1.3,Win32,60,"[1280,720]",,,"[""trial_sharp_left_box"",""trial_left_box"",""trial_slight_right_box"",""trial_right_box"",""trial_sharp_right_box""]",,,,,,,,,,,,hayfield6.jpg,space,11.07985,"[-0.6138888806932502,-0.4379629212673055,-0.4166666525933478,-0.19166664588782523,-0.2046296092371146,0.19629632863733504,0.4212963353428576,0.5537038597243837,0.6000000443723467]","[-0.2953703940742546,-0.29629637654181046,-0.2981481719348166,-0.28611113453904785,-0.29351859868124847,-0.29351859868124847,-0.32129637728686855,-0.31851859942630656,-0.3018519322629345]","[1,1,1,1,1,1,1,1,1]","[0,0,0,0,0,0,0,0,0]","[0,0,0,0,0,0,0,0,0]","[2.1700550001114607,2.9035799999255687,3.2700400000903755,3.7909850000869483,4.670015000039712,6.5033950000070035,7.50351499998942,7.953380000079051,8.402759999968112]","[""trial_sharp_left_box"",""trial_left_box"",""trial_slight_left_box"",""trial_slight_left_box"",""trial_slight_right_box"",""trial_right_box"",""trial_sharp_right_box""]",0,83,83,61,1,HorseRaceTrack.jpg,metroInside4.jpg,homegarden6.jpg,kindergarten_classroom7.jpg,,
Image_List_5,,,,,,,,,,,,,,,,44368,2020-11-23_19h54.48.972,lingCatScenes,2020.1.3,Win32,60,"[1280,720]",,,"[""trial_slight_right_box"",""trial_right_box"",""trial_sharp_right_box"",""trial_slight_left_box"",""trial_left_box"",""trial_sharp_left_box""]",,,,,,,,,,,,rooftop3.jpg,space,7.206385,"[0.21481484770774842,0.41574077962173356,0.5861111550695366,-0.1953703497019079,-0.4240740319644955,-0.5962962875763576]","[-0.30740748798405854,-0.31759261695875063,-0.30833335742354395,-0.2888889123996099,-0.2990741544023725,-0.30370372765594056]","[1,1,1,1,1,1]","[0,0,0,0,0,0]","[0,0,0,0,0,0]","[1.9225500000175089,2.4899599999189377,3.056639999849722,3.973370000021532,4.43976500001736,6.8565899999812245]","[""trial_slight_right_box"",""trial_right_box"",""trial_sharp_right_box"",""trial_slight_left_box"",""trial_left_box"",""trial_sharp_left_box""]",0,84,84,85,1,recordingstudio4.jpg,sidewalk5.jpg,ruralroad2.jpg,sandDunes_desert_outdoor3.jpg,,
Image_List_5,,,,,,,,,,,,,,,,44368,2020-11-23_19h54.48.972,lingCatScenes,2020.1.3,Win32,60,"[1280,720]",,,"[""trial_ahead_box"",""trial_right_box"",""trial_left_box""]",,,,,,,,,,,,frontFoyer.jpg,space,5.6476,"[-0.007407381137212118,0.4101852239006095,-0.3981481335229344]","[-0.3092592833770646,-0.2990741544023725,-0.30370372765594056]","[1,1,1]","[0,0,0]","[0,0,0]","[1.2926199999637902,3.158979999832809,4.192304999800399]","[""trial_ahead_box"",""trial_right_box"",""trial_left_box""]",0,85,85,54,1,greenhouse2.jpg,horsebarn11.jpg,gazebo2.jpg,homegarage4.jpg,,
Image_List_5,,,,,,,,,,,,,,,,44368,2020-11-23_19h54.48.972,lingCatScenes,2020.1.3,Win32,60,"[1280,720]",,,"[""trial_slight_right_box""]",,,,,,,,,,,,trainStation3.jpg,space,2.819165,[0.19907410649789703],[-0.30370372765594056],[1],[0],[0],[2.0087000001221895],"[""trial_slight_right_box""]",0,86,86,94,1,treehouse.jpg,waitingroom3.jpg,staircase6.jpg,weightroom.jpg,,
Image_List_5,,,,,,,,,,,,,,,,44368,2020-11-23_19h54.48.972,lingCatScenes,2020.1.3,Win32,60,"[1280,720]",,,"[""trial_slight_right_box"",""trial_ahead_box"",""trial_slight_left_box""]",,,,,,,,,,,,cliff5.jpg,space,6.584425,"[0.18148151338100432,-0.016666640672418805,-0.2074073870976766]","[-0.30092594979537857,-0.2990741544023725,-0.2990741544023725]","[1,1,1]","[0,0,0]","[0,0,0]","[2.995295000029728,4.1269000000320375,5.543460000073537]","[""trial_slight_right_box"",""trial_ahead_box"",""trial_slight_left_box""]",0,87,87,39,1,driveway6.jpg,eyeglassstore9.jpg,drycleaners6.jpg,drymountains5.jpg,,
Image_List_5,,,,,,,,,,,,,,,,44368,2020-11-23_19h54.48.972,lingCatScenes,2020.1.3,Win32,60,"[1280,720]",,,"[""trial_slight_left_box"",""trial_ahead_box""]",,,,,,,,,,,,grocerystore3.jpg,space,5.045505,"[-0.20833331305119726,-0.002777751369608773]","[-0.31111113528410594,-0.2944444681207339]","[1,1]","[0,0]","[0,0]","[1.944215000141412,4.777690000133589]","[""trial_slight_left_box"",""trial_ahead_box""]",0,88,88,59,1,homegarden7.jpg,library_aisle8.jpg,highway4.jpg,kindergarten_classroom5.jpg,,
Image_List_5,,,,,,,,,,,,,,,,44368,2020-11-23_19h54.48.972,lingCatScenes,2020.1.3,Win32,60,"[1280,720]",,,"[""trial_ahead_box"",""trial_sharp_left_box"",""trial_sharp_right_box""]",,,,,,,,,,,,airportTerminal6.jpg,space,5.604665,"[-0.002777751369608773,-0.5870370280411509,0.5777778214878506]","[-0.2944444681207339,-0.2990741544023725,-0.30833335742354395]","[1,1,1]","[0,0,0]","[0,0,0]","[1.2793499999679625,3.396100000012666,4.761859999969602]","[""trial_ahead_box"",""trial_sharp_left_box"",""trial_sharp_right_box""]",0,89,89,2,1,alley1.jpg,arcade1.jpg,applestore6.jpg,apartmentBuilding4.jpg,,
Image_List_5,,,,,,,,,,,,,,,,44368,2020-11-23_19h54.48.972,lingCatScenes,2020.1.3,Win32,60,"[1280,720]",,,"[""trial_ahead_box"",""trial_slight_left_box"",""trial_slight_right_box""]",,,,,,,,,,,,firestation5.jpg,space,3.97837,"[0.024074157796525872,-0.2046296092371146,0.2037037362655004]","[-0.31481483909818864,-0.3000000238418579,-0.31388891314466794]","[1,1,1]","[0,0,0]","[0,0,0]","[1.5923450000118464,2.6425350001081824,3.6249750000424683]","[""trial_ahead_box"",""trial_slight_left_box"",""trial_slight_right_box""]",0,90,90,51,1,gasstation6.jpg,hallway5.jpg,frontDoor5.jpg,hayfield4.jpg,,
Image_List_5,,,,,,,,,,,,,,,,44368,2020-11-23_19h54.48.972,lingCatScenes,2020.1.3,Win32,60,"[1280,720]",,,"[""trial_slight_left_box"",""trial_ahead_box""]",,,,,,,,,,,,elevatorOutside2.jpg,space,3.67282,"[-0.2185184985399246,-0.009259176530218207]","[-0.31481483909818864,-0.32222224672635397]","[1,1]","[0,0]","[0,0]","[2.335899999830872,3.252579999854788]","[""trial_slight_left_box"",""trial_ahead_box""]",0,91,91,47,1,frontDoor.jpg,gasstation8.jpg,firestation4.jpg,fountain7.jpg,,
Image_List_5,,,,,,,,,,,,,,,,44368,2020-11-23_19h54.48.972,lingCatScenes,2020.1.3,Win32,60,"[1280,720]",,,"[""trial_ahead_box""]",,,,,,,,,,,,bistrooutdoor6.jpg,space,4.7731,[-0.009259176530218207],[-0.32222224672635397],[1],[0],[0],[1.4422400000039488],"[""trial_ahead_box""]",0,92,92,22,1,bowlingalley5.jpg,church6.jpg,cargo5.jpg,cemetery.jpg,,
Image_List_5,,,,,,,,,,,,,,,,44368,2020-11-23_19h54.48.972,lingCatScenes,2020.1.3,Win32,60,"[1280,720]",,,"[""trial_ahead_box"",""trial_slight_left_box"",""trial_slight_right_box"",""trial_left_box""]",,,,,,,,,,,,hospitalroom3.jpg,space,4.955355,"[-0.008333307090732786,-0.21944442449344528,0.21111114389366573,-0.40833331901166176]","[-0.29351859868124847,-0.3000000238418579,-0.2981481719348166,-0.30833335742354395]","[1,1,1,1]","[0,0,0,0]","[0,0,0,0]","[1.29098999989219,2.1410300000570714,3.2742749999742955,4.374159999890253]","[""trial_ahead_box"",""trial_slight_left_box"",""trial_slight_right_box"",""trial_left_box""]",0,93,93,68,1,liquorstore7.jpg,parkinglot.jpg,lightingstore4.jpg,lockerroom2.jpg,,
Image_List_5,,,,,,,,,,,,,,,,44368,2020-11-23_19h54.48.972,lingCatScenes,2020.1.3,Win32,60,"[1280,720]",,,"[""trial_right_box"",""trial_slight_left_box""]",,,,,,,,,,,,cabinIndoors5.jpg,space,13.378545,"[0.00277780435151524,0.21388892175422775,-0.010185158997774123,0.42592596511046094,0.4027778162724442,0.19814818054437638,-0.22685183212161064,-0.1833333123061392]","[-0.29722224598129593,-0.30833335742354395,-0.27962970937843845,-0.3055555795629819,-0.30740748798405854,-0.31018526584462053,-0.3046297101234965,-0.29351859868124847]","[1,1,1,1,1,1,1,1]","[0,0,0,0,0,0,0,0]","[0,0,0,0,0,0,0,0]","[2.1963500001002103,3.8305200000759214,5.56368500017561,6.779590000165626,7.396930000046268,8.446950000012293,12.063354999991134,13.08030500006862]","[""trial_ahead_box"",""trial_slight_right_box"",""trial_ahead_box"",""trial_right_box"",""trial_slight_right_box"",""trial_slight_left_box""]",0,94,94,33,1,deck1.jpg,diningroom1.jpg,courthouse2.jpg,diner10.jpg,,
Image_List_5,,,,,,,,,,,,,,,,44368,2020-11-23_19h54.48.972,lingCatScenes,2020.1.3,Win32,60,"[1280,720]",,,"[""trial_ahead_box""]",,,,,,,,,,,,library_aisle9.jpg,space,1.61015,[-0.009259176530218207],[-0.30092594979537857],[1],[0],[0],[1.347414999967441],"[""trial_ahead_box""]",0,95,95,73,1,musicStore3.jpg,photographer_studio2.jpg,nursery.jpg,nursery4.jpg,,
Image_List_5,,,,,,,,,,,,,,,,44368,2020-11-23_19h54.48.972,lingCatScenes,2020.1.3,Win32,60,"[1280,720]",,,"[""trial_right_box""]",,,,,,,,,,,,desertvegetation2.jpg,space,2.758925,[0.38055559338794814],[-0.3120370612376266],[1],[0],[0],[2.508430000161752],"[""trial_right_box""]",0,96,96,42,1,exerciseequipment3.jpg,firestation3.jpg,drymountains6.jpg,farm4.jpg,,
Image_List_5,,,,,,,,,,,,,,,,44368,2020-11-23_19h54.48.972,lingCatScenes,2020.1.3,Win32,60,"[1280,720]",,,"[""trial_ahead_box"",""trial_slight_left_box"",""trial_slight_right_box""]",,,,,,,,,,,,homeoffice8.jpg,space,5.977695,"[0.007407490633153833,-0.18148146039909788,0.18888892100916968]","[-0.2777778009573619,-0.2916666902601719,-0.3027778017024199]","[1,1,1]","[0,0,0]","[0,0,0]","[2.3594799998681992,4.177194999996573,5.759324999991804]","[""trial_ahead_box"",""trial_slight_left_box"",""trial_slight_right_box""]",0,97,97,65,1,igloo5.jpg,newsstand7.jpg,laundromat2.jpeg,labClass7.jpg,,
Image_List_5,,,,,,,,,,,,,,,,44368,2020-11-23_19h54.48.972,lingCatScenes,2020.1.3,Win32,60,"[1280,720]",,,"[""trial_ahead_box"",""trial_slight_left_box"",""trial_left_box"",""trial_sharp_left_box"",""trial_slight_right_box""]",,,,,,,,,,,,frontLawn2.jpg,space,7.29945,"[-0.011111084951294793,-0.19722220160894924,-0.36666665110323166,-0.38703702208068635,-0.5925925837622749,0.20092595840493838]","[-0.30833335742354395,-0.31759261695875063,-0.31018526584462053,-0.3092592833770646,-0.29722224598129593,-0.3055555795629819]","[1,1,1,1,1,1]","[0,0,0,0,0,0]","[0,0,0,0,0,0]","[1.286240000044927,2.086484999861568,3.569789999863133,4.319744999986142,5.236234999960288,6.50304999994114]","[""trial_ahead_box"",""trial_slight_left_box"",""trial_left_box"",""trial_sharp_left_box"",""trial_slight_right_box""]",0,98,98,55,1,greenmountains.jpg,hotelRoom3.jpg,gazebo5.jpg,hotelRoom7.jpg,,
Image_List_5,,,,,,,,,,,,,,,,44368,2020-11-23_19h54.48.972,lingCatScenes,2020.1.3,Win32,60,"[1280,720]",,,"[""trial_ahead_box""]",,,,,,,,,,,,lookout4.jpg,space,2.34475,[0.015740824214839855],[-0.2916666902601719],[1],[0],[0],[1.6800500000827014],"[""trial_ahead_box""]",0,99,99,76,1,parkinggarage.jpg,playroom4.jpg,parkinggarage3.jpg,park2.jpg,,
Image_List_5,,,,,,,,,,,,,,,,44368,2020-11-23_19h54.48.972,lingCatScenes,2020.1.3,Win32,60,,,,,,,,,,,,,,,,,,,,,,,,,,,,,,,,,,,space,13.46535
