image_list,key_resp_intructions.keys,key_resp_intructions.rt,key_resp_intructions_3.keys,key_resp_intructions_3.rt,PracticeComplete_2.keys,PracticeComplete_2.rt,PracticeComplete_3.keys,PracticeComplete_3.rt,demo_trials.thisRepN,demo_trials.thisTrialN,demo_trials.thisN,demo_trials.thisIndex,demo_trials.ran,demo_images,path_images,participant,date,expName,psychopyVersion,OS,frameRate,windowSize,practice_complete.keys,practice_complete.rt,boxes_checked,PracticeComplete.keys,PracticeComplete.rt,practice_trials.thisRepN,practice_trials.thisTrialN,practice_trials.thisN,practice_trials.thisIndex,practice_trials.ran,practice_images,feedback_images,key_resp_intructions_2.keys,key_resp_intructions_2.rt,Image_List_5,trial_complete.keys,trial_complete.rt,trial_mouse.x,trial_mouse.y,trial_mouse.leftButton,trial_mouse.midButton,trial_mouse.rightButton,trial_mouse.time,trial_mouse.clicked_name,trials.thisRepN,trials.thisTrialN,trials.thisN,trials.thisIndex,trials.ran,Image_List_1,Image_List_2,Image_List_3,Image_List_4,key_resp.keys,key_resp.rt
Image_List_5,space,16.777,space,7.778,space,21.092,space,7.94,0,0,0,3,1,ahead_right_left.jpg,ahead_right_left_path.jpg,44365,2020-11-23_00h18.51.613,lingCatScenes,2020.1.3,MacIntel,60,,,,,,,,,,,,,,,,,,,,,,,,,,,,,,,,,,,,
Image_List_5,,,,,space,8.872,space,3.782,0,1,1,0,1,ahead.jpg,ahead_path.jpg,44365,2020-11-23_00h18.51.613,lingCatScenes,2020.1.3,MacIntel,60,,,,,,,,,,,,,,,,,,,,,,,,,,,,,,,,,,,,
Image_List_5,,,,,space,2.693,space,3.907,0,2,2,4,1,left.jpg,left_path.jpg,44365,2020-11-23_00h18.51.613,lingCatScenes,2020.1.3,MacIntel,60,,,,,,,,,,,,,,,,,,,,,,,,,,,,,,,,,,,,
Image_List_5,,,,,space,3.845,space,7.431,0,3,3,2,1,ahead_right.jpg,ahead_right_path.jpg,44365,2020-11-23_00h18.51.613,lingCatScenes,2020.1.3,MacIntel,60,,,,,,,,,,,,,,,,,,,,,,,,,,,,,,,,,,,,
Image_List_5,,,,,space,7.033,space,2.026,0,4,4,5,1,right.jpg,right_path.jpg,44365,2020-11-23_00h18.51.613,lingCatScenes,2020.1.3,MacIntel,60,,,,,,,,,,,,,,,,,,,,,,,,,,,,,,,,,,,,
Image_List_5,,,,,space,2.392,space,3.008,0,5,5,6,1,right_left.jpg,right_left_path.jpg,44365,2020-11-23_00h18.51.613,lingCatScenes,2020.1.3,MacIntel,60,,,,,,,,,,,,,,,,,,,,,,,,,,,,,,,,,,,,
Image_List_5,,,,,space,3.208,space,2.821,0,6,6,1,1,ahead_left.jpg,ahead_left_path.jpg,44365,2020-11-23_00h18.51.613,lingCatScenes,2020.1.3,MacIntel,60,,,,,,,,,,,,,,,,,,,,,,,,,,,,,,,,,,,,
Image_List_5,,,,,,,,,,,,,,,,44365,2020-11-23_00h18.51.613,lingCatScenes,2020.1.3,MacIntel,60,"[1440,900]",space,4.243,[],space,3.405,0,0,0,4,1,left_2.jpg,left_2_path.jpg,,,,,,,,,,,,,,,,,,,,,,,
Image_List_5,,,,,,,,,,,,,,,,44365,2020-11-23_00h18.51.613,lingCatScenes,2020.1.3,MacIntel,60,"[1440,900]",space,16.572,"[""ahead_box"",""sharp_right_box""]",space,6.036,0,1,1,2,1,ahead_right_2.jpg,ahead_right_2_path.jpg,,,,,,,,,,,,,,,,,,,,,,,
Image_List_5,,,,,,,,,,,,,,,,44365,2020-11-23_00h18.51.613,lingCatScenes,2020.1.3,MacIntel,60,"[1440,900]",space,12.259,"[""left_box"",""right_box""]",space,2.301,0,2,2,6,1,right_left_2.jpg,right_left_2_path.jpg,,,,,,,,,,,,,,,,,,,,,,,
Image_List_5,,,,,,,,,,,,,,,,44365,2020-11-23_00h18.51.613,lingCatScenes,2020.1.3,MacIntel,60,"[1440,900]",space,5.024,"[""ahead_box""]",space,4.808,0,3,3,1,1,ahead_left_2.jpg,ahead_left_2_path.jpg,,,,,,,,,,,,,,,,,,,,,,,
Image_List_5,,,,,,,,,,,,,,,,44365,2020-11-23_00h18.51.613,lingCatScenes,2020.1.3,MacIntel,60,"[1440,900]",space,11.16,"[""ahead_box"",""right_box"",""left_box""]",space,2.786,0,4,4,3,1,ahead_right_left_2.jpg,ahead_right_left_2_path.jpg,,,,,,,,,,,,,,,,,,,,,,,
Image_List_5,,,,,,,,,,,,,,,,44365,2020-11-23_00h18.51.613,lingCatScenes,2020.1.3,MacIntel,60,"[1440,900]",space,5.747,"[""right_box""]",space,1.932,0,5,5,5,1,right_2.jpg,right_2_path.jpg,,,,,,,,,,,,,,,,,,,,,,,
Image_List_5,,,,,,,,,,,,,,,,44365,2020-11-23_00h18.51.613,lingCatScenes,2020.1.3,MacIntel,60,"[1440,900]",space,2.595,"[""ahead_box""]",space,1.746,0,6,6,0,1,ahead_2.jpg,ahead_2_path.jpg,,,,,,,,,,,,,,,,,,,,,,,
Image_List_5,,,,,,,,,,,,,,,,44365,2020-11-23_00h18.51.613,lingCatScenes,2020.1.3,MacIntel,60,"[1440,900]",,,"[""trial_slight_right_box""]",,,,,,,,,,space,4.01,jewelrystore.jpg,space,8.662,[0.21333333333333335],[-0.30444444444444446],[1],[0],[0],[7.7029999999999745],"[""trial_slight_right_box""]",0,0,0,71,1,metroInside2.jpg,pavilion5.jpg,metroInside3.jpg,museum3.jpg,,
Image_List_5,,,,,,,,,,,,,,,,44365,2020-11-23_00h18.51.613,lingCatScenes,2020.1.3,MacIntel,60,"[1440,900]",,,"[""trial_ahead_box""]",,,,,,,,,,,,readingroom2.jpg,space,1.995,[-0.0022222222222222222],[-0.30444444444444446],[1],[0],[0],[1.5810000000000173],"[""trial_ahead_box""]",0,1,1,83,1,readingroom1.jpg,sculpturegarden1.jpg,promenadeDeck6.jpg,restaurant8.jpg,,
Image_List_5,,,,,,,,,,,,,,,,44365,2020-11-23_00h18.51.613,lingCatScenes,2020.1.3,MacIntel,60,"[1440,900]",,,"[""trial_left_box""]",,,,,,,,,,,,elevatorOutside2.jpg,space,3.203,[-0.4011111111111111],[-0.29333333333333333],[1],[0],[0],[2.88900000000001],"[""trial_left_box""]",0,2,2,47,1,frontDoor.jpg,gasstation8.jpg,firestation4.jpg,fountain7.jpg,,
Image_List_5,,,,,,,,,,,,,,,,44365,2020-11-23_00h18.51.613,lingCatScenes,2020.1.3,MacIntel,60,"[1440,900]",,,"[""trial_sharp_left_box"",""trial_sharp_right_box""]",,,,,,,,,,,,sandbox.jpg,space,9.127,"[-0.5944444444444444,0.5844444444444444]","[-0.29555555555555557,-0.28555555555555556]","[1,1]","[0,0]","[0,0]","[7.033999999999992,8.301999999999964]","[""trial_sharp_left_box"",""trial_sharp_right_box""]",0,3,3,88,1,rooftop1.jpg,track.jpg,sculpturegarden4.jpg,soccerfield.jpg,,
Image_List_5,,,,,,,,,,,,,,,,44365,2020-11-23_00h18.51.613,lingCatScenes,2020.1.3,MacIntel,60,"[1440,900]",,,"[""trial_ahead_box"",""trial_right_box"",""trial_slight_right_box"",""trial_sharp_right_box"",""trial_slight_left_box"",""trial_left_box"",""trial_sharp_left_box""]",,,,,,,,,,,,basketballcourt7.jpg,space,12.711,"[0.01888888888888889,0.23,0.23333333333333334,0.15888888888888889,0.4488888888888889,0.42,0.18888888888888888,0.6022222222222222,-0.19666666666666666,-0.4022222222222222,-0.6233333333333333]","[-0.31222222222222223,-0.31222222222222223,-0.29555555555555557,-0.30777777777777776,-0.3088888888888889,-0.3088888888888889,-0.2966666666666667,-0.2822222222222222,-0.3011111111111111,-0.29444444444444445,-0.29444444444444445]","[1,1,1,1,1,1,1,1,1,1,1]","[0,0,0,0,0,0,0,0,0,0,0]","[0,0,0,0,0,0,0,0,0,0,0]","[3.538000000000011,4.170999999999992,5.020000000000039,6.059000000000026,7.324999999999989,7.709000000000003,8.391999999999996,9.158999999999992,10.108000000000004,10.782000000000039,11.999000000000024]","[""trial_ahead_box"",""trial_right_box"",""trial_slight_right_box"",""trial_sharp_right_box"",""trial_slight_left_box"",""trial_left_box"",""trial_sharp_left_box""]",0,4,4,20,1,boardwalk6.jpg,cave.jpg,campsite3.jpg,cave4.jpg,,
Image_List_5,,,,,,,,,,,,,,,,44365,2020-11-23_00h18.51.613,lingCatScenes,2020.1.3,MacIntel,60,"[1440,900]",,,"[""trial_ahead_box"",""trial_sharp_right_box"",""trial_sharp_left_box"",""trial_right_box""]",,,,,,,,,,,,cabin4.jpg,space,10.999,"[-0.008888888888888889,0.5944444444444444,-0.6077777777777778,0.41]","[-0.29,-0.29333333333333333,-0.29333333333333333,-0.3]","[1,1,1,1]","[0,0,0,0]","[0,0,0,0]","[3.4610000000000127,5.159999999999968,6.676999999999964,9.100999999999999]","[""trial_ahead_box"",""trial_sharp_right_box"",""trial_sharp_left_box"",""trial_right_box""]",0,5,5,32,1,dancestudio6.jpg,diner12.jpg,constructionSite2.jpg,dentist4.jpg,,
Image_List_5,,,,,,,,,,,,,,,,44365,2020-11-23_00h18.51.613,lingCatScenes,2020.1.3,MacIntel,60,"[1440,900]",,,"[""trial_right_box"",""trial_sharp_right_box"",""trial_slight_right_box""]",,,,,,,,,,,,applestore2.jpg,space,7.858,"[0.4077777777777778,0.5988888888888889,0.19]","[-0.2877777777777778,-0.28,-0.3055555555555556]","[1,1,1]","[0,0,0]","[0,0,0]","[3.9710000000000036,4.920999999999992,7.111999999999966]","[""trial_right_box"",""trial_sharp_right_box"",""trial_slight_right_box""]",0,6,6,7,1,attic2.jpg,banquetHall4.jpg,backstage1.jpg,baggageClaim3.jpg,,
Image_List_5,,,,,,,,,,,,,,,,44365,2020-11-23_00h18.51.613,lingCatScenes,2020.1.3,MacIntel,60,"[1440,900]",,,"[""trial_ahead_box"",""trial_sharp_right_box"",""trial_sharp_left_box""]",,,,,,,,,,,,sidewalk3.jpg,space,7.15,"[-0.01888888888888889,0.5888888888888889,0.5944444444444444,-0.6077777777777778]","[-0.30333333333333334,-0.33,-0.30444444444444446,-0.29888888888888887]","[1,1,1,1]","[0,0,0,0]","[0,0,0,0]","[1.3610000000000468,3.2789999999999964,3.812000000000012,6.66900000000004]","[""trial_ahead_box"",""trial_sharp_right_box"",""trial_sharp_left_box""]",0,7,7,91,1,shoestore2.jpg,trainStation5.jpg,skatepark5.jpg,ticket_counter6.jpg,,
Image_List_5,,,,,,,,,,,,,,,,44365,2020-11-23_00h18.51.613,lingCatScenes,2020.1.3,MacIntel,60,"[1440,900]",,,"[""trial_ahead_box"",""trial_slight_right_box"",""trial_sharp_left_box""]",,,,,,,,,,,,fabricstore2.jpg,space,12.515,"[0.0022222222222222222,0.1988888888888889,-0.5844444444444444]","[-0.2911111111111111,-0.3055555555555556,-0.3055555555555556]","[1,1,1]","[0,0,0]","[0,0,0]","[6.927999999999997,9.194999999999993,11.932999999999993]","[""trial_ahead_box"",""trial_slight_right_box"",""trial_sharp_left_box""]",0,8,8,48,1,frontDoor2.jpg,golfcourse6.jpg,fittingroom5.jpg,golfcourse7.jpg,,
Image_List_5,,,,,,,,,,,,,,,,44365,2020-11-23_00h18.51.613,lingCatScenes,2020.1.3,MacIntel,60,"[1440,900]",,,"[""trial_slight_right_box"",""trial_slight_left_box"",""trial_left_box"",""trial_sharp_left_box"",""trial_right_box"",""trial_sharp_right_box""]",,,,,,,,,,,,rooftop3.jpg,space,8.288,"[0.21555555555555556,-0.20555555555555555,-0.37666666666666665,-0.5955555555555555,0.40444444444444444,0.61]","[-0.2922222222222222,-0.29888888888888887,-0.3011111111111111,-0.29444444444444445,-0.2922222222222222,-0.2822222222222222]","[1,1,1,1,1,1]","[0,0,0,0,0,0]","[0,0,0,0,0,0]","[3.6779999999999973,4.555000000000007,5.419999999999959,6.086999999999989,7.536000000000001,8.036999999999978]","[""trial_slight_right_box"",""trial_slight_left_box"",""trial_left_box"",""trial_sharp_left_box"",""trial_right_box"",""trial_sharp_right_box""]",0,9,9,85,1,recordingstudio4.jpg,sidewalk5.jpg,ruralroad2.jpg,sandDunes_desert_outdoor3.jpg,,
Image_List_5,,,,,,,,,,,,,,,,44365,2020-11-23_00h18.51.613,lingCatScenes,2020.1.3,MacIntel,60,"[1440,900]",,,"[""trial_sharp_right_box"",""trial_right_box"",""trial_sharp_left_box"",""trial_left_box""]",,,,,,,,,,,,diningroom3.jpg,space,5.135,"[0.5788888888888889,0.3988888888888889,-0.5933333333333334,-0.4077777777777778]","[-0.29333333333333333,-0.31222222222222223,-0.28555555555555556,-0.29777777777777775]","[1,1,1,1]","[0,0,0,0]","[0,0,0,0]","[1.587000000000046,2.437000000000012,4.254000000000019,4.821000000000026]","[""trial_sharp_right_box"",""trial_right_box"",""trial_sharp_left_box"",""trial_left_box""]",0,10,10,43,1,exerciseequipment5.jpg,forestpath10.jpg,dugout2.jpg,foodcourt.jpg,,
Image_List_5,,,,,,,,,,,,,,,,44365,2020-11-23_00h18.51.613,lingCatScenes,2020.1.3,MacIntel,60,"[1440,900]",,,"[""trial_ahead_box"",""trial_slight_left_box"",""trial_sharp_left_box"",""trial_sharp_right_box""]",,,,,,,,,,,,warehouseoutside3.jpg,space,7.286,"[-0.008888888888888889,-0.19111111111111112,-0.5922222222222222,0.6066666666666667]","[-0.2866666666666667,-0.3055555555555556,-0.30666666666666664,-0.29]","[1,1,1,1]","[0,0,0,0]","[0,0,0,0]","[1.2789999999999964,2.762999999999977,5.5120000000000005,6.725999999999999]","[""trial_ahead_box"",""trial_slight_left_box"",""trial_sharp_left_box"",""trial_sharp_right_box""]",0,11,11,97,1,warehouseoutside4.jpg,wineVineyard2.jpg,waitingroom4.jpg,winebarrel3.jpg,,
Image_List_5,,,,,,,,,,,,,,,,44365,2020-11-23_00h18.51.613,lingCatScenes,2020.1.3,MacIntel,60,"[1440,900]",,,"[""trial_slight_left_box"",""trial_left_box"",""trial_sharp_left_box""]",,,,,,,,,,,,winebarrel2.jpg,space,4.396,"[-0.22,-0.2111111111111111,-0.41555555555555557,-0.6088888888888889]","[-0.32555555555555554,-0.3022222222222222,-0.28888888888888886,-0.29]","[1,1,1,1]","[0,0,0,0]","[0,0,0,0]","[1.5439999999999827,2.3939999999999486,3.1429999999999723,3.9359999999999786]","[""trial_slight_left_box"",""trial_left_box"",""trial_sharp_left_box""]",0,12,12,98,1,weightroom5.jpg,wineVineyard8.jpg,warehouse3.jpg,winebarrel4.jpg,,
Image_List_5,,,,,,,,,,,,,,,,44365,2020-11-23_00h18.51.613,lingCatScenes,2020.1.3,MacIntel,60,"[1440,900]",,,"[""trial_ahead_box"",""trial_slight_right_box"",""trial_slight_left_box""]",,,,,,,,,,,,homegarage2.jpg,space,7.766,"[0.0077777777777777776,0.18888888888888888,-0.21777777777777776]","[-0.29444444444444445,-0.30666666666666664,-0.29333333333333333]","[1,1,1]","[0,0,0]","[0,0,0]","[1.5279999999999632,3.7620000000000005,6.086999999999989]","[""trial_ahead_box"",""trial_slight_right_box"",""trial_slight_left_box""]",0,13,13,64,1,igloo2.jpg,newsstand5.jpg,jewelrystore8.jpg,lab5.jpg,,
Image_List_5,,,,,,,,,,,,,,,,44365,2020-11-23_00h18.51.613,lingCatScenes,2020.1.3,MacIntel,60,"[1440,900]",,,"[""trial_ahead_box"",""trial_slight_right_box"",""trial_right_box"",""trial_slight_left_box"",""trial_left_box""]",,,,,,,,,,,,observatory2.jpg,space,7.692,"[-0.0044444444444444444,0.20222222222222222,0.43,0.4166666666666667,-0.1922222222222222,-0.3933333333333333]","[-0.31222222222222223,-0.30444444444444446,-0.2966666666666667,-0.29888888888888887,-0.2911111111111111,-0.2911111111111111]","[1,1,1,1,1,1]","[0,0,0,0,0,0]","[0,0,0,0,0,0]","[2.200999999999965,3.966000000000008,4.800999999999988,5.449999999999989,6.524999999999977,7.358000000000004]","[""trial_ahead_box"",""trial_slight_right_box"",""trial_right_box"",""trial_slight_left_box"",""trial_left_box""]",0,14,14,79,1,pasture.jpg,poolhall2.jpeg,playground9.jpg,pier2.jpg,,
Image_List_5,,,,,,,,,,,,,,,,44365,2020-11-23_00h18.51.613,lingCatScenes,2020.1.3,MacIntel,60,"[1440,900]",,,"[""trial_ahead_box""]",,,,,,,,,,,,basement6.jpg,space,8.219,[-0.0022222222222222222],[-0.2811111111111111],[1],[0],[0],[1.5769999999999982],"[""trial_ahead_box""]",0,15,15,18,1,bleachers5.jpg,casino1.jpg,brewery4.jpg,castle2.jpg,,
Image_List_5,,,,,,,,,,,,,,,,44365,2020-11-23_00h18.51.613,lingCatScenes,2020.1.3,MacIntel,60,"[1440,900]",,,"[""trial_ahead_box"",""trial_slight_right_box"",""trial_slight_left_box""]",,,,,,,,,,,,backyard5.jpg,space,8.345,"[-0.0077777777777777776,0.20222222222222222,-0.2288888888888889,-0.21333333333333335]","[-0.29555555555555557,-0.2922222222222222,-0.29444444444444445,-0.30666666666666664]","[1,1,1,1]","[0,0,0,0]","[0,0,0,0]","[3.6860000000000355,4.40300000000002,5.843999999999994,6.878000000000043]","[""trial_ahead_box"",""trial_slight_right_box"",""trial_slight_left_box""]",0,16,16,12,1,baggageClaim4.jpg,bedroom6.jpg,bambooforest5.jpg,bleachers7.jpg,,
Image_List_5,,,,,,,,,,,,,,,,44365,2020-11-23_00h18.51.613,lingCatScenes,2020.1.3,MacIntel,60,"[1440,900]",,,"[""trial_ahead_box""]",,,,,,,,,,,,brewery2.jpg,space,6.616,[-0.016666666666666666],[-0.3244444444444444],[1],[0],[0],[1.8619999999999663],"[""trial_ahead_box""]",0,17,17,27,1,castle3.jpg,courtroom3.jpg,churchInside4.jpg,closet.jpg,,
Image_List_5,,,,,,,,,,,,,,,,44365,2020-11-23_00h18.51.613,lingCatScenes,2020.1.3,MacIntel,60,"[1440,900]",,,"[""trial_slight_right_box""]",,,,,,,,,,,,shoestore4.jpg,space,5.004,[0.19555555555555557],[-0.31444444444444447],[1],[0],[0],[2.019999999999982],"[""trial_slight_right_box""]",0,18,18,90,1,savanna5.jpg,trainStation1.jpg,sidewalk1.jpg,stripmall3.jpg,,
Image_List_5,,,,,,,,,,,,,,,,44365,2020-11-23_00h18.51.613,lingCatScenes,2020.1.3,MacIntel,60,"[1440,900]",,,"[""trial_ahead_box"",""trial_slight_left_box"",""trial_left_box""]",,,,,,,,,,,,highway2.jpg,space,11.25,"[-0.0022222222222222222,0.18777777777777777,-0.20666666666666667,-0.39666666666666667,0.18333333333333332]","[-0.30444444444444446,-0.31333333333333335,-0.30666666666666664,-0.3,-0.28]","[1,1,1,1,1]","[0,0,0,0,0]","[0,0,0,0,0]","[1.5220000000000482,2.2899999999999636,3.30600000000004,4.621999999999957,9.230000000000018]","[""trial_ahead_box"",""trial_slight_right_box"",""trial_slight_left_box"",""trial_left_box"",""trial_slight_right_box""]",0,19,19,63,1,hut2.jpg,museum6.jpg,hotelRoom2.jpg,lab4.jpg,,
Image_List_5,,,,,,,,,,,,,,,,44365,2020-11-23_00h18.51.613,lingCatScenes,2020.1.3,MacIntel,60,"[1440,900]",,,"[""trial_slight_left_box"",""trial_left_box""]",,,,,,,,,,,,barbershop2.jpg,space,5.87,"[-0.19,-0.4022222222222222]","[-0.3022222222222222,-0.29777777777777775]","[1,1]","[0,0]","[0,0]","[1.6259999999999764,3.494000000000028]","[""trial_slight_left_box"",""trial_left_box""]",0,20,20,16,1,basement.jpg,cafeteria6.jpg,breakroom2.jpg,campusquad4.jpg,,
Image_List_5,,,,,,,,,,,,,,,,44365,2020-11-23_00h18.51.613,lingCatScenes,2020.1.3,MacIntel,60,"[1440,900]",,,"[""trial_ahead_box"",""trial_slight_right_box"",""trial_slight_left_box""]",,,,,,,,,,,,cliff5.jpg,space,6.729,"[-0.0022222222222222222,0.2011111111111111,-0.19777777777777777]","[-0.31,-0.30333333333333334,-0.29444444444444445]","[1,1,1]","[0,0,0]","[0,0,0]","[2.3439999999999372,4.000999999999976,5.000999999999976]","[""trial_ahead_box"",""trial_slight_right_box"",""trial_slight_left_box""]",0,21,21,39,1,driveway6.jpg,eyeglassstore9.jpg,drycleaners6.jpg,drymountains5.jpg,,
Image_List_5,,,,,,,,,,,,,,,,44365,2020-11-23_00h18.51.613,lingCatScenes,2020.1.3,MacIntel,60,"[1440,900]",,,"[""trial_ahead_box""]",,,,,,,,,,,,library_aisle9.jpg,space,2.999,[-0.0077777777777777776],[-0.2877777777777778],[1],[0],[0],[1.719000000000051],"[""trial_ahead_box""]",0,22,22,73,1,musicStore3.jpg,photographer_studio2.jpg,nursery.jpg,nursery4.jpg,,
Image_List_5,,,,,,,,,,,,,,,,44365,2020-11-23_00h18.51.613,lingCatScenes,2020.1.3,MacIntel,60,"[1440,900]",,,"[""trial_slight_right_box"",""trial_right_box""]",,,,,,,,,,,,desertvegetation2.jpg,space,5.283,"[0.19,0.39]","[-0.3111111111111111,-0.31]","[1,1]","[0,0]","[0,0]","[1.4279999999999973,3.969000000000051]","[""trial_slight_right_box"",""trial_right_box""]",0,23,23,42,1,exerciseequipment3.jpg,firestation3.jpg,drymountains6.jpg,farm4.jpg,,
Image_List_5,,,,,,,,,,,,,,,,44365,2020-11-23_00h18.51.613,lingCatScenes,2020.1.3,MacIntel,60,"[1440,900]",,,"[""trial_ahead_box"",""trial_slight_left_box"",""trial_slight_right_box""]",,,,,,,,,,,,bus_shelter3.jpg,space,6.685,"[-0.0044444444444444444,-0.19333333333333333,0.21222222222222223]","[-0.2911111111111111,-0.3022222222222222,-0.2922222222222222]","[1,1,1]","[0,0,0]","[0,0,0]","[2.330000000000041,5.369000000000028,6.336000000000013]","[""trial_ahead_box"",""trial_slight_left_box"",""trial_slight_right_box""]",0,24,24,30,1,courthouse1.jpg,desertvegetation3.jpg,clothingstore2.jpg,copyroom2.jpg,,
Image_List_5,,,,,,,,,,,,,,,,44365,2020-11-23_00h18.51.613,lingCatScenes,2020.1.3,MacIntel,60,"[1440,900]",,,"[""trial_slight_right_box"",""trial_right_box""]",,,,,,,,,,,,icecream2.jpg,space,2.766,"[0.18444444444444444,0.37666666666666665]","[-0.30777777777777776,-0.3]","[1,1]","[0,0]","[0,0]","[1.4189999999999827,2.286000000000172]","[""trial_slight_right_box"",""trial_right_box""]",0,25,25,69,1,liquorstore8.jpg,parkinglot2.jpg,livingroom.jpg,metroInside1.jpg,,
Image_List_5,,,,,,,,,,,,,,,,44365,2020-11-23_00h18.51.613,lingCatScenes,2020.1.3,MacIntel,60,"[1440,900]",,,"[""trial_ahead_box"",""trial_slight_right_box"",""trial_slight_left_box""]",,,,,,,,,,,,gasstation2.jpg,space,3.686,"[0.0011111111111111111,-0.014444444444444444,0.20666666666666667,-0.19555555555555557]","[-0.33666666666666667,-0.2966666666666667,-0.29777777777777775,-0.2866666666666667]","[1,1,1,1]","[0,0,0,0]","[0,0,0,0]","[1.2619999999999436,2.0279999999999063,2.67999999999995,3.4449999999999363]","[""trial_ahead_box"",""trial_slight_right_box"",""trial_slight_left_box""]",0,26,26,56,1,grocerystore5.jpg,hut3.jpg,golfcourse10.jpg,hut1.jpg,,
Image_List_5,,,,,,,,,,,,,,,,44365,2020-11-23_00h18.51.613,lingCatScenes,2020.1.3,MacIntel,60,"[1440,900]",,,"[""trial_ahead_box"",""trial_sharp_right_box"",""trial_sharp_left_box""]",,,,,,,,,,,,frontFoyer.jpg,space,5.8,"[-0.005555555555555556,0.5777777777777777,-0.6]","[-0.29444444444444445,-0.2777777777777778,-0.3]","[1,1,1]","[0,0,0]","[0,0,0]","[1.1440000000000055,3.0939999999999372,4.36099999999999]","[""trial_ahead_box"",""trial_sharp_right_box"",""trial_sharp_left_box""]",0,27,27,54,1,greenhouse2.jpg,horsebarn11.jpg,gazebo2.jpg,homegarage4.jpg,,
Image_List_5,,,,,,,,,,,,,,,,44365,2020-11-23_00h18.51.613,lingCatScenes,2020.1.3,MacIntel,60,"[1440,900]",,,"[""trial_slight_right_box"",""trial_ahead_box"",""trial_slight_left_box""]",,,,,,,,,,,,hayfield6.jpg,space,7.783,"[0.2011111111111111,-0.04,-0.01,-0.21444444444444444]","[-0.2822222222222222,-0.2833333333333333,-0.3055555555555556,-0.3]","[1,1,1,1]","[0,0,0,0]","[0,0,0,0]","[3.578000000000088,5.569000000000074,6.118000000000052,6.969000000000051]","[""trial_slight_right_box"",""trial_ahead_box"",""trial_slight_left_box""]",0,28,28,61,1,HorseRaceTrack.jpg,metroInside4.jpg,homegarden6.jpg,kindergarten_classroom7.jpg,,
Image_List_5,,,,,,,,,,,,,,,,44365,2020-11-23_00h18.51.613,lingCatScenes,2020.1.3,MacIntel,60,"[1440,900]",,,"[""trial_ahead_box"",""trial_sharp_right_box""]",,,,,,,,,,,,postoffice4.jpg,space,4.056,"[0.006666666666666667,0.6066666666666667]","[-0.3,-0.28444444444444444]","[1,1]","[0,0]","[0,0]","[1.3129999999999882,3.0790000000000646]","[""trial_ahead_box"",""trial_sharp_right_box""]",0,29,29,82,1,publicrestroom2.jpg,sandDunes_desert_outdoor9.jpg,promenadeDeck3.jpg,readingroom4.jpg,,
Image_List_5,,,,,,,,,,,,,,,,44365,2020-11-23_00h18.51.613,lingCatScenes,2020.1.3,MacIntel,60,"[1440,900]",,,"[""trial_right_box""]",,,,,,,,,,,,kindergarten_classroom.jpg,space,4.45,[0.38333333333333336],[-0.3088888888888889],[1],[0],[0],[3.5529999999999973],"[""trial_right_box""]",0,30,30,72,1,museum5.jpg,pharmacy4.jpg,musicStore1.jpg,museum4.jpg,,
Image_List_5,,,,,,,,,,,,,,,,44365,2020-11-23_00h18.51.613,lingCatScenes,2020.1.3,MacIntel,60,"[1440,900]",,,"[""trial_slight_right_box"",""trial_right_box"",""trial_ahead_box""]",,,,,,,,,,,,farm2.jpg,space,5.066,"[0.21222222222222223,0.41,0.011111111111111112]","[-0.3088888888888889,-0.3233333333333333,-0.30444444444444446]","[1,1,1]","[0,0,0]","[0,0,0]","[1.330000000000041,2.4470000000000027,4.104000000000042]","[""trial_slight_right_box"",""trial_right_box"",""trial_ahead_box""]",0,31,31,49,1,frontDoor3.jpg,greenhouse5.jpg,flowershop3.jpg,greenhouse.jpg,,
Image_List_5,,,,,,,,,,,,,,,,44365,2020-11-23_00h18.51.613,lingCatScenes,2020.1.3,MacIntel,60,"[1440,900]",,,"[""trial_ahead_box"",""trial_slight_left_box"",""trial_slight_right_box""]",,,,,,,,,,,,ballroom3.jpg,space,4.584,"[-0.013333333333333334,0.2288888888888889,-0.21444444444444444,0.18666666666666668]","[-0.29555555555555557,-0.3111111111111111,-0.3211111111111111,-0.30777777777777776]","[1,1,1,1]","[0,0,0,0]","[0,0,0,0]","[1.5639999999999645,2.09699999999998,2.8729999999999336,3.939999999999941]","[""trial_ahead_box"",""trial_slight_left_box"",""trial_slight_right_box""]",0,32,32,14,1,ballroom1.jpg,breakroom5.jpg,bistrooutdoor5.jpg,botanicalGarden5.jpg,,
Image_List_5,,,,,,,,,,,,,,,,44365,2020-11-23_00h18.51.613,lingCatScenes,2020.1.3,MacIntel,60,"[1440,900]",,,"[""trial_left_box"",""trial_ahead_box"",""trial_slight_left_box""]",,,,,,,,,,,,grocerystore3.jpg,space,5.731,"[-0.41,0.03222222222222222,0.016666666666666666,-0.22666666666666666,-0.19111111111111112]","[-0.3022222222222222,-0.32666666666666666,-0.3233333333333333,-0.3055555555555556,-0.31333333333333335]","[1,1,1,1,1]","[0,0,0,0,0]","[0,0,0,0,0]","[2.396000000000072,3.921000000000049,4.155000000000086,4.738000000000056,5.4220000000000255]","[""trial_left_box"",""trial_ahead_box"",""trial_slight_left_box""]",0,33,33,59,1,homegarden7.jpg,library_aisle8.jpg,highway4.jpg,kindergarten_classroom5.jpg,,
Image_List_5,,,,,,,,,,,,,,,,44365,2020-11-23_00h18.51.613,lingCatScenes,2020.1.3,MacIntel,60,"[1440,900]",,,"[""trial_ahead_box""]",,,,,,,,,,,,carmechanic2.jpg,space,4.855,[-0.016666666666666666],[-0.3088888888888889],[1],[0],[0],[1.4110000000000582],"[""trial_ahead_box""]",0,34,34,35,1,deck5.jpg,dock3.jpg,cubicle7.jpg,dining_car6.jpg,,
Image_List_5,,,,,,,,,,,,,,,,44365,2020-11-23_00h18.51.613,lingCatScenes,2020.1.3,MacIntel,60,"[1440,900]",,,"[""trial_left_box"",""trial_ahead_box""]",,,,,,,,,,,,clothingstore3.jpg,space,8.336,"[-0.4022222222222222,0.0077777777777777776]","[-0.3011111111111111,-0.29555555555555557]","[1,1]","[0,0]","[0,0]","[3.5710000000000264,5.721000000000004]","[""trial_left_box"",""trial_ahead_box""]",0,35,35,40,1,drycleaners4.jpg,farm1.jpg,drymountains.jpg,dugout1.jpg,,
Image_List_5,,,,,,,,,,,,,,,,44365,2020-11-23_00h18.51.613,lingCatScenes,2020.1.3,MacIntel,60,"[1440,900]",,,"[""trial_slight_left_box""]",,,,,,,,,,,,grocerystore2.jpg,space,3.699,[-0.18666666666666668],[-0.30333333333333334],[1],[0],[0],[2.245999999999981],"[""trial_slight_left_box""]",0,36,36,58,1,highway7.jpg,lab1.jpg,hedgemaze1.jpg,igloo4.jpg,,
Image_List_5,,,,,,,,,,,,,,,,44365,2020-11-23_00h18.51.613,lingCatScenes,2020.1.3,MacIntel,60,"[1440,900]",,,"[""trial_slight_right_box""]",,,,,,,,,,,,bistrooutdoor6.jpg,space,7.228,[0.2011111111111111],[-0.29888888888888887],[1],[0],[0],[3.437999999999988],"[""trial_slight_right_box""]",0,37,37,22,1,bowlingalley5.jpg,church6.jpg,cargo5.jpg,cemetery.jpg,,
Image_List_5,,,,,,,,,,,,,,,,44365,2020-11-23_00h18.51.613,lingCatScenes,2020.1.3,MacIntel,60,"[1440,900]",,,"[""trial_sharp_left_box"",""trial_ahead_box""]",,,,,,,,,,,,applestore4.jpg,space,5.745,"[-0.58,0.0011111111111111111]","[-0.3088888888888889,-0.32]","[1,1]","[0,0]","[0,0]","[3.01400000000001,5.47199999999998]","[""trial_sharp_left_box"",""trial_ahead_box""]",0,38,38,8,1,attic3.jpg,banquetHall6.jpg,balconyIN.jpg,bar.jpg,,
Image_List_5,,,,,,,,,,,,,,,,44365,2020-11-23_00h18.51.613,lingCatScenes,2020.1.3,MacIntel,60,"[1440,900]",,,"[""trial_right_box"",""trial_sharp_left_box""]",,,,,,,,,,,,checkoutcounter9.jpg,space,5.053,"[0.4077777777777778,-0.6044444444444445]","[-0.31555555555555553,-0.31666666666666665]","[1,1]","[0,0]","[0,0]","[2.27800000000002,4.668999999999983]","[""trial_right_box"",""trial_sharp_left_box""]",0,39,39,36,1,diner14.jpg,dormroom9.jpg,dining_car3.jpg,doctor1.jpg,,
Image_List_5,,,,,,,,,,,,,,,,44365,2020-11-23_00h18.51.613,lingCatScenes,2020.1.3,MacIntel,60,"[1440,900]",,,"[""trial_ahead_box"",""trial_slight_left_box"",""trial_slight_right_box""]",,,,,,,,,,,,rooftop4.jpg,space,5.343,"[0.0022222222222222222,-0.21888888888888888,0.1922222222222222]","[-0.29777777777777775,-0.29,-0.29444444444444445]","[1,1,1]","[0,0,0]","[0,0,0]","[2.18100000000004,3.8220000000000027,4.837999999999965]","[""trial_ahead_box"",""trial_slight_left_box"",""trial_slight_right_box""]",0,40,40,86,1,restaurant14.jpg,stripmall.jpg,ruralroad3.jpg,sandDunes_desert_outdoor8.jpg,,
Image_List_5,,,,,,,,,,,,,,,,44365,2020-11-23_00h18.51.613,lingCatScenes,2020.1.3,MacIntel,60,"[1440,900]",,,"[""trial_ahead_box"",""trial_sharp_left_box""]",,,,,,,,,,,,igloo.jpg,space,8.064,"[0.008888888888888889,-0.6011111111111112]","[-0.2788888888888889,-0.2922222222222222]","[1,1]","[0,0]","[0,0]","[3.9220000000000255,6.405000000000086]","[""trial_ahead_box"",""trial_sharp_left_box""]",0,41,41,70,1,lockerroom4.jpg,pavilion.jpg,lockerroom3.jpg,minigolf8.jpg,,
Image_List_5,,,,,,,,,,,,,,,,44365,2020-11-23_00h18.51.613,lingCatScenes,2020.1.3,MacIntel,60,"[1440,900]",,,"[""trial_ahead_box"",""trial_left_box"",""trial_right_box""]",,,,,,,,,,,,firestation5.jpg,space,5.566,"[0.011111111111111112,-0.3977777777777778,0.4033333333333333]","[-0.29333333333333333,-0.29444444444444445,-0.31444444444444447]","[1,1,1]","[0,0,0]","[0,0,0]","[1.6300000000001091,2.880000000000109,4.65300000000002]","[""trial_ahead_box"",""trial_left_box"",""trial_right_box""]",0,42,42,51,1,gasstation6.jpg,hallway5.jpg,frontDoor5.jpg,hayfield4.jpg,,
Image_List_5,,,,,,,,,,,,,,,,44365,2020-11-23_00h18.51.613,lingCatScenes,2020.1.3,MacIntel,60,"[1440,900]",,,"[""trial_ahead_box"",""trial_left_box""]",,,,,,,,,,,,dormroom6.jpg,space,4.366,"[0.015555555555555555,-0.3988888888888889]","[-0.3111111111111111,-0.30444444444444446]","[1,1]","[0,0]","[0,0]","[2.0960000000000036,3.752999999999929]","[""trial_ahead_box"",""trial_left_box""]",0,43,43,46,1,flowershop.jpg,frontLawn5.jpg,farmersmarket4.jpg,fountain4.jpg,,
Image_List_5,,,,,,,,,,,,,,,,44365,2020-11-23_00h18.51.613,lingCatScenes,2020.1.3,MacIntel,60,"[1440,900]",,,"[""trial_left_box"",""trial_ahead_box"",""trial_slight_left_box""]",,,,,,,,,,,,bridalboutique2.jpg,space,5.115,"[-0.41,-0.005555555555555556,-0.21333333333333335]","[-0.2911111111111111,-0.2966666666666667,-0.29888888888888887]","[1,1,1]","[0,0,0]","[0,0,0]","[1.879000000000019,4.101999999999975,4.8530000000000655]","[""trial_left_box"",""trial_ahead_box"",""trial_slight_left_box""]",0,44,44,28,1,churchInside1.jpg,dancestudio5.jpg,citystreet10.jpg,clothingstore5.jpg,,
Image_List_5,,,,,,,,,,,,,,,,44365,2020-11-23_00h18.51.613,lingCatScenes,2020.1.3,MacIntel,60,"[1440,900]",,,"[""trial_left_box"",""trial_ahead_box"",""trial_right_box""]",,,,,,,,,,,,beach1.jpeg,space,8.117,"[-0.41,0.006666666666666667,0.41]","[-0.3088888888888889,-0.29555555555555557,-0.29888888888888887]","[1,1,1]","[0,0,0]","[0,0,0]","[2.1119999999999663,4.021000000000072,7.104000000000042]","[""trial_left_box"",""trial_ahead_box"",""trial_right_box""]",0,45,45,21,1,botanicalGarden6.jpg,cemetery6.jpg,campusquad3.jpg,cave5.jpg,,
Image_List_5,,,,,,,,,,,,,,,,44365,2020-11-23_00h18.51.613,lingCatScenes,2020.1.3,MacIntel,60,"[1440,900]",,,"[""trial_ahead_box"",""trial_left_box"",""trial_slight_left_box""]",,,,,,,,,,,,dock4.jpg,space,8.207,"[-0.006666666666666667,-0.41444444444444445,-0.2111111111111111]","[-0.30333333333333334,-0.29333333333333333,-0.30777777777777776]","[1,1,1]","[0,0,0]","[0,0,0]","[1.65300000000002,4.819999999999936,7.894999999999982]","[""trial_ahead_box"",""trial_left_box"",""trial_slight_left_box""]",0,46,46,45,1,fittingroom2.jpg,frontFoyer7.jpg,factory1.jpg,forestpath4.jpg,,
Image_List_5,,,,,,,,,,,,,,,,44365,2020-11-23_00h18.51.613,lingCatScenes,2020.1.3,MacIntel,60,"[1440,900]",,,"[""trial_ahead_box"",""trial_right_box""]",,,,,,,,,,,,homeoffice8.jpg,space,5.584,"[0.04111111111111111,0.016666666666666666,0.40555555555555556]","[-0.3022222222222222,-0.31333333333333335,-0.3011111111111111]","[1,1,1]","[0,0,0]","[0,0,0]","[1.6469999999999345,2.2619999999999436,3.5720000000000027]","[""trial_ahead_box"",""trial_right_box""]",0,47,47,65,1,igloo5.jpg,newsstand7.jpg,laundromat2.jpeg,labClass7.jpg,,
Image_List_5,,,,,,,,,,,,,,,,44365,2020-11-23_00h18.51.613,lingCatScenes,2020.1.3,MacIntel,60,"[1440,900]",,,"[""trial_ahead_box"",""trial_right_box"",""trial_left_box""]",,,,,,,,,,,,yogastudio1.jpg,space,6.253,"[-0.015555555555555555,0.40555555555555556,-0.39444444444444443]","[-0.32222222222222224,-0.29333333333333333,-0.31666666666666665]","[1,1,1]","[0,0,0]","[0,0,0]","[1.0960000000000036,4.439000000000078,5.604000000000042]","[""trial_ahead_box"",""trial_right_box"",""trial_left_box""]",0,48,48,99,1,wineVineyard9.jpg,yogastudio4.jpg,windmill2.jpg,wrestlingring7.jpg,,
Image_List_5,,,,,,,,,,,,,,,,44365,2020-11-23_00h18.51.613,lingCatScenes,2020.1.3,MacIntel,60,"[1440,900]",,,"[""trial_left_box"",""trial_sharp_left_box""]",,,,,,,,,,,,tvstudio3.jpg,space,4.97,"[-0.39222222222222225,-0.5922222222222222]","[-0.29,-0.2833333333333333]","[1,1]","[0,0]","[0,0]","[1.5900000000000318,2.9569999999999936]","[""trial_left_box"",""trial_sharp_left_box""]",0,49,49,95,1,waitingroom2.jpg,warehouse2.jpg,stripmall6.jpg,weightroom4.jpg,,
Image_List_5,,,,,,,,,,,,,,,,44365,2020-11-23_00h18.51.613,lingCatScenes,2020.1.3,MacIntel,60,"[1440,900]",,,"[""trial_ahead_box"",""trial_slight_left_box"",""trial_slight_right_box"",""trial_left_box"",""trial_right_box""]",,,,,,,,,,,,hayfield7.jpg,space,7.561,"[0.017777777777777778,-0.18444444444444444,0.18222222222222223,-0.4166666666666667,-0.4111111111111111,0.4011111111111111]","[-0.2966666666666667,-0.3022222222222222,-0.3088888888888889,-0.27444444444444444,-0.2966666666666667,-0.3]","[1,1,1,1,1,1]","[0,0,0,0,0,0]","[0,0,0,0,0,0]","[1.38900000000001,2.6549999999999727,3.372000000000071,4.9220000000000255,6.331000000000017,7.2970000000000255]","[""trial_ahead_box"",""trial_slight_left_box"",""trial_slight_right_box"",""trial_left_box"",""trial_right_box""]",0,50,50,62,1,hotellobby2.jpg,minigolf.jpg,horsebarn8.jpg,lab3.jpg,,
Image_List_5,,,,,,,,,,,,,,,,44365,2020-11-23_00h18.51.613,lingCatScenes,2020.1.3,MacIntel,60,"[1440,900]",,,"[""trial_ahead_box"",""trial_right_box"",""trial_left_box""]",,,,,,,,,,,,baseball6.jpg,space,3.874,"[-0.008888888888888889,0.3977777777777778,-0.41555555555555557]","[-0.28444444444444444,-0.3022222222222222,-0.29888888888888887]","[1,1,1]","[0,0,0]","[0,0,0]","[1.6809999999999263,2.696999999999889,3.586999999999989]","[""trial_ahead_box"",""trial_right_box"",""trial_left_box""]",0,51,51,17,1,bikerack1.jpg,campsite6.jpg,breakroom4.jpg,carmechanic.jpg,,
Image_List_5,,,,,,,,,,,,,,,,44365,2020-11-23_00h18.51.613,lingCatScenes,2020.1.3,MacIntel,60,"[1440,900]",,,"[""trial_ahead_box"",""trial_slight_right_box"",""trial_slight_left_box""]",,,,,,,,,,,,bleachers6.jpg,space,3.875,"[-0.04,0.0033333333333333335,0.17666666666666667,-0.19777777777777777]","[-0.2877777777777778,-0.2922222222222222,-0.3055555555555556,-0.27555555555555555]","[1,1,1,1]","[0,0,0,0]","[0,0,0,0]","[1.3960000000000719,1.7620000000000573,2.812000000000012,3.5790000000001783]","[""trial_ahead_box"",""trial_slight_right_box"",""trial_slight_left_box""]",0,52,52,23,1,bus_shelter.jpg,church8.jpg,carmechanic4.jpeg,cemetery3.jpg,,
Image_List_5,,,,,,,,,,,,,,,,44365,2020-11-23_00h18.51.613,lingCatScenes,2020.1.3,MacIntel,60,"[1440,900]",,,"[""trial_ahead_box"",""trial_slight_left_box"",""trial_slight_right_box""]",,,,,,,,,,,,frontLawn2.jpg,space,3.521,"[-0.02,-0.20666666666666667,0.2111111111111111]","[-0.3055555555555556,-0.3011111111111111,-0.29444444444444445]","[1,1,1]","[0,0,0]","[0,0,0]","[1.2710000000000719,1.9200000000000728,2.6210000000000946]","[""trial_ahead_box"",""trial_slight_left_box"",""trial_slight_right_box""]",0,53,53,55,1,greenmountains.jpg,hotelRoom3.jpg,gazebo5.jpg,hotelRoom7.jpg,,
Image_List_5,,,,,,,,,,,,,,,,44365,2020-11-23_00h18.51.613,lingCatScenes,2020.1.3,MacIntel,60,"[1440,900]",,,"[""trial_ahead_box"",""trial_slight_right_box"",""trial_right_box"",""trial_slight_left_box"",""trial_left_box""]",,,,,,,,,,,,basketballcourt.jpg,space,5.01,"[-0.014444444444444444,0.18666666666666668,0.4255555555555556,0.41333333333333333,-0.21222222222222223,-0.39]","[-0.29444444444444445,-0.29888888888888887,-0.2811111111111111,-0.2833333333333333,-0.29333333333333333,-0.29333333333333333]","[1,1,1,1,1,1]","[0,0,0,0,0,0]","[0,0,0,0,0,0]","[1.3129999999999882,1.9879999999999427,2.7379999999999427,3.3220000000000027,4.204999999999927,4.704999999999927]","[""trial_ahead_box"",""trial_slight_right_box"",""trial_right_box"",""trial_slight_left_box"",""trial_left_box""]",0,54,54,19,1,boardwalk2.jpg,casino3.jpg,cafeteria1.jpg,castle4.jpg,,
Image_List_5,,,,,,,,,,,,,,,,44365,2020-11-23_00h18.51.613,lingCatScenes,2020.1.3,MacIntel,60,"[1440,900]",,,"[""trial_ahead_box"",""trial_slight_left_box"",""trial_slight_right_box""]",,,,,,,,,,,,citystreet9.jpg,space,6.374,"[-0.011111111111111112,-0.20444444444444446,0.18888888888888888]","[-0.2877777777777778,-0.3055555555555556,-0.31666666666666665]","[1,1,1]","[0,0,0]","[0,0,0]","[1.3799999999999955,2.770999999999958,4.019999999999982]","[""trial_ahead_box"",""trial_slight_left_box"",""trial_slight_right_box""]",0,55,55,37,1,dining_car.jpg,driveway4.jpg,dinosaur4.jpg,driveway7.jpg,,
Image_List_5,,,,,,,,,,,,,,,,44365,2020-11-23_00h18.51.613,lingCatScenes,2020.1.3,MacIntel,60,"[1440,900]",,,"[""trial_sharp_left_box"",""trial_left_box"",""trial_sharp_right_box"",""trial_ahead_box"",""trial_slight_left_box""]",,,,,,,,,,,,lockerroom.jpg,space,8.557,"[-0.5844444444444444,-0.6022222222222222,-0.3977777777777778,0.6044444444444445,-0.011111111111111112,-0.2088888888888889]","[-0.26666666666666666,-0.3,-0.2877777777777778,-0.2877777777777778,-0.30777777777777776,-0.2911111111111111]","[1,1,1,1,1,1]","[0,0,0,0,0,0]","[0,0,0,0,0,0]","[2.9700000000000273,3.6370000000000573,4.319000000000074,5.711999999999989,6.86099999999999,8.177000000000021]","[""trial_sharp_left_box"",""trial_left_box"",""trial_sharp_right_box"",""trial_ahead_box"",""trial_slight_left_box""]",0,56,56,75,1,pantry5.jpg,playground6.jpg,operatingroom4.jpg,park.jpg,,
Image_List_5,,,,,,,,,,,,,,,,44365,2020-11-23_00h18.51.613,lingCatScenes,2020.1.3,MacIntel,60,"[1440,900]",,,"[""trial_ahead_box"",""trial_sharp_left_box"",""trial_sharp_right_box""]",,,,,,,,,,,,bar8.jpg,space,6.167,"[-0.005555555555555556,-0.5944444444444444,0.5911111111111111]","[-0.3022222222222222,-0.29888888888888887,-0.3055555555555556]","[1,1,1]","[0,0,0]","[0,0,0]","[1.8360000000000127,3.32000000000005,4.90300000000002]","[""trial_ahead_box"",""trial_sharp_left_box"",""trial_sharp_right_box""]",0,57,57,15,1,bambooforest4.jpg,cafeteria5.jpg,bleachers8.jpg,cabinIndoors.jpg,,
Image_List_5,,,,,,,,,,,,,,,,44365,2020-11-23_00h18.51.613,lingCatScenes,2020.1.3,MacIntel,60,"[1440,900]",,,"[""trial_ahead_box"",""trial_slight_left_box"",""trial_slight_right_box"",""trial_right_box"",""trial_left_box"",""trial_sharp_left_box"",""trial_sharp_right_box""]",,,,,,,,,,,,airportTerminal6.jpg,space,8.877,"[-0.013333333333333334,-0.21222222222222223,0.20555555555555555,0.4444444444444444,0.40555555555555556,-0.37333333333333335,-0.38666666666666666,-0.6033333333333334,0.6055555555555555]","[-0.31222222222222223,-0.30444444444444446,-0.31222222222222223,-0.30777777777777776,-0.31,-0.2911111111111111,-0.29444444444444445,-0.2911111111111111,-0.30666666666666664]","[1,1,1,1,1,1,1,1,1]","[0,0,0,0,0,0,0,0,0]","[0,0,0,0,0,0,0,0,0]","[1.4539999999999509,2.4049999999999727,3.187000000000012,3.9700000000000273,4.4529999999999745,5.778999999999996,6.379000000000019,6.961999999999989,8.444999999999936]","[""trial_ahead_box"",""trial_slight_left_box"",""trial_slight_right_box"",""trial_right_box"",""trial_left_box"",""trial_sharp_left_box"",""trial_sharp_right_box""]",0,58,58,2,1,alley1.jpg,arcade1.jpg,applestore6.jpg,apartmentBuilding4.jpg,,
Image_List_5,,,,,,,,,,,,,,,,44365,2020-11-23_00h18.51.613,lingCatScenes,2020.1.3,MacIntel,60,"[1440,900]",,,"[""trial_ahead_box"",""trial_right_box""]",,,,,,,,,,,,RVinside2.jpg,space,3.409,"[-0.0033333333333333335,0.41444444444444445]","[-0.31555555555555553,-0.3022222222222222]","[1,1]","[0,0]","[0,0]","[1.34699999999998,2.2379999999999427]","[""trial_ahead_box"",""trial_right_box""]",0,59,59,87,1,restaurantkitchen2.jpg,theater2.jpg,savanna.jpg,sculpturegarden2.jpg,,
Image_List_5,,,,,,,,,,,,,,,,44365,2020-11-23_00h18.51.613,lingCatScenes,2020.1.3,MacIntel,60,"[1440,900]",,,"[""trial_ahead_box"",""trial_sharp_left_box""]",,,,,,,,,,,,hallway.jpg,space,6.786,"[-0.0033333333333333335,-0.6255555555555555,-0.5911111111111111]","[-0.3022222222222222,-0.29,-0.2866666666666667]","[1,1,1]","[0,0,0]","[0,0,0]","[1.1960000000000264,2.2129999999999654,4.352999999999952]","[""trial_ahead_box"",""trial_sharp_left_box""]",0,60,60,60,1,hometheater2.jpg,lightingstore3.jpg,homegarage.jpg,kindergarten_classroom6.jpg,,
Image_List_5,,,,,,,,,,,,,,,,44365,2020-11-23_00h18.51.613,lingCatScenes,2020.1.3,MacIntel,60,"[1440,900]",,,"[""trial_ahead_box"",""trial_right_box"",""trial_slight_right_box"",""trial_sharp_left_box"",""trial_left_box""]",,,,,,,,,,,,backyard1.jpg,space,10.676,"[0.0011111111111111111,0.4011111111111111,0.21222222222222223,-0.6122222222222222,-0.4077777777777778]","[-0.30444444444444446,-0.31222222222222223,-0.3011111111111111,-0.28888888888888886,-0.29888888888888887]","[1,1,1,1,1]","[0,0,0,0,0]","[0,0,0,0,0]","[1.7409999999999854,5.124000000000024,6.0890000000000555,8.697000000000003,9.813999999999965]","[""trial_ahead_box"",""trial_right_box"",""trial_slight_right_box"",""trial_sharp_left_box"",""trial_left_box""]",0,61,61,11,1,backyard2.jpg,basketballcourt4.jpg,bambooforest3.jpg,baywindow5.jpg,,
Image_List_5,,,,,,,,,,,,,,,,44365,2020-11-23_00h18.51.613,lingCatScenes,2020.1.3,MacIntel,60,"[1440,900]",,,"[""trial_ahead_box"",""trial_right_box"",""trial_slight_right_box"",""trial_left_box""]",,,,,,,,,,,,fountain.jpg,space,7.946,"[0.0044444444444444444,0.4088888888888889,0.20222222222222222,-0.4288888888888889,-0.41555555555555557]","[-0.31666666666666665,-0.28555555555555556,-0.3088888888888889,-0.3,-0.29777777777777775]","[1,1,1,1,1]","[0,0,0,0,0]","[0,0,0,0,0]","[1.6190000000001419,4.219999999999914,4.919999999999959,7.043999999999983,7.644999999999982]","[""trial_ahead_box"",""trial_right_box"",""trial_slight_right_box"",""trial_left_box""]",0,62,62,53,1,gazebo3.jpg,homeoffice.jpg,frontLawn3.jpg,homegarage3.jpg,,
Image_List_5,,,,,,,,,,,,,,,,44365,2020-11-23_00h18.51.613,lingCatScenes,2020.1.3,MacIntel,60,"[1440,900]",,,"[""trial_left_box"",""trial_sharp_left_box"",""trial_sharp_right_box"",""trial_ahead_box""]",,,,,,,,,,,,airportTerminal2.jpg,space,7.573,"[-0.3844444444444444,-0.5911111111111111,0.59,0.03111111111111111,0.005555555555555556]","[-0.29888888888888887,-0.29333333333333333,-0.28444444444444444,-0.27666666666666667,-0.29555555555555557]","[1,1,1,1,1]","[0,0,0,0,0]","[0,0,0,0,0]","[1.68100000000004,3.687000000000012,5.303999999999974,6.769999999999982,7.204000000000065]","[""trial_left_box"",""trial_sharp_left_box"",""trial_sharp_right_box"",""trial_ahead_box""]",0,63,63,1,1,airportTerminal4.jpg,apartmentBuilding1.jpg,applestore1.jpg,airportTerminal3.jpg,,
Image_List_5,,,,,,,,,,,,,,,,44365,2020-11-23_00h18.51.613,lingCatScenes,2020.1.3,MacIntel,60,"[1440,900]",,,"[""trial_ahead_box"",""trial_slight_right_box"",""trial_right_box"",""trial_slight_left_box"",""trial_left_box""]",,,,,,,,,,,,mallindoor6.jpg,space,6.026,"[0.0044444444444444444,0.19777777777777777,0.3888888888888889,-0.21,-0.43222222222222223,-0.41888888888888887]","[-0.31,-0.3088888888888889,-0.3011111111111111,-0.2966666666666667,-0.28555555555555556,-0.2911111111111111]","[1,1,1,1,1,1]","[0,0,0,0,0,0]","[0,0,0,0,0,0]","[1.2720000000000482,2.5049999999999955,3.105000000000018,3.9880000000000564,4.604000000000042,5.238000000000056]","[""trial_ahead_box"",""trial_slight_right_box"",""trial_right_box"",""trial_slight_left_box"",""trial_left_box""]",0,64,64,77,1,parkinggarage2.jpg,playroom6.jpg,pasture9.jpg,park8.jpg,,
Image_List_5,,,,,,,,,,,,,,,,44365,2020-11-23_00h18.51.613,lingCatScenes,2020.1.3,MacIntel,60,"[1440,900]",,,"[""trial_ahead_box"",""trial_slight_left_box"",""trial_left_box"",""trial_slight_right_box"",""trial_right_box"",""trial_sharp_right_box"",""trial_sharp_left_box""]",,,,,,,,,,,,tenniscourt.jpg,space,6.925,"[-0.01,-0.17555555555555555,-0.36777777777777776,-0.39222222222222225,0.20666666666666667,0.4444444444444444,0.41333333333333333,0.6122222222222222,-0.6111111111111112]","[-0.29,-0.2911111111111111,-0.29555555555555557,-0.2966666666666667,-0.2877777777777778,-0.29555555555555557,-0.29555555555555557,-0.3,-0.28555555555555556]","[1,1,1,1,1,1,1,1,1]","[0,0,0,0,0,0,0,0,0]","[0,0,0,0,0,0,0,0,0]","[1.6140000000000327,2.247000000000071,2.8460000000000036,3.413000000000011,4.278999999999996,4.778999999999996,5.146000000000072,5.680000000000064,6.663000000000011]","[""trial_ahead_box"",""trial_slight_left_box"",""trial_left_box"",""trial_slight_right_box"",""trial_right_box"",""trial_sharp_right_box"",""trial_sharp_left_box""]",0,65,65,93,1,tollbooth8.jpg,volleyballcourt4.jpg,staircase4.jpg,warehouseoutside2.jpg,,
Image_List_5,,,,,,,,,,,,,,,,44365,2020-11-23_00h18.51.613,lingCatScenes,2020.1.3,MacIntel,60,"[1440,900]",,,"[""trial_ahead_box"",""trial_slight_left_box"",""trial_slight_right_box""]",,,,,,,,,,,,botanicalGarden4.jpg,space,5.049,"[0.0044444444444444444,-0.20555555555555555,0.18666666666666668]","[-0.2833333333333333,-0.31222222222222223,-0.3111111111111111]","[1,1,1]","[0,0,0]","[0,0,0]","[1.3619999999999663,4.07000000000005,4.802999999999997]","[""trial_ahead_box"",""trial_slight_left_box"",""trial_slight_right_box""]",0,66,66,25,1,campsite7.jpg,conference3.jpg,church3.jpg,checkoutcounter2.jpg,,
Image_List_5,,,,,,,,,,,,,,,,44365,2020-11-23_00h18.51.613,lingCatScenes,2020.1.3,MacIntel,60,"[1440,900]",,,"[""trial_right_box"",""trial_sharp_right_box""]",,,,,,,,,,,,campusquad1.jpg,space,5.325,"[0.4177777777777778,0.5911111111111111]","[-0.29888888888888887,-0.30777777777777776]","[1,1]","[0,0]","[0,0]","[1.6420000000000528,2.324000000000069]","[""trial_right_box"",""trial_sharp_right_box""]",0,67,67,34,1,deck4.jpg,diningroom5.jpg,courthouse4.jpg,diner11.jpg,,
Image_List_5,,,,,,,,,,,,,,,,44365,2020-11-23_00h18.51.613,lingCatScenes,2020.1.3,MacIntel,60,"[1440,900]",,,"[""trial_ahead_box""]",,,,,,,,,,,,forestpath2.jpg,space,4.064,[0.012222222222222223],[-0.30444444444444446],[1],[0],[0],[1.3619999999999663],"[""trial_ahead_box""]",0,68,68,52,1,gasstation7.jpg,hardwarestore1.jpg,frontFoyer6.jpg,highway.jpg,,
Image_List_5,,,,,,,,,,,,,,,,44365,2020-11-23_00h18.51.613,lingCatScenes,2020.1.3,MacIntel,60,"[1440,900]",,,"[""trial_right_box"",""trial_sharp_left_box""]",,,,,,,,,,,,hospitalroom2.jpg,space,10.056,"[-0.4,0.42777777777777776,0.3877777777777778,-0.5922222222222222,-0.4077777777777778]","[-0.29777777777777775,-0.31,-0.3244444444444444,-0.29333333333333333,-0.30444444444444446]","[1,1,1,1,1]","[0,0,0,0,0]","[0,0,0,0,0]","[2.728999999999928,4.5359999999999445,5.569999999999936,8.144999999999982,9.495999999999981]","[""trial_left_box"",""trial_right_box"",""trial_sharp_left_box"",""trial_left_box""]",0,69,69,67,1,library_aisle3.jpg,park7.jpg,laundromat4.jpg,liquorstore2.jpg,,
Image_List_5,,,,,,,,,,,,,,,,44365,2020-11-23_00h18.51.613,lingCatScenes,2020.1.3,MacIntel,60,"[1440,900]",,,"[""trial_right_box"",""trial_slight_right_box"",""trial_ahead_box""]",,,,,,,,,,,,boardwalk.jpg,space,5.703,"[0.38555555555555554,0.19555555555555557,0]","[-0.3022222222222222,-0.3011111111111111,-0.29777777777777775]","[1,1,1]","[0,0,0]","[0,0,0]","[1.697999999999979,2.7480000000000473,3.699000000000069]","[""trial_right_box"",""trial_slight_right_box"",""trial_ahead_box""]",0,70,70,24,1,campsite.jpg,cliff3.jpg,cave6.jpg,cemetery5.jpg,,
Image_List_5,,,,,,,,,,,,,,,,44365,2020-11-23_00h18.51.613,lingCatScenes,2020.1.3,MacIntel,60,"[1440,900]",,,"[""trial_ahead_box"",""trial_slight_left_box""]",,,,,,,,,,,,arcade2.jpg,space,3.926,"[0.0033333333333333335,-0.21777777777777776]","[-0.29444444444444445,-0.29555555555555557]","[1,1]","[0,0]","[0,0]","[1.3630000000000564,2.51400000000001]","[""trial_ahead_box"",""trial_slight_left_box""]",0,71,71,9,1,auto_showroom3.jpg,bar2.jpg,ballroom2.jpg,basement5.jpg,,
Image_List_5,,,,,,,,,,,,,,,,44365,2020-11-23_00h18.51.613,lingCatScenes,2020.1.3,MacIntel,60,"[1440,900]",,,"[""trial_sharp_right_box"",""trial_sharp_left_box"",""trial_ahead_box""]",,,,,,,,,,,,fireplace4.jpg,space,4.787,"[0.5833333333333334,-0.6088888888888889,0.0077777777777777776]","[-0.3088888888888889,-0.28555555555555556,-0.3111111111111111]","[1,1,1]","[0,0,0]","[0,0,0]","[2.17999999999995,3.63799999999992,4.487999999999943]","[""trial_sharp_right_box"",""trial_sharp_left_box"",""trial_ahead_box""]",0,72,72,50,1,frontLawn4.jpg,grocerystore6.jpg,forestpath6.jpg,hallway2.jpg,,
Image_List_5,,,,,,,,,,,,,,,,44365,2020-11-23_00h18.51.613,lingCatScenes,2020.1.3,MacIntel,60,"[1440,900]",,,"[""trial_ahead_box"",""trial_slight_left_box"",""trial_slight_right_box""]",,,,,,,,,,,,cabin3.jpg,space,3.789,"[0.0033333333333333335,-0.22,0.21333333333333335]","[-0.3011111111111111,-0.30444444444444446,-0.31666666666666665]","[1,1,1]","[0,0,0]","[0,0,0]","[1.1140000000000327,2.84699999999998,3.4529999999999745]","[""trial_ahead_box"",""trial_slight_left_box"",""trial_slight_right_box""]",0,73,73,31,1,cubicle4.jpg,desertvegetation6.jpg,conference4.jpg,courtroom2.jpg,,
Image_List_5,,,,,,,,,,,,,,,,44365,2020-11-23_00h18.51.613,lingCatScenes,2020.1.3,MacIntel,60,"[1440,900]",,,"[""trial_slight_right_box"",""trial_ahead_box""]",,,,,,,,,,,,alley3.jpg,space,4.273,"[0.19666666666666666,-0.0077777777777777776]","[-0.3055555555555556,-0.2877777777777778]","[1,1]","[0,0]","[0,0]","[1.5760000000000218,2.8780000000000427]","[""trial_slight_right_box"",""trial_ahead_box""]",0,74,74,3,1,apartmentBuilding2.jpg,attic1.jpg,aquarium1.jpg,appleorchard2.jpg,,
Image_List_5,,,,,,,,,,,,,,,,44365,2020-11-23_00h18.51.613,lingCatScenes,2020.1.3,MacIntel,60,"[1440,900]",,,"[""trial_right_box"",""trial_left_box"",""trial_ahead_box""]",,,,,,,,,,,,dentist2.jpg,space,6.326,"[0.37555555555555553,-0.3988888888888889,-0.0011111111111111111]","[-0.31777777777777777,-0.29444444444444445,-0.3022222222222222]","[1,1,1]","[0,0,0]","[0,0,0]","[2.4850000000000136,5.152000000000044,6.073000000000093]","[""trial_right_box"",""trial_left_box"",""trial_ahead_box""]",0,75,75,41,1,dugout4.jpg,farm3.jpg,drymountains3.jpg,fabricstore1.jpg,,
Image_List_5,,,,,,,,,,,,,,,,44365,2020-11-23_00h18.51.613,lingCatScenes,2020.1.3,MacIntel,60,"[1440,900]",,,"[""trial_slight_right_box"",""trial_right_box"",""trial_ahead_box""]",,,,,,,,,,,,lightingstore2.jpg,space,4.718,"[0.21444444444444444,0.3811111111111111,0.0033333333333333335]","[-0.3022222222222222,-0.3188888888888889,-0.30777777777777776]","[1,1,1]","[0,0,0]","[0,0,0]","[2.844000000000051,3.411000000000058,4.469000000000051]","[""trial_slight_right_box"",""trial_right_box"",""trial_ahead_box""]",0,76,76,74,1,newsstand2.jpg,playground10.jpg,observatory4.jpeg,operatingroom1.jpg,,
Image_List_5,,,,,,,,,,,,,,,,44365,2020-11-23_00h18.51.613,lingCatScenes,2020.1.3,MacIntel,60,"[1440,900]",,,"[""trial_ahead_box"",""trial_left_box"",""trial_right_box""]",,,,,,,,,,,,gazebo.jpg,space,5.968,"[0,-0.3988888888888889,0.4066666666666667]","[-0.30444444444444446,-0.28,-0.3188888888888889]","[1,1,1]","[0,0,0]","[0,0,0]","[2.19500000000005,3.4289999999999736,5.4529999999999745]","[""trial_ahead_box"",""trial_left_box"",""trial_right_box""]",0,77,77,57,1,hayfield5.jpg,jail1.jpg,hallway4.jpg,hut5.jpg,,
Image_List_5,,,,,,,,,,,,,,,,44365,2020-11-23_00h18.51.613,lingCatScenes,2020.1.3,MacIntel,60,"[1440,900]",,,"[""trial_right_box"",""trial_slight_right_box""]",,,,,,,,,,,,warehouse1.jpg,space,4.672,"[0.3877777777777778,0.20444444444444446]","[-0.30444444444444446,-0.3111111111111111]","[1,1]","[0,0]","[0,0]","[1.1989999999999554,4.206000000000017]","[""trial_right_box"",""trial_slight_right_box""]",0,78,78,96,1,warehouse4.jpg,warehouseoutside1.jpg,tenniscourt3.jpg,windmill1.jpg,,
Image_List_5,,,,,,,,,,,,,,,,44365,2020-11-23_00h18.51.613,lingCatScenes,2020.1.3,MacIntel,60,"[1440,900]",,,"[""trial_right_box"",""trial_left_box""]",,,,,,,,,,,,cabinIndoors5.jpg,space,4.214,"[0.3977777777777778,-0.39222222222222225]","[-0.3,-0.29333333333333333]","[1,1]","[0,0]","[0,0]","[1.5090000000000146,3.241999999999962]","[""trial_right_box"",""trial_left_box""]",0,79,79,33,1,deck1.jpg,diningroom1.jpg,courthouse2.jpg,diner10.jpg,,
Image_List_5,,,,,,,,,,,,,,,,44365,2020-11-23_00h18.51.613,lingCatScenes,2020.1.3,MacIntel,60,"[1440,900]",,,"[""trial_ahead_box""]",,,,,,,,,,,,alley4.jpg,space,3.524,[-0.0022222222222222222],[-0.2911111111111111],[1],[0],[0],[1.3289999999999509],"[""trial_ahead_box""]",0,80,80,4,1,artStudio1.jpg,baggageClaim2.jpg,auto_showroom1.jpg,appleorchard3.jpg,,
Image_List_5,,,,,,,,,,,,,,,,44365,2020-11-23_00h18.51.613,lingCatScenes,2020.1.3,MacIntel,60,"[1440,900]",,,"[""trial_right_box""]",,,,,,,,,,,,botanicalGarden7.jpg,space,4.007,[0.39444444444444443],[-0.29444444444444445],[1],[0],[0],[2.271000000000072],"[""trial_right_box""]",0,81,81,26,1,campusquad2.jpg,cornfield4.jpg,church4.jpg,churchInside3.jpg,,
Image_List_5,,,,,,,,,,,,,,,,44365,2020-11-23_00h18.51.613,lingCatScenes,2020.1.3,MacIntel,60,"[1440,900]",,,"[""trial_ahead_box"",""trial_slight_right_box"",""trial_right_box""]",,,,,,,,,,,,backyard6.jpg,space,4.237,"[0.0022222222222222222,0.17666666666666667,0.38555555555555554]","[-0.3,-0.29777777777777775,-0.29555555555555557]","[1,1,1]","[0,0,0]","[0,0,0]","[2.270999999999958,3.086999999999989,3.8210000000000264]","[""trial_ahead_box"",""trial_slight_right_box"",""trial_right_box""]",0,82,82,13,1,balconyIN2.jpg,bowlingalley3.jpg,beach2.jpg,boardwalk4.jpg,,
Image_List_5,,,,,,,,,,,,,,,,44365,2020-11-23_00h18.51.613,lingCatScenes,2020.1.3,MacIntel,60,"[1440,900]",,,"[""trial_ahead_box"",""trial_slight_right_box"",""trial_slight_left_box""]",,,,,,,,,,,,horsebarn9.jpg,space,3.719,"[-0.0011111111111111111,0.21222222222222223,-0.18777777777777777]","[-0.30333333333333334,-0.30666666666666664,-0.2877777777777778]","[1,1,1]","[0,0,0]","[0,0,0]","[1.4320000000000164,2.032000000000039,3.22199999999998]","[""trial_ahead_box"",""trial_slight_right_box"",""trial_slight_left_box""]",0,83,83,66,1,library_aisle10.jpg,office3.jpg,laundromat3.jpg,liquorstore.jpg,,
Image_List_5,,,,,,,,,,,,,,,,44365,2020-11-23_00h18.51.613,lingCatScenes,2020.1.3,MacIntel,60,"[1440,900]",,,"[""trial_ahead_box"",""trial_slight_right_box"",""trial_slight_left_box"",""trial_right_box"",""trial_left_box""]",,,,,,,,,,,,soccerfield2.jpg,space,6.517,"[0.022222222222222223,0.19666666666666666,-0.19777777777777777,0.3788888888888889,-0.4066666666666667,-0.4066666666666667]","[-0.2966666666666667,-0.2877777777777778,-0.29333333333333333,-0.28,-0.2688888888888889,-0.2922222222222222]","[1,1,1,1,1,1]","[0,0,0,0,0,0]","[0,0,0,0,0,0]","[1.0459999999999354,1.8619999999999663,3.144999999999982,4.819999999999936,5.652999999999906,6.2029999999999745]","[""trial_ahead_box"",""trial_slight_right_box"",""trial_slight_left_box"",""trial_right_box"",""trial_left_box""]",0,84,84,92,1,staircase.jpg,volleyballcourt.jpg,skatepark7.jpg,tvstudio2.jpg,,
Image_List_5,,,,,,,,,,,,,,,,44365,2020-11-23_00h18.51.613,lingCatScenes,2020.1.3,MacIntel,60,"[1440,900]",,,"[""trial_ahead_box""]",,,,,,,,,,,,lookout4.jpg,space,3.797,[-0.024444444444444446],[-0.2922222222222222],[1],[0],[0],[1.2789999999999964],"[""trial_ahead_box""]",0,85,85,76,1,parkinggarage.jpg,playroom4.jpg,parkinggarage3.jpg,park2.jpg,,
Image_List_5,,,,,,,,,,,,,,,,44365,2020-11-23_00h18.51.613,lingCatScenes,2020.1.3,MacIntel,60,"[1440,900]",,,"[""trial_slight_right_box""]",,,,,,,,,,,,airplanecabin3.jpg,space,4.619,[0.2011111111111111],[-0.3088888888888889],[1],[0],[0],[1.76299999999992],"[""trial_slight_right_box""]",0,86,86,0,1,airplanecabin1.jpg,alley2.jpg,appleorchard4.jpg,airplanecabin5.jpg,,
Image_List_5,,,,,,,,,,,,,,,,44365,2020-11-23_00h18.51.613,lingCatScenes,2020.1.3,MacIntel,60,"[1440,900]",,,"[""trial_right_box"",""trial_left_box""]",,,,,,,,,,,,parkinggarage4.jpg,space,6.82,"[0.39555555555555555,-0.41333333333333333]","[-0.29888888888888887,-0.3088888888888889]","[1,1]","[0,0]","[0,0]","[4.106000000000108,5.22300000000007]","[""trial_right_box"",""trial_left_box""]",0,87,87,80,1,pavilion2.jpg,racecarcourse2.jpg,porch.jpg,poolhall5.jpg,,
Image_List_5,,,,,,,,,,,,,,,,44365,2020-11-23_00h18.51.613,lingCatScenes,2020.1.3,MacIntel,60,"[1440,900]",,,"[""trial_left_box"",""trial_sharp_left_box""]",,,,,,,,,,,,pasture8.jpg,space,5.106,"[-0.4033333333333333,-0.6]","[-0.3022222222222222,-0.3088888888888889]","[1,1]","[0,0]","[0,0]","[3.530999999999949,4.8139999999999645]","[""trial_left_box"",""trial_sharp_left_box""]",0,88,88,81,1,promenadeDeck.jpg,ruralroad5.jpg,promenadeDeck2.jpg,rainforest5.jpg,,
Image_List_5,,,,,,,,,,,,,,,,44365,2020-11-23_00h18.51.613,lingCatScenes,2020.1.3,MacIntel,60,"[1440,900]",,,"[""trial_left_box"",""trial_right_box""]",,,,,,,,,,,,hospitalroom3.jpg,space,4.936,"[-0.37333333333333335,-0.39444444444444443,0.4266666666666667,0.3933333333333333]","[-0.3188888888888889,-0.31222222222222223,-0.32222222222222224,-0.3022222222222222]","[1,1,1,1]","[0,0,0,0]","[0,0,0,0]","[1.802000000000021,2.701999999999998,4.052000000000021,4.619000000000028]","[""trial_left_box"",""trial_right_box""]",0,89,89,68,1,liquorstore7.jpg,parkinglot.jpg,lightingstore4.jpg,lockerroom2.jpg,,
Image_List_5,,,,,,,,,,,,,,,,44365,2020-11-23_00h18.51.613,lingCatScenes,2020.1.3,MacIntel,60,"[1440,900]",,,"[""trial_ahead_box"",""trial_left_box""]",,,,,,,,,,,,trainStation3.jpg,space,3.204,"[0.0033333333333333335,-0.38222222222222224]","[-0.3055555555555556,-0.3055555555555556]","[1,1]","[0,0]","[0,0]","[1.2469999999999573,2.7379999999999427]","[""trial_ahead_box"",""trial_left_box""]",0,90,90,94,1,treehouse.jpg,waitingroom3.jpg,staircase6.jpg,weightroom.jpg,,
Image_List_5,,,,,,,,,,,,,,,,44365,2020-11-23_00h18.51.613,lingCatScenes,2020.1.3,MacIntel,60,"[1440,900]",,,"[""trial_sharp_right_box"",""trial_sharp_left_box"",""trial_ahead_box""]",,,,,,,,,,,,apartmentBuilding3.jpg,space,6.981,"[0.5955555555555555,-0.6022222222222222,0.006666666666666667]","[-0.3022222222222222,-0.31555555555555553,-0.31]","[1,1,1]","[0,0,0]","[0,0,0]","[3.955000000000041,5.538000000000011,6.5049999999999955]","[""trial_sharp_right_box"",""trial_sharp_left_box"",""trial_ahead_box""]",0,91,91,6,1,ATM1.jpg,banquetHall2.jpg,auto_showroom5.jpg,baggageClaim1.jpg,,
Image_List_5,,,,,,,,,,,,,,,,44365,2020-11-23_00h18.51.613,lingCatScenes,2020.1.3,MacIntel,60,"[1440,900]",,,"[""trial_ahead_box"",""trial_sharp_left_box"",""trial_sharp_right_box""]",,,,,,,,,,,,observatory1.jpg,space,3.534,"[0.01,-0.5988888888888889,0.6011111111111112]","[-0.29555555555555557,-0.2922222222222222,-0.27555555555555555]","[1,1,1]","[0,0,0]","[0,0,0]","[1.2970000000000255,2.270999999999958,3.2369999999999663]","[""trial_ahead_box"",""trial_sharp_left_box"",""trial_sharp_right_box""]",0,92,92,78,1,parkinglot3.jpg,poolhall1.jpg,pier5.jpg,pavilion3.jpg,,
Image_List_5,,,,,,,,,,,,,,,,44365,2020-11-23_00h18.51.613,lingCatScenes,2020.1.3,MacIntel,60,"[1440,900]",,,"[""trial_ahead_box"",""trial_slight_right_box"",""trial_left_box"",""trial_right_box""]",,,,,,,,,,,,classroom1.jpg,space,9.761,"[0.0033333333333333335,0.19666666666666666,-0.4222222222222222,0.39]","[-0.32,-0.31,-0.28888888888888886,-0.29777777777777775]","[1,1,1,1]","[0,0,0,0]","[0,0,0,0]","[4.572999999999979,5.173000000000002,6.506999999999948,8.830999999999904]","[""trial_ahead_box"",""trial_slight_right_box"",""trial_left_box"",""trial_right_box""]",0,93,93,38,1,dining_car2.jpg,elevatorOutside4.jpg,dock1.jpg,driveway8.jpg,,
Image_List_5,,,,,,,,,,,,,,,,44365,2020-11-23_00h18.51.613,lingCatScenes,2020.1.3,MacIntel,60,"[1440,900]",,,"[""trial_ahead_box"",""trial_slight_right_box"",""trial_right_box"",""trial_slight_left_box"",""trial_left_box""]",,,,,,,,,,,,rooftop2.jpg,space,4.248,"[0.0033333333333333335,0.21666666666666667,0.3988888888888889,-0.2222222222222222,-0.3811111111111111]","[-0.2966666666666667,-0.2833333333333333,-0.2811111111111111,-0.30444444444444446,-0.2922222222222222]","[1,1,1,1,1]","[0,0,0,0,0]","[0,0,0,0,0]","[1.1299999999999955,1.6970000000000027,2.395999999999958,3.1970000000000027,3.9869999999999663]","[""trial_ahead_box"",""trial_slight_right_box"",""trial_right_box"",""trial_slight_left_box"",""trial_left_box""]",0,94,94,84,1,readingroom5.jpg,sidewalk2.jpg,restaurant13.jpg,sandDunes_desert_outdoor.jpg,,
Image_List_5,,,,,,,,,,,,,,,,44365,2020-11-23_00h18.51.613,lingCatScenes,2020.1.3,MacIntel,60,"[1440,900]",,,"[""trial_ahead_box"",""trial_sharp_left_box""]",,,,,,,,,,,,ATM4.jpg,space,6.657,"[0.021111111111111112,-0.6011111111111112]","[-0.3011111111111111,-0.3088888888888889]","[1,1]","[0,0]","[0,0]","[1.6129999999999427,4.322000000000003]","[""trial_ahead_box"",""trial_sharp_left_box""]",0,95,95,10,1,backstage2.jpg,barbershop3.jpg,ballroom4.jpg,basketballcourt3.jpg,,
Image_List_5,,,,,,,,,,,,,,,,44365,2020-11-23_00h18.51.613,lingCatScenes,2020.1.3,MacIntel,60,"[1440,900]",,,"[""trial_ahead_box""]",,,,,,,,,,,,bridalboutique3.jpg,space,5.202,[-0.0022222222222222222],[-0.31333333333333335],[1],[0],[0],[1.330000000000041],"[""trial_ahead_box""]",0,96,96,29,1,cornfield2.jpg,deck2.jpg,cliff2.jpg,constructionSite4.jpg,,
Image_List_5,,,,,,,,,,,,,,,,44365,2020-11-23_00h18.51.613,lingCatScenes,2020.1.3,MacIntel,60,"[1440,900]",,,"[""trial_slight_right_box"",""trial_right_box""]",,,,,,,,,,,,amusement3.jpg,space,2.872,"[0.2088888888888889,0.4477777777777778,0.42444444444444446]","[-0.29,-0.29777777777777775,-0.29777777777777775]","[1,1,1]","[0,0,0]","[0,0,0]","[1.1779999999999973,1.9279999999999973,2.31899999999996]","[""trial_slight_right_box"",""trial_right_box""]",0,97,97,5,1,artStudio3.jpg,bambooforest.jpg,auto_showroom4.jpg,attic4.jpg,,
Image_List_5,,,,,,,,,,,,,,,,44365,2020-11-23_00h18.51.613,lingCatScenes,2020.1.3,MacIntel,60,"[1440,900]",,,"[""trial_slight_left_box"",""trial_ahead_box""]",,,,,,,,,,,,dock2.jpg,space,4.393,"[-0.21,-0.006666666666666667]","[-0.3111111111111111,-0.29333333333333333]","[1,1]","[0,0]","[0,0]","[1.7630000000000337,4.045999999999935]","[""trial_slight_left_box"",""trial_ahead_box""]",0,98,98,44,1,firestation2.jpg,frontFoyer4.jpg,elevatorOutside1.jpg,foodcourt6.jpg,,
Image_List_5,,,,,,,,,,,,,,,,44365,2020-11-23_00h18.51.613,lingCatScenes,2020.1.3,MacIntel,60,"[1440,900]",,,"[""trial_right_box"",""trial_left_box""]",,,,,,,,,,,,sculpturegarden3.jpg,space,4.04,"[0.39666666666666667,-0.3877777777777778]","[-0.30666666666666664,-0.2877777777777778]","[1,1]","[0,0]","[0,0]","[1.6959999999999127,2.5810000000000173]","[""trial_right_box"",""trial_left_box""]",0,99,99,89,1,ruralroad7.jpg,track5.jpg,ShowJumping7.jpg,staircase7.jpg,,
Image_List_5,,,,,,,,,,,,,,,,44365,2020-11-23_00h18.51.613,lingCatScenes,2020.1.3,MacIntel,60,,,,,,,,,,,,,,,,,,,,,,,,,,,,,,,,,,,space,31.295
