image_list,key_resp_intructions.keys,key_resp_intructions.rt,key_resp_intructions_3.keys,key_resp_intructions_3.rt,PracticeComplete_2.keys,PracticeComplete_2.rt,PracticeComplete_3.keys,PracticeComplete_3.rt,demo_trials.thisRepN,demo_trials.thisTrialN,demo_trials.thisN,demo_trials.thisIndex,demo_trials.ran,demo_images,path_images,participant,date,expName,psychopyVersion,OS,frameRate,windowSize,practice_complete.keys,practice_complete.rt,boxes_checked,PracticeComplete.keys,PracticeComplete.rt,practice_trials.thisRepN,practice_trials.thisTrialN,practice_trials.thisN,practice_trials.thisIndex,practice_trials.ran,practice_images,feedback_images,key_resp_intructions_2.keys,key_resp_intructions_2.rt,Image_List_3,trial_complete.keys,trial_complete.rt,trial_mouse.x,trial_mouse.y,trial_mouse.leftButton,trial_mouse.midButton,trial_mouse.rightButton,trial_mouse.time,trial_mouse.clicked_name,trials.thisRepN,trials.thisTrialN,trials.thisN,trials.thisIndex,trials.ran,Image_List_1,Image_List_2,Image_List_4,Image_List_5,key_resp.keys,key_resp.rt
Image_List_3,space,1.286,space,0.627,space,10.032,space,0.566,0,0,0,4,1,left.jpg,left_path.jpg,44386,2020-11-19_12h52.54.297,lingCatScenes,2020.1.3,MacIntel,60,,,,,,,,,,,,,,,,,,,,,,,,,,,,,,,,,,,,
Image_List_3,,,,,space,0.142,space,0.158,0,1,1,6,1,right_left.jpg,right_left_path.jpg,44386,2020-11-19_12h52.54.297,lingCatScenes,2020.1.3,MacIntel,60,,,,,,,,,,,,,,,,,,,,,,,,,,,,,,,,,,,,
Image_List_3,,,,,space,0.029,space,0.009,0,2,2,1,1,ahead_left.jpg,ahead_left_path.jpg,44386,2020-11-19_12h52.54.297,lingCatScenes,2020.1.3,MacIntel,60,,,,,,,,,,,,,,,,,,,,,,,,,,,,,,,,,,,,
Image_List_3,,,,,space,0.059,space,0.15,0,3,3,3,1,ahead_right_left.jpg,ahead_right_left_path.jpg,44386,2020-11-19_12h52.54.297,lingCatScenes,2020.1.3,MacIntel,60,,,,,,,,,,,,,,,,,,,,,,,,,,,,,,,,,,,,
Image_List_3,,,,,space,0.164,space,0.124,0,4,4,5,1,right.jpg,right_path.jpg,44386,2020-11-19_12h52.54.297,lingCatScenes,2020.1.3,MacIntel,60,,,,,,,,,,,,,,,,,,,,,,,,,,,,,,,,,,,,
Image_List_3,,,,,space,0.119,space,0.146,0,5,5,2,1,ahead_right.jpg,ahead_right_path.jpg,44386,2020-11-19_12h52.54.297,lingCatScenes,2020.1.3,MacIntel,60,,,,,,,,,,,,,,,,,,,,,,,,,,,,,,,,,,,,
Image_List_3,,,,,space,0.146,space,0.165,0,6,6,0,1,ahead.jpg,ahead_path.jpg,44386,2020-11-19_12h52.54.297,lingCatScenes,2020.1.3,MacIntel,60,,,,,,,,,,,,,,,,,,,,,,,,,,,,,,,,,,,,
Image_List_3,,,,,,,,,,,,,,,,44386,2020-11-19_12h52.54.297,lingCatScenes,2020.1.3,MacIntel,60,"[1440,724]",space,0.117,[],space,0.126,0,0,0,0,1,ahead_2.jpg,ahead_2_path.jpg,,,,,,,,,,,,,,,,,,,,,,,
Image_List_3,,,,,,,,,,,,,,,,44386,2020-11-19_12h52.54.297,lingCatScenes,2020.1.3,MacIntel,60,"[1440,724]",space,0.09,[],space,0.097,0,1,1,4,1,left_2.jpg,left_2_path.jpg,,,,,,,,,,,,,,,,,,,,,,,
Image_List_3,,,,,,,,,,,,,,,,44386,2020-11-19_12h52.54.297,lingCatScenes,2020.1.3,MacIntel,60,"[1440,724]",space,0.143,[],space,0.173,0,2,2,2,1,ahead_right_2.jpg,ahead_right_2_path.jpg,,,,,,,,,,,,,,,,,,,,,,,
Image_List_3,,,,,,,,,,,,,,,,44386,2020-11-19_12h52.54.297,lingCatScenes,2020.1.3,MacIntel,60,"[1440,724]",space,0.312,[],space,0.168,0,3,3,6,1,right_left_2.jpg,right_left_2_path.jpg,,,,,,,,,,,,,,,,,,,,,,,
Image_List_3,,,,,,,,,,,,,,,,44386,2020-11-19_12h52.54.297,lingCatScenes,2020.1.3,MacIntel,60,"[1440,724]",space,0.126,[],space,0.076,0,4,4,1,1,ahead_left_2.jpg,ahead_left_2_path.jpg,,,,,,,,,,,,,,,,,,,,,,,
Image_List_3,,,,,,,,,,,,,,,,44386,2020-11-19_12h52.54.297,lingCatScenes,2020.1.3,MacIntel,60,"[1440,724]",space,0.171,[],space,0.117,0,5,5,3,1,ahead_right_left_2.jpg,ahead_right_left_2_path.jpg,,,,,,,,,,,,,,,,,,,,,,,
Image_List_3,,,,,,,,,,,,,,,,44386,2020-11-19_12h52.54.297,lingCatScenes,2020.1.3,MacIntel,60,"[1440,724]",space,0.124,[],space,0.131,0,6,6,5,1,right_2.jpg,right_2_path.jpg,,,,,,,,,,,,,,,,,,,,,,,
Image_List_3,,,,,,,,,,,,,,,,44386,2020-11-19_12h52.54.297,lingCatScenes,2020.1.3,MacIntel,60,"[1440,724]",,,[],,,,,,,,,,space,0.132,flowershop3.jpg,space,0.116,[],[],[],[],[],[],[],0,0,0,49,1,frontDoor3.jpg,greenhouse5.jpg,greenhouse.jpg,farm2.jpg,,
Image_List_3,,,,,,,,,,,,,,,,44386,2020-11-19_12h52.54.297,lingCatScenes,2020.1.3,MacIntel,60,"[1440,724]",,,[],,,,,,,,,,,,tenniscourt3.jpg,space,0.141,[],[],[],[],[],[],[],0,1,1,96,1,warehouse4.jpg,warehouseoutside1.jpg,windmill1.jpg,warehouse1.jpg,,
Image_List_3,,,,,,,,,,,,,,,,44386,2020-11-19_12h52.54.297,lingCatScenes,2020.1.3,MacIntel,60,"[1440,724]",,,[],,,,,,,,,,,,breakroom4.jpg,space,0.126,[],[],[],[],[],[],[],0,2,2,17,1,bikerack1.jpg,campsite6.jpg,carmechanic.jpg,baseball6.jpg,,
Image_List_3,,,,,,,,,,,,,,,,44386,2020-11-19_12h52.54.297,lingCatScenes,2020.1.3,MacIntel,60,"[1440,724]",,,[],,,,,,,,,,,,churchInside4.jpg,space,0.144,[],[],[],[],[],[],[],0,3,3,27,1,castle3.jpg,courtroom3.jpg,closet.jpg,brewery2.jpg,,
Image_List_3,,,,,,,,,,,,,,,,44386,2020-11-19_12h52.54.297,lingCatScenes,2020.1.3,MacIntel,60,"[1440,724]",,,[],,,,,,,,,,,,homegarage.jpg,space,0.135,[],[],[],[],[],[],[],0,4,4,60,1,hometheater2.jpg,lightingstore3.jpg,kindergarten_classroom6.jpg,hallway.jpg,,
Image_List_3,,,,,,,,,,,,,,,,44386,2020-11-19_12h52.54.297,lingCatScenes,2020.1.3,MacIntel,60,"[1440,724]",,,[],,,,,,,,,,,,playground9.jpg,space,0.145,[],[],[],[],[],[],[],0,5,5,79,1,pasture.jpg,poolhall2.jpeg,pier2.jpg,observatory2.jpg,,
Image_List_3,,,,,,,,,,,,,,,,44386,2020-11-19_12h52.54.297,lingCatScenes,2020.1.3,MacIntel,60,"[1440,724]",,,[],,,,,,,,,,,,windmill2.jpg,space,0.15,[],[],[],[],[],[],[],0,6,6,99,1,wineVineyard9.jpg,yogastudio4.jpg,wrestlingring7.jpg,yogastudio1.jpg,,
Image_List_3,,,,,,,,,,,,,,,,44386,2020-11-19_12h52.54.297,lingCatScenes,2020.1.3,MacIntel,60,"[1440,724]",,,[],,,,,,,,,,,,beach2.jpg,space,0.132,[],[],[],[],[],[],[],0,7,7,13,1,balconyIN2.jpg,bowlingalley3.jpg,boardwalk4.jpg,backyard6.jpg,,
Image_List_3,,,,,,,,,,,,,,,,44386,2020-11-19_12h52.54.297,lingCatScenes,2020.1.3,MacIntel,60,"[1440,724]",,,[],,,,,,,,,,,,skatepark7.jpg,space,0.135,[],[],[],[],[],[],[],0,8,8,92,1,staircase.jpg,volleyballcourt.jpg,tvstudio2.jpg,soccerfield2.jpg,,
Image_List_3,,,,,,,,,,,,,,,,44386,2020-11-19_12h52.54.297,lingCatScenes,2020.1.3,MacIntel,60,"[1440,724]",,,[],,,,,,,,,,,,dugout2.jpg,space,0.145,[],[],[],[],[],[],[],0,9,9,43,1,exerciseequipment5.jpg,forestpath10.jpg,foodcourt.jpg,diningroom3.jpg,,
Image_List_3,,,,,,,,,,,,,,,,44386,2020-11-19_12h52.54.297,lingCatScenes,2020.1.3,MacIntel,60,"[1440,724]",,,[],,,,,,,,,,,,dining_car3.jpg,space,0.149,[],[],[],[],[],[],[],0,10,10,36,1,diner14.jpg,dormroom9.jpg,doctor1.jpg,checkoutcounter9.jpg,,
Image_List_3,,,,,,,,,,,,,,,,44386,2020-11-19_12h52.54.297,lingCatScenes,2020.1.3,MacIntel,60,"[1440,724]",,,[],,,,,,,,,,,,auto_showroom4.jpg,space,0.167,[],[],[],[],[],[],[],0,11,11,5,1,artStudio3.jpg,bambooforest.jpg,attic4.jpg,amusement3.jpg,,
Image_List_3,,,,,,,,,,,,,,,,44386,2020-11-19_12h52.54.297,lingCatScenes,2020.1.3,MacIntel,60,"[1440,724]",,,[],,,,,,,,,,,,auto_showroom5.jpg,space,0.16,[],[],[],[],[],[],[],0,12,12,6,1,ATM1.jpg,banquetHall2.jpg,baggageClaim1.jpg,apartmentBuilding3.jpg,,
Image_List_3,,,,,,,,,,,,,,,,44386,2020-11-19_12h52.54.297,lingCatScenes,2020.1.3,MacIntel,60,"[1440,724]",,,[],,,,,,,,,,,,dinosaur4.jpg,space,0.146,[],[],[],[],[],[],[],0,13,13,37,1,dining_car.jpg,driveway4.jpg,driveway7.jpg,citystreet9.jpg,,
Image_List_3,,,,,,,,,,,,,,,,44386,2020-11-19_12h52.54.297,lingCatScenes,2020.1.3,MacIntel,60,"[1440,724]",,,[],,,,,,,,,,,,nursery.jpg,space,0.128,[],[],[],[],[],[],[],0,14,14,73,1,musicStore3.jpg,photographer_studio2.jpg,nursery4.jpg,library_aisle9.jpg,,
Image_List_3,,,,,,,,,,,,,,,,44386,2020-11-19_12h52.54.297,lingCatScenes,2020.1.3,MacIntel,60,"[1440,724]",,,[],,,,,,,,,,,,brewery4.jpg,space,0.139,[],[],[],[],[],[],[],0,15,15,18,1,bleachers5.jpg,casino1.jpg,castle2.jpg,basement6.jpg,,
Image_List_3,,,,,,,,,,,,,,,,44386,2020-11-19_12h52.54.297,lingCatScenes,2020.1.3,MacIntel,60,"[1440,724]",,,[],,,,,,,,,,,,jewelrystore8.jpg,space,0.15,[],[],[],[],[],[],[],0,16,16,64,1,igloo2.jpg,newsstand5.jpg,lab5.jpg,homegarage2.jpg,,
Image_List_3,,,,,,,,,,,,,,,,44386,2020-11-19_12h52.54.297,lingCatScenes,2020.1.3,MacIntel,60,"[1440,724]",,,[],,,,,,,,,,,,drymountains3.jpg,space,0.161,[],[],[],[],[],[],[],0,17,17,41,1,dugout4.jpg,farm3.jpg,fabricstore1.jpg,dentist2.jpg,,
Image_List_3,,,,,,,,,,,,,,,,44386,2020-11-19_12h52.54.297,lingCatScenes,2020.1.3,MacIntel,60,"[1440,724]",,,[],,,,,,,,,,,,hedgemaze1.jpg,space,0.144,[],[],[],[],[],[],[],0,18,18,58,1,highway7.jpg,lab1.jpg,igloo4.jpg,grocerystore2.jpg,,
Image_List_3,,,,,,,,,,,,,,,,44386,2020-11-19_12h52.54.297,lingCatScenes,2020.1.3,MacIntel,60,"[1440,724]",,,[],,,,,,,,,,,,applestore6.jpg,space,0.16,[],[],[],[],[],[],[],0,19,19,2,1,alley1.jpg,arcade1.jpg,apartmentBuilding4.jpg,airportTerminal6.jpg,,
Image_List_3,,,,,,,,,,,,,,,,44386,2020-11-19_12h52.54.297,lingCatScenes,2020.1.3,MacIntel,60,"[1440,724]",,,[],,,,,,,,,,,,ruralroad2.jpg,space,0.144,[],[],[],[],[],[],[],0,20,20,85,1,recordingstudio4.jpg,sidewalk5.jpg,sandDunes_desert_outdoor3.jpg,rooftop3.jpg,,
Image_List_3,,,,,,,,,,,,,,,,44386,2020-11-19_12h52.54.297,lingCatScenes,2020.1.3,MacIntel,60,"[1440,724]",,,[],,,,,,,,,,,,ballroom2.jpg,space,0.161,[],[],[],[],[],[],[],0,21,21,9,1,auto_showroom3.jpg,bar2.jpg,basement5.jpg,arcade2.jpg,,
Image_List_3,,,,,,,,,,,,,,,,44386,2020-11-19_12h52.54.297,lingCatScenes,2020.1.3,MacIntel,60,"[1440,724]",,,[],,,,,,,,,,,,frontFoyer6.jpg,space,0.143,[],[],[],[],[],[],[],0,22,22,52,1,gasstation7.jpg,hardwarestore1.jpg,highway.jpg,forestpath2.jpg,,
Image_List_3,,,,,,,,,,,,,,,,44386,2020-11-19_12h52.54.297,lingCatScenes,2020.1.3,MacIntel,60,"[1440,724]",,,[],,,,,,,,,,,,staircase6.jpg,space,0.163,[],[],[],[],[],[],[],0,23,23,94,1,treehouse.jpg,waitingroom3.jpg,weightroom.jpg,trainStation3.jpg,,
Image_List_3,,,,,,,,,,,,,,,,44386,2020-11-19_12h52.54.297,lingCatScenes,2020.1.3,MacIntel,60,"[1440,724]",,,[],,,,,,,,,,,,sidewalk1.jpg,space,0.128,[],[],[],[],[],[],[],0,24,24,90,1,savanna5.jpg,trainStation1.jpg,stripmall3.jpg,shoestore4.jpg,,
Image_List_3,,,,,,,,,,,,,,,,44386,2020-11-19_12h52.54.297,lingCatScenes,2020.1.3,MacIntel,60,"[1440,724]",,,[],,,,,,,,,,,,forestpath6.jpg,space,0.149,[],[],[],[],[],[],[],0,25,25,50,1,frontLawn4.jpg,grocerystore6.jpg,hallway2.jpg,fireplace4.jpg,,
Image_List_3,,,,,,,,,,,,,,,,44386,2020-11-19_12h52.54.297,lingCatScenes,2020.1.3,MacIntel,60,"[1440,724]",,,[],,,,,,,,,,,,horsebarn8.jpg,space,0.169,[],[],[],[],[],[],[],0,26,26,62,1,hotellobby2.jpg,minigolf.jpg,lab3.jpg,hayfield7.jpg,,
Image_List_3,,,,,,,,,,,,,,,,44386,2020-11-19_12h52.54.297,lingCatScenes,2020.1.3,MacIntel,60,"[1440,724]",,,[],,,,,,,,,,,,church3.jpg,space,0.179,[],[],[],[],[],[],[],0,27,27,25,1,campsite7.jpg,conference3.jpg,checkoutcounter2.jpg,botanicalGarden4.jpg,,
Image_List_3,,,,,,,,,,,,,,,,44386,2020-11-19_12h52.54.297,lingCatScenes,2020.1.3,MacIntel,60,"[1440,724]",,,[],,,,,,,,,,,,drymountains6.jpg,space,0.15,[],[],[],[],[],[],[],0,28,28,42,1,exerciseequipment3.jpg,firestation3.jpg,farm4.jpg,desertvegetation2.jpg,,
Image_List_3,,,,,,,,,,,,,,,,44386,2020-11-19_12h52.54.297,lingCatScenes,2020.1.3,MacIntel,60,"[1440,724]",,,[],,,,,,,,,,,,cafeteria1.jpg,space,0.179,[],[],[],[],[],[],[],0,29,29,19,1,boardwalk2.jpg,casino3.jpg,castle4.jpg,basketballcourt.jpg,,
Image_List_3,,,,,,,,,,,,,,,,44386,2020-11-19_12h52.54.297,lingCatScenes,2020.1.3,MacIntel,60,"[1440,724]",,,[],,,,,,,,,,,,bistrooutdoor5.jpg,space,0.143,[],[],[],[],[],[],[],0,30,30,14,1,ballroom1.jpg,breakroom5.jpg,botanicalGarden5.jpg,ballroom3.jpg,,
Image_List_3,,,,,,,,,,,,,,,,44386,2020-11-19_12h52.54.297,lingCatScenes,2020.1.3,MacIntel,60,"[1440,724]",,,[],,,,,,,,,,,,courthouse4.jpg,space,0.141,[],[],[],[],[],[],[],0,31,31,34,1,deck4.jpg,diningroom5.jpg,diner11.jpg,campusquad1.jpg,,
Image_List_3,,,,,,,,,,,,,,,,44386,2020-11-19_12h52.54.297,lingCatScenes,2020.1.3,MacIntel,60,"[1440,724]",,,[],,,,,,,,,,,,bambooforest5.jpg,space,0.146,[],[],[],[],[],[],[],0,32,32,12,1,baggageClaim4.jpg,bedroom6.jpg,bleachers7.jpg,backyard5.jpg,,
Image_List_3,,,,,,,,,,,,,,,,44386,2020-11-19_12h52.54.297,lingCatScenes,2020.1.3,MacIntel,60,"[1440,724]",,,[],,,,,,,,,,,,backstage1.jpg,space,0.162,[],[],[],[],[],[],[],0,33,33,7,1,attic2.jpg,banquetHall4.jpg,baggageClaim3.jpg,applestore2.jpg,,
Image_List_3,,,,,,,,,,,,,,,,44386,2020-11-19_12h52.54.297,lingCatScenes,2020.1.3,MacIntel,60,"[1440,724]",,,[],,,,,,,,,,,,hotelRoom2.jpg,space,0.166,[],[],[],[],[],[],[],0,34,34,63,1,hut2.jpg,museum6.jpg,lab4.jpg,highway2.jpg,,
Image_List_3,,,,,,,,,,,,,,,,44386,2020-11-19_12h52.54.297,lingCatScenes,2020.1.3,MacIntel,60,"[1440,724]",,,[],,,,,,,,,,,,fittingroom5.jpg,space,0.177,[],[],[],[],[],[],[],0,35,35,48,1,frontDoor2.jpg,golfcourse6.jpg,golfcourse7.jpg,fabricstore2.jpg,,
Image_List_3,,,,,,,,,,,,,,,,44386,2020-11-19_12h52.54.297,lingCatScenes,2020.1.3,MacIntel,60,"[1440,724]",,,[],,,,,,,,,,,,musicStore1.jpg,space,0.182,[],[],[],[],[],[],[],0,36,36,72,1,museum5.jpg,pharmacy4.jpg,museum4.jpg,kindergarten_classroom.jpg,,
Image_List_3,,,,,,,,,,,,,,,,44386,2020-11-19_12h52.54.297,lingCatScenes,2020.1.3,MacIntel,60,"[1440,724]",,,[],,,,,,,,,,,,elevatorOutside1.jpg,space,0.162,[],[],[],[],[],[],[],0,37,37,44,1,firestation2.jpg,frontFoyer4.jpg,foodcourt6.jpg,dock2.jpg,,
Image_List_3,,,,,,,,,,,,,,,,44386,2020-11-19_12h52.54.297,lingCatScenes,2020.1.3,MacIntel,60,"[1440,724]",,,[],,,,,,,,,,,,auto_showroom1.jpg,space,0.178,[],[],[],[],[],[],[],0,38,38,4,1,artStudio1.jpg,baggageClaim2.jpg,appleorchard3.jpg,alley4.jpg,,
Image_List_3,,,,,,,,,,,,,,,,44386,2020-11-19_12h52.54.297,lingCatScenes,2020.1.3,MacIntel,60,"[1440,724]",,,[],,,,,,,,,,,,ShowJumping7.jpg,space,0.163,[],[],[],[],[],[],[],0,39,39,89,1,ruralroad7.jpg,track5.jpg,staircase7.jpg,sculpturegarden3.jpg,,
Image_List_3,,,,,,,,,,,,,,,,44386,2020-11-19_12h52.54.297,lingCatScenes,2020.1.3,MacIntel,60,"[1440,724]",,,[],,,,,,,,,,,,church4.jpg,space,0.155,[],[],[],[],[],[],[],0,40,40,26,1,campusquad2.jpg,cornfield4.jpg,churchInside3.jpg,botanicalGarden7.jpg,,
Image_List_3,,,,,,,,,,,,,,,,44386,2020-11-19_12h52.54.297,lingCatScenes,2020.1.3,MacIntel,60,"[1440,724]",,,[],,,,,,,,,,,,highway4.jpg,space,0.173,[],[],[],[],[],[],[],0,41,41,59,1,homegarden7.jpg,library_aisle8.jpg,kindergarten_classroom5.jpg,grocerystore3.jpg,,
Image_List_3,,,,,,,,,,,,,,,,44386,2020-11-19_12h52.54.297,lingCatScenes,2020.1.3,MacIntel,60,"[1440,724]",,,[],,,,,,,,,,,,lockerroom3.jpg,space,0.159,[],[],[],[],[],[],[],0,42,42,70,1,lockerroom4.jpg,pavilion.jpg,minigolf8.jpg,igloo.jpg,,
Image_List_3,,,,,,,,,,,,,,,,44386,2020-11-19_12h52.54.297,lingCatScenes,2020.1.3,MacIntel,60,"[1440,724]",,,[],,,,,,,,,,,,citystreet10.jpg,space,0.16,[],[],[],[],[],[],[],0,43,43,28,1,churchInside1.jpg,dancestudio5.jpg,clothingstore5.jpg,bridalboutique2.jpg,,
Image_List_3,,,,,,,,,,,,,,,,44386,2020-11-19_12h52.54.297,lingCatScenes,2020.1.3,MacIntel,60,"[1440,724]",,,[],,,,,,,,,,,,promenadeDeck3.jpg,space,0.159,[],[],[],[],[],[],[],0,44,44,82,1,publicrestroom2.jpg,sandDunes_desert_outdoor9.jpg,readingroom4.jpg,postoffice4.jpg,,
Image_List_3,,,,,,,,,,,,,,,,44386,2020-11-19_12h52.54.297,lingCatScenes,2020.1.3,MacIntel,60,"[1440,724]",,,[],,,,,,,,,,,,skatepark5.jpg,space,0.162,[],[],[],[],[],[],[],0,45,45,91,1,shoestore2.jpg,trainStation5.jpg,ticket_counter6.jpg,sidewalk3.jpg,,
Image_List_3,,,,,,,,,,,,,,,,44386,2020-11-19_12h52.54.297,lingCatScenes,2020.1.3,MacIntel,60,"[1440,724]",,,[],,,,,,,,,,,,savanna.jpg,space,0.15,[],[],[],[],[],[],[],0,46,46,87,1,restaurantkitchen2.jpg,theater2.jpg,sculpturegarden2.jpg,RVinside2.jpg,,
Image_List_3,,,,,,,,,,,,,,,,44386,2020-11-19_12h52.54.297,lingCatScenes,2020.1.3,MacIntel,60,"[1440,724]",,,[],,,,,,,,,,,,factory1.jpg,space,0.167,[],[],[],[],[],[],[],0,47,47,45,1,fittingroom2.jpg,frontFoyer7.jpg,forestpath4.jpg,dock4.jpg,,
Image_List_3,,,,,,,,,,,,,,,,44386,2020-11-19_12h52.54.297,lingCatScenes,2020.1.3,MacIntel,60,"[1440,724]",,,[],,,,,,,,,,,,porch.jpg,space,0.169,[],[],[],[],[],[],[],0,48,48,80,1,pavilion2.jpg,racecarcourse2.jpg,poolhall5.jpg,parkinggarage4.jpg,,
Image_List_3,,,,,,,,,,,,,,,,44386,2020-11-19_12h52.54.297,lingCatScenes,2020.1.3,MacIntel,60,"[1440,724]",,,[],,,,,,,,,,,,clothingstore2.jpg,space,0.177,[],[],[],[],[],[],[],0,49,49,30,1,courthouse1.jpg,desertvegetation3.jpg,copyroom2.jpg,bus_shelter3.jpg,,
Image_List_3,,,,,,,,,,,,,,,,44386,2020-11-19_12h52.54.297,lingCatScenes,2020.1.3,MacIntel,60,"[1440,724]",,,[],,,,,,,,,,,,cargo5.jpg,space,0.176,[],[],[],[],[],[],[],0,50,50,22,1,bowlingalley5.jpg,church6.jpg,cemetery.jpg,bistrooutdoor6.jpg,,
Image_List_3,,,,,,,,,,,,,,,,44386,2020-11-19_12h52.54.297,lingCatScenes,2020.1.3,MacIntel,60,"[1440,724]",,,[],,,,,,,,,,,,breakroom2.jpg,space,0.172,[],[],[],[],[],[],[],0,51,51,16,1,basement.jpg,cafeteria6.jpg,campusquad4.jpg,barbershop2.jpg,,
Image_List_3,,,,,,,,,,,,,,,,44386,2020-11-19_12h52.54.297,lingCatScenes,2020.1.3,MacIntel,60,"[1440,724]",,,[],,,,,,,,,,,,hallway4.jpg,space,0.165,[],[],[],[],[],[],[],0,52,52,57,1,hayfield5.jpg,jail1.jpg,hut5.jpg,gazebo.jpg,,
Image_List_3,,,,,,,,,,,,,,,,44386,2020-11-19_12h52.54.297,lingCatScenes,2020.1.3,MacIntel,60,"[1440,724]",,,[],,,,,,,,,,,,campusquad3.jpg,space,0.185,[],[],[],[],[],[],[],0,53,53,21,1,botanicalGarden6.jpg,cemetery6.jpg,cave5.jpg,beach1.jpeg,,
Image_List_3,,,,,,,,,,,,,,,,44386,2020-11-19_12h52.54.297,lingCatScenes,2020.1.3,MacIntel,60,"[1440,724]",,,[],,,,,,,,,,,,pasture9.jpg,space,0.193,[],[],[],[],[],[],[],0,54,54,77,1,parkinggarage2.jpg,playroom6.jpg,park8.jpg,mallindoor6.jpg,,
Image_List_3,,,,,,,,,,,,,,,,44386,2020-11-19_12h52.54.297,lingCatScenes,2020.1.3,MacIntel,60,"[1440,724]",,,[],,,,,,,,,,,,livingroom.jpg,space,0.163,[],[],[],[],[],[],[],0,55,55,69,1,liquorstore8.jpg,parkinglot2.jpg,metroInside1.jpg,icecream2.jpg,,
Image_List_3,,,,,,,,,,,,,,,,44386,2020-11-19_12h52.54.297,lingCatScenes,2020.1.3,MacIntel,60,"[1440,724]",,,[],,,,,,,,,,,,farmersmarket4.jpg,space,0.177,[],[],[],[],[],[],[],0,56,56,46,1,flowershop.jpg,frontLawn5.jpg,fountain4.jpg,dormroom6.jpg,,
Image_List_3,,,,,,,,,,,,,,,,44386,2020-11-19_12h52.54.297,lingCatScenes,2020.1.3,MacIntel,60,"[1440,724]",,,[],,,,,,,,,,,,appleorchard4.jpg,space,0.193,[],[],[],[],[],[],[],0,57,57,0,1,airplanecabin1.jpg,alley2.jpg,airplanecabin5.jpg,airplanecabin3.jpg,,
Image_List_3,,,,,,,,,,,,,,,,44386,2020-11-19_12h52.54.297,lingCatScenes,2020.1.3,MacIntel,60,"[1440,724]",,,[],,,,,,,,,,,,bleachers8.jpg,space,0.179,[],[],[],[],[],[],[],0,58,58,15,1,bambooforest4.jpg,cafeteria5.jpg,cabinIndoors.jpg,bar8.jpg,,
Image_List_3,,,,,,,,,,,,,,,,44386,2020-11-19_12h52.54.297,lingCatScenes,2020.1.3,MacIntel,60,"[1440,724]",,,[],,,,,,,,,,,,laundromat2.jpeg,space,0.184,[],[],[],[],[],[],[],0,59,59,65,1,igloo5.jpg,newsstand7.jpg,labClass7.jpg,homeoffice8.jpg,,
Image_List_3,,,,,,,,,,,,,,,,44386,2020-11-19_12h52.54.297,lingCatScenes,2020.1.3,MacIntel,60,"[1440,724]",,,[],,,,,,,,,,,,applestore1.jpg,space,0.196,[],[],[],[],[],[],[],0,60,60,1,1,airportTerminal4.jpg,apartmentBuilding1.jpg,airportTerminal3.jpg,airportTerminal2.jpg,,
Image_List_3,,,,,,,,,,,,,,,,44386,2020-11-19_12h52.54.297,lingCatScenes,2020.1.3,MacIntel,60,"[1440,724]",,,[],,,,,,,,,,,,campsite3.jpg,space,0.16,[],[],[],[],[],[],[],0,61,61,20,1,boardwalk6.jpg,cave.jpg,cave4.jpg,basketballcourt7.jpg,,
Image_List_3,,,,,,,,,,,,,,,,44386,2020-11-19_12h52.54.297,lingCatScenes,2020.1.3,MacIntel,60,"[1440,724]",,,[],,,,,,,,,,,,promenadeDeck2.jpg,space,0.169,[],[],[],[],[],[],[],0,62,62,81,1,promenadeDeck.jpg,ruralroad5.jpg,rainforest5.jpg,pasture8.jpg,,
Image_List_3,,,,,,,,,,,,,,,,44386,2020-11-19_12h52.54.297,lingCatScenes,2020.1.3,MacIntel,60,"[1440,724]",,,[],,,,,,,,,,,,parkinggarage3.jpg,space,0.178,[],[],[],[],[],[],[],0,63,63,76,1,parkinggarage.jpg,playroom4.jpg,park2.jpg,lookout4.jpg,,
Image_List_3,,,,,,,,,,,,,,,,44386,2020-11-19_12h52.54.297,lingCatScenes,2020.1.3,MacIntel,60,"[1440,724]",,,[],,,,,,,,,,,,operatingroom4.jpg,space,0.159,[],[],[],[],[],[],[],0,64,64,75,1,pantry5.jpg,playground6.jpg,park.jpg,lockerroom.jpg,,
Image_List_3,,,,,,,,,,,,,,,,44386,2020-11-19_12h52.54.297,lingCatScenes,2020.1.3,MacIntel,60,"[1440,724]",,,[],,,,,,,,,,,,lightingstore4.jpg,space,0.168,[],[],[],[],[],[],[],0,65,65,68,1,liquorstore7.jpg,parkinglot.jpg,lockerroom2.jpg,hospitalroom3.jpg,,
Image_List_3,,,,,,,,,,,,,,,,44386,2020-11-19_12h52.54.297,lingCatScenes,2020.1.3,MacIntel,60,"[1440,724]",,,[],,,,,,,,,,,,drymountains.jpg,space,0.178,[],[],[],[],[],[],[],0,66,66,40,1,drycleaners4.jpg,farm1.jpg,dugout1.jpg,clothingstore3.jpg,,
Image_List_3,,,,,,,,,,,,,,,,44386,2020-11-19_12h52.54.297,lingCatScenes,2020.1.3,MacIntel,60,"[1440,724]",,,[],,,,,,,,,,,,firestation4.jpg,space,0.185,[],[],[],[],[],[],[],0,67,67,47,1,frontDoor.jpg,gasstation8.jpg,fountain7.jpg,elevatorOutside2.jpg,,
Image_List_3,,,,,,,,,,,,,,,,44386,2020-11-19_12h52.54.297,lingCatScenes,2020.1.3,MacIntel,60,"[1440,724]",,,[],,,,,,,,,,,,frontDoor5.jpg,space,0.185,[],[],[],[],[],[],[],0,68,68,51,1,gasstation6.jpg,hallway5.jpg,hayfield4.jpg,firestation5.jpg,,
Image_List_3,,,,,,,,,,,,,,,,44386,2020-11-19_12h52.54.297,lingCatScenes,2020.1.3,MacIntel,60,"[1440,724]",,,[],,,,,,,,,,,,cubicle7.jpg,space,0.195,[],[],[],[],[],[],[],0,69,69,35,1,deck5.jpg,dock3.jpg,dining_car6.jpg,carmechanic2.jpg,,
Image_List_3,,,,,,,,,,,,,,,,44386,2020-11-19_12h52.54.297,lingCatScenes,2020.1.3,MacIntel,60,"[1440,724]",,,[],,,,,,,,,,,,gazebo5.jpg,space,0.176,[],[],[],[],[],[],[],0,70,70,55,1,greenmountains.jpg,hotelRoom3.jpg,hotelRoom7.jpg,frontLawn2.jpg,,
Image_List_3,,,,,,,,,,,,,,,,44386,2020-11-19_12h52.54.297,lingCatScenes,2020.1.3,MacIntel,60,"[1440,724]",,,[],,,,,,,,,,,,pier5.jpg,space,0.168,[],[],[],[],[],[],[],0,71,71,78,1,parkinglot3.jpg,poolhall1.jpg,pavilion3.jpg,observatory1.jpg,,
Image_List_3,,,,,,,,,,,,,,,,44386,2020-11-19_12h52.54.297,lingCatScenes,2020.1.3,MacIntel,60,"[1440,724]",,,[],,,,,,,,,,,,dock1.jpg,space,0.19,[],[],[],[],[],[],[],0,72,72,38,1,dining_car2.jpg,elevatorOutside4.jpg,driveway8.jpg,classroom1.jpg,,
Image_List_3,,,,,,,,,,,,,,,,44386,2020-11-19_12h52.54.297,lingCatScenes,2020.1.3,MacIntel,60,"[1440,724]",,,[],,,,,,,,,,,,ballroom4.jpg,space,0.159,[],[],[],[],[],[],[],0,73,73,10,1,backstage2.jpg,barbershop3.jpg,basketballcourt3.jpg,ATM4.jpg,,
Image_List_3,,,,,,,,,,,,,,,,44386,2020-11-19_12h52.54.297,lingCatScenes,2020.1.3,MacIntel,60,"[1440,724]",,,[],,,,,,,,,,,,laundromat3.jpg,space,0.179,[],[],[],[],[],[],[],0,74,74,66,1,library_aisle10.jpg,office3.jpg,liquorstore.jpg,horsebarn9.jpg,,
Image_List_3,,,,,,,,,,,,,,,,44386,2020-11-19_12h52.54.297,lingCatScenes,2020.1.3,MacIntel,60,"[1440,724]",,,[],,,,,,,,,,,,warehouse3.jpg,space,0.176,[],[],[],[],[],[],[],0,75,75,98,1,weightroom5.jpg,wineVineyard8.jpg,winebarrel4.jpg,winebarrel2.jpg,,
Image_List_3,,,,,,,,,,,,,,,,44386,2020-11-19_12h52.54.297,lingCatScenes,2020.1.3,MacIntel,60,"[1440,724]",,,[],,,,,,,,,,,,bambooforest3.jpg,space,0.177,[],[],[],[],[],[],[],0,76,76,11,1,backyard2.jpg,basketballcourt4.jpg,baywindow5.jpg,backyard1.jpg,,
Image_List_3,,,,,,,,,,,,,,,,44386,2020-11-19_12h52.54.297,lingCatScenes,2020.1.3,MacIntel,60,"[1440,724]",,,[],,,,,,,,,,,,laundromat4.jpg,space,0.175,[],[],[],[],[],[],[],0,77,77,67,1,library_aisle3.jpg,park7.jpg,liquorstore2.jpg,hospitalroom2.jpg,,
Image_List_3,,,,,,,,,,,,,,,,44386,2020-11-19_12h52.54.297,lingCatScenes,2020.1.3,MacIntel,60,"[1440,724]",,,[],,,,,,,,,,,,homegarden6.jpg,space,0.193,[],[],[],[],[],[],[],0,78,78,61,1,HorseRaceTrack.jpg,metroInside4.jpg,kindergarten_classroom7.jpg,hayfield6.jpg,,
Image_List_3,,,,,,,,,,,,,,,,44386,2020-11-19_12h52.54.297,lingCatScenes,2020.1.3,MacIntel,60,"[1440,724]",,,[],,,,,,,,,,,,metroInside3.jpg,space,0.184,[],[],[],[],[],[],[],0,79,79,71,1,metroInside2.jpg,pavilion5.jpg,museum3.jpg,jewelrystore.jpg,,
Image_List_3,,,,,,,,,,,,,,,,44386,2020-11-19_12h52.54.297,lingCatScenes,2020.1.3,MacIntel,60,"[1440,724]",,,[],,,,,,,,,,,,cliff2.jpg,space,0.184,[],[],[],[],[],[],[],0,80,80,29,1,cornfield2.jpg,deck2.jpg,constructionSite4.jpg,bridalboutique3.jpg,,
Image_List_3,,,,,,,,,,,,,,,,44386,2020-11-19_12h52.54.297,lingCatScenes,2020.1.3,MacIntel,60,"[1440,724]",,,[],,,,,,,,,,,,sculpturegarden4.jpg,space,0.176,[],[],[],[],[],[],[],0,81,81,88,1,rooftop1.jpg,track.jpg,soccerfield.jpg,sandbox.jpg,,
Image_List_3,,,,,,,,,,,,,,,,44386,2020-11-19_12h52.54.297,lingCatScenes,2020.1.3,MacIntel,60,"[1440,724]",,,[],,,,,,,,,,,,observatory4.jpeg,space,0.159,[],[],[],[],[],[],[],0,82,82,74,1,newsstand2.jpg,playground10.jpg,operatingroom1.jpg,lightingstore2.jpg,,
Image_List_3,,,,,,,,,,,,,,,,44386,2020-11-19_12h52.54.297,lingCatScenes,2020.1.3,MacIntel,60,"[1440,724]",,,[],,,,,,,,,,,,gazebo2.jpg,space,0.182,[],[],[],[],[],[],[],0,83,83,54,1,greenhouse2.jpg,horsebarn11.jpg,homegarage4.jpg,frontFoyer.jpg,,
Image_List_3,,,,,,,,,,,,,,,,44386,2020-11-19_12h52.54.297,lingCatScenes,2020.1.3,MacIntel,60,"[1440,724]",,,[],,,,,,,,,,,,staircase4.jpg,space,0.177,[],[],[],[],[],[],[],0,84,84,93,1,tollbooth8.jpg,volleyballcourt4.jpg,warehouseoutside2.jpg,tenniscourt.jpg,,
Image_List_3,,,,,,,,,,,,,,,,44386,2020-11-19_12h52.54.297,lingCatScenes,2020.1.3,MacIntel,60,"[1440,724]",,,[],,,,,,,,,,,,balconyIN.jpg,space,0.184,[],[],[],[],[],[],[],0,85,85,8,1,attic3.jpg,banquetHall6.jpg,bar.jpg,applestore4.jpg,,
Image_List_3,,,,,,,,,,,,,,,,44386,2020-11-19_12h52.54.297,lingCatScenes,2020.1.3,MacIntel,60,"[1440,724]",,,[],,,,,,,,,,,,ruralroad3.jpg,space,0.168,[],[],[],[],[],[],[],0,86,86,86,1,restaurant14.jpg,stripmall.jpg,sandDunes_desert_outdoor8.jpg,rooftop4.jpg,,
Image_List_3,,,,,,,,,,,,,,,,44386,2020-11-19_12h52.54.297,lingCatScenes,2020.1.3,MacIntel,60,"[1440,724]",,,[],,,,,,,,,,,,conference4.jpg,space,0.169,[],[],[],[],[],[],[],0,87,87,31,1,cubicle4.jpg,desertvegetation6.jpg,courtroom2.jpg,cabin3.jpg,,
Image_List_3,,,,,,,,,,,,,,,,44386,2020-11-19_12h52.54.297,lingCatScenes,2020.1.3,MacIntel,60,"[1440,724]",,,[],,,,,,,,,,,,frontLawn3.jpg,space,0.15,[],[],[],[],[],[],[],0,88,88,53,1,gazebo3.jpg,homeoffice.jpg,homegarage3.jpg,fountain.jpg,,
Image_List_3,,,,,,,,,,,,,,,,44386,2020-11-19_12h52.54.297,lingCatScenes,2020.1.3,MacIntel,60,"[1440,724]",,,[],,,,,,,,,,,,stripmall6.jpg,space,0.136,[],[],[],[],[],[],[],0,89,89,95,1,waitingroom2.jpg,warehouse2.jpg,weightroom4.jpg,tvstudio3.jpg,,
Image_List_3,,,,,,,,,,,,,,,,44386,2020-11-19_12h52.54.297,lingCatScenes,2020.1.3,MacIntel,60,"[1440,724]",,,[],,,,,,,,,,,,golfcourse10.jpg,space,0.169,[],[],[],[],[],[],[],0,90,90,56,1,grocerystore5.jpg,hut3.jpg,hut1.jpg,gasstation2.jpg,,
Image_List_3,,,,,,,,,,,,,,,,44386,2020-11-19_12h52.54.297,lingCatScenes,2020.1.3,MacIntel,60,"[1440,724]",,,[],,,,,,,,,,,,carmechanic4.jpeg,space,0.12,[],[],[],[],[],[],[],0,91,91,23,1,bus_shelter.jpg,church8.jpg,cemetery3.jpg,bleachers6.jpg,,
Image_List_3,,,,,,,,,,,,,,,,44386,2020-11-19_12h52.54.297,lingCatScenes,2020.1.3,MacIntel,60,"[1440,724]",,,[],,,,,,,,,,,,drycleaners6.jpg,space,0.146,[],[],[],[],[],[],[],0,92,92,39,1,driveway6.jpg,eyeglassstore9.jpg,drymountains5.jpg,cliff5.jpg,,
Image_List_3,,,,,,,,,,,,,,,,44386,2020-11-19_12h52.54.297,lingCatScenes,2020.1.3,MacIntel,60,"[1440,724]",,,[],,,,,,,,,,,,cave6.jpg,space,0.128,[],[],[],[],[],[],[],0,93,93,24,1,campsite.jpg,cliff3.jpg,cemetery5.jpg,boardwalk.jpg,,
Image_List_3,,,,,,,,,,,,,,,,44386,2020-11-19_12h52.54.297,lingCatScenes,2020.1.3,MacIntel,60,"[1440,724]",,,[],,,,,,,,,,,,promenadeDeck6.jpg,space,0.118,[],[],[],[],[],[],[],0,94,94,83,1,readingroom1.jpg,sculpturegarden1.jpg,restaurant8.jpg,readingroom2.jpg,,
Image_List_3,,,,,,,,,,,,,,,,44386,2020-11-19_12h52.54.297,lingCatScenes,2020.1.3,MacIntel,60,"[1440,724]",,,[],,,,,,,,,,,,restaurant13.jpg,space,0.133,[],[],[],[],[],[],[],0,95,95,84,1,readingroom5.jpg,sidewalk2.jpg,sandDunes_desert_outdoor.jpg,rooftop2.jpg,,
Image_List_3,,,,,,,,,,,,,,,,44386,2020-11-19_12h52.54.297,lingCatScenes,2020.1.3,MacIntel,60,"[1440,724]",,,[],,,,,,,,,,,,aquarium1.jpg,space,0.134,[],[],[],[],[],[],[],0,96,96,3,1,apartmentBuilding2.jpg,attic1.jpg,appleorchard2.jpg,alley3.jpg,,
Image_List_3,,,,,,,,,,,,,,,,44386,2020-11-19_12h52.54.297,lingCatScenes,2020.1.3,MacIntel,60,"[1440,724]",,,[],,,,,,,,,,,,constructionSite2.jpg,space,0.15,[],[],[],[],[],[],[],0,97,97,32,1,dancestudio6.jpg,diner12.jpg,dentist4.jpg,cabin4.jpg,,
Image_List_3,,,,,,,,,,,,,,,,44386,2020-11-19_12h52.54.297,lingCatScenes,2020.1.3,MacIntel,60,"[1440,724]",,,[],,,,,,,,,,,,courthouse2.jpg,space,0.127,[],[],[],[],[],[],[],0,98,98,33,1,deck1.jpg,diningroom1.jpg,diner10.jpg,cabinIndoors5.jpg,,
Image_List_3,,,,,,,,,,,,,,,,44386,2020-11-19_12h52.54.297,lingCatScenes,2020.1.3,MacIntel,60,"[1440,724]",,,[],,,,,,,,,,,,waitingroom4.jpg,space,0.143,[],[],[],[],[],[],[],0,99,99,97,1,warehouseoutside4.jpg,wineVineyard2.jpg,winebarrel3.jpg,warehouseoutside3.jpg,,
Image_List_3,,,,,,,,,,,,,,,,44386,2020-11-19_12h52.54.297,lingCatScenes,2020.1.3,MacIntel,60,,,,,,,,,,,,,,,,,,,,,,,,,,,,,,,,,,,space,0.123
