image_list,key_resp_intructions.keys,key_resp_intructions.rt,key_resp_intructions_3.keys,key_resp_intructions_3.rt,PracticeComplete_2.keys,PracticeComplete_2.rt,PracticeComplete_3.keys,PracticeComplete_3.rt,demo_trials.thisRepN,demo_trials.thisTrialN,demo_trials.thisN,demo_trials.thisIndex,demo_trials.ran,demo_images,path_images,participant,date,expName,psychopyVersion,OS,frameRate,windowSize,practice_complete.keys,practice_complete.rt,boxes_checked,PracticeComplete.keys,PracticeComplete.rt,practice_trials.thisRepN,practice_trials.thisTrialN,practice_trials.thisN,practice_trials.thisIndex,practice_trials.ran,practice_images,feedback_images,key_resp_intructions_2.keys,key_resp_intructions_2.rt,Image_List_1,trial_complete.keys,trial_complete.rt,trial_mouse.x,trial_mouse.y,trial_mouse.leftButton,trial_mouse.midButton,trial_mouse.rightButton,trial_mouse.time,trial_mouse.clicked_name,trials.thisRepN,trials.thisTrialN,trials.thisN,trials.thisIndex,trials.ran,Image_List_2,Image_List_3,Image_List_4,Image_List_5,key_resp.keys,key_resp.rt
Image_List_1,space,6.28305,space,4.09402,space,3.97394,space,0.75245,0,0,0,4,1,left.jpg,left_path.jpg,44406,2020-11-22_19h56.40.070,lingCatScenes,2020.1.3,MacIntel,60,,,,,,,,,,,,,,,,,,,,,,,,,,,,,,,,,,,,
Image_List_1,,,,,space,2.26566,space,2.081245,0,1,1,1,1,ahead_left.jpg,ahead_left_path.jpg,44406,2020-11-22_19h56.40.070,lingCatScenes,2020.1.3,MacIntel,60,,,,,,,,,,,,,,,,,,,,,,,,,,,,,,,,,,,,
Image_List_1,,,,,space,0.87104,space,8.65147,0,2,2,3,1,ahead_right_left.jpg,ahead_right_left_path.jpg,44406,2020-11-22_19h56.40.070,lingCatScenes,2020.1.3,MacIntel,60,,,,,,,,,,,,,,,,,,,,,,,,,,,,,,,,,,,,
Image_List_1,,,,,space,0.545425,space,0.366885,0,3,3,6,1,right_left.jpg,right_left_path.jpg,44406,2020-11-22_19h56.40.070,lingCatScenes,2020.1.3,MacIntel,60,,,,,,,,,,,,,,,,,,,,,,,,,,,,,,,,,,,,
Image_List_1,,,,,space,0.41888,space,0.32806,0,4,4,2,1,ahead_right.jpg,ahead_right_path.jpg,44406,2020-11-22_19h56.40.070,lingCatScenes,2020.1.3,MacIntel,60,,,,,,,,,,,,,,,,,,,,,,,,,,,,,,,,,,,,
Image_List_1,,,,,space,0.503615,space,0.346595,0,5,5,0,1,ahead.jpg,ahead_path.jpg,44406,2020-11-22_19h56.40.070,lingCatScenes,2020.1.3,MacIntel,60,,,,,,,,,,,,,,,,,,,,,,,,,,,,,,,,,,,,
Image_List_1,,,,,space,1.19114,space,0.55546,0,6,6,5,1,right.jpg,right_path.jpg,44406,2020-11-22_19h56.40.070,lingCatScenes,2020.1.3,MacIntel,60,,,,,,,,,,,,,,,,,,,,,,,,,,,,,,,,,,,,
Image_List_1,,,,,,,,,,,,,,,,44406,2020-11-22_19h56.40.070,lingCatScenes,2020.1.3,MacIntel,60,"[1440,900]",space,1.01764,[],space,0.87758,0,0,0,3,1,ahead_right_left_2.jpg,ahead_right_left_2_path.jpg,,,,,,,,,,,,,,,,,,,,,,,
Image_List_1,,,,,,,,,,,,,,,,44406,2020-11-22_19h56.40.070,lingCatScenes,2020.1.3,MacIntel,60,"[1440,900]",space,0.551435,[],space,0.520025,0,1,1,4,1,left_2.jpg,left_2_path.jpg,,,,,,,,,,,,,,,,,,,,,,,
Image_List_1,,,,,,,,,,,,,,,,44406,2020-11-22_19h56.40.070,lingCatScenes,2020.1.3,MacIntel,60,"[1440,900]",space,0.527155,[],space,2.74498,0,2,2,5,1,right_2.jpg,right_2_path.jpg,,,,,,,,,,,,,,,,,,,,,,,
Image_List_1,,,,,,,,,,,,,,,,44406,2020-11-22_19h56.40.070,lingCatScenes,2020.1.3,MacIntel,60,"[1440,900]",space,0.47866,[],space,0.34422,0,3,3,6,1,right_left_2.jpg,right_left_2_path.jpg,,,,,,,,,,,,,,,,,,,,,,,
Image_List_1,,,,,,,,,,,,,,,,44406,2020-11-22_19h56.40.070,lingCatScenes,2020.1.3,MacIntel,60,"[1440,900]",space,0.5023,[],space,0.504475,0,4,4,2,1,ahead_right_2.jpg,ahead_right_2_path.jpg,,,,,,,,,,,,,,,,,,,,,,,
Image_List_1,,,,,,,,,,,,,,,,44406,2020-11-22_19h56.40.070,lingCatScenes,2020.1.3,MacIntel,60,"[1440,900]",space,0.453885,[],space,1.04637,0,5,5,0,1,ahead_2.jpg,ahead_2_path.jpg,,,,,,,,,,,,,,,,,,,,,,,
Image_List_1,,,,,,,,,,,,,,,,44406,2020-11-22_19h56.40.070,lingCatScenes,2020.1.3,MacIntel,60,"[1440,900]",space,0.571255,[],space,0.37258,0,6,6,1,1,ahead_left_2.jpg,ahead_left_2_path.jpg,,,,,,,,,,,,,,,,,,,,,,,
Image_List_1,,,,,,,,,,,,,,,,44406,2020-11-22_19h56.40.070,lingCatScenes,2020.1.3,MacIntel,60,"[1440,900]",,,"[""trial_slight_left_box"",""trial_slight_right_box"",""trial_ahead_box""]",,,,,,,,,,space,2.17508,liquorstore7.jpg,space,7.05434,"[-0.1841232638888889,0.20271267361111112,0.0036848958333333334]","[-0.30015625,-0.3070529513888889,-0.3068446180555556]","[1,1,1]","[0,0,0]","[0,0,0]","[3.38289999999688,4.598564999992959,5.465215000003809]","[""trial_slight_left_box"",""trial_slight_right_box"",""trial_ahead_box""]",0,0,0,68,1,parkinglot.jpg,lightingstore4.jpg,lockerroom2.jpg,hospitalroom3.jpg,,
Image_List_1,,,,,,,,,,,,,,,,44406,2020-11-22_19h56.40.070,lingCatScenes,2020.1.3,MacIntel,60,"[1440,900]",,,"[""trial_slight_right_box""]",,,,,,,,,,,,publicrestroom2.jpg,space,2.81383,[0.20355034722222223],[-0.30063802083333335],[1],[0],[0],[2.4953399999940302],"[""trial_slight_right_box""]",0,1,1,82,1,sandDunes_desert_outdoor9.jpg,promenadeDeck3.jpg,readingroom4.jpg,postoffice4.jpg,,
Image_List_1,,,,,,,,,,,,,,,,44406,2020-11-22_19h56.40.070,lingCatScenes,2020.1.3,MacIntel,60,"[1440,900]",,,"[""trial_ahead_box"",""trial_slight_right_box""]",,,,,,,,,,,,bus_shelter.jpg,space,2.357365,"[0.012960069444444444,0.1892795138888889]","[-0.3130425347222222,-0.30746961805555556]","[1,1]","[0,0]","[0,0]","[1.31205000000773,2.0453750000160653]","[""trial_ahead_box"",""trial_slight_right_box""]",0,2,2,23,1,church8.jpg,carmechanic4.jpeg,cemetery3.jpg,bleachers6.jpg,,
Image_List_1,,,,,,,,,,,,,,,,44406,2020-11-22_19h56.40.070,lingCatScenes,2020.1.3,MacIntel,60,"[1440,900]",,,"[""trial_ahead_box"",""trial_slight_right_box"",""trial_slight_left_box""]",,,,,,,,,,,,restaurantkitchen2.jpg,space,3.434185,"[-0.006927083333333334,0.19253472222222223,-0.17226996527777777,-0.21079427083333332]","[-0.2914539930555556,-0.29518229166666665,-0.2979730902777778,-0.3017621527777778]","[1,1,1,1]","[0,0,0,0]","[0,0,0,0]","[1.2136999999929685,1.9302700000116602,2.6474600000074133,3.1467950000078417]","[""trial_ahead_box"",""trial_slight_right_box"",""trial_slight_left_box""]",0,3,3,87,1,theater2.jpg,savanna.jpg,sculpturegarden2.jpg,RVinside2.jpg,,
Image_List_1,,,,,,,,,,,,,,,,44406,2020-11-22_19h56.40.070,lingCatScenes,2020.1.3,MacIntel,60,"[1440,900]",,,"[""trial_slight_left_box"",""trial_ahead_box"",""trial_slight_right_box""]",,,,,,,,,,,,artStudio1.jpg,space,3.86226,"[-0.21079427083333332,-0.005442708333333333,0.21894965277777778]","[-0.3017621527777778,-0.2989453125,-0.3118532986111111]","[1,1,1]","[0,0,0]","[0,0,0]","[1.1660400000109803,2.248025000008056,3.265255000005709]","[""trial_slight_left_box"",""trial_ahead_box"",""trial_slight_right_box""]",0,4,4,4,1,baggageClaim2.jpg,auto_showroom1.jpg,appleorchard3.jpg,alley4.jpg,,
Image_List_1,,,,,,,,,,,,,,,,44406,2020-11-22_19h56.40.070,lingCatScenes,2020.1.3,MacIntel,60,"[1440,900]",,,"[""trial_slight_left_box"",""trial_ahead_box"",""trial_slight_right_box""]",,,,,,,,,,,,bikerack1.jpg,space,3.399015,"[-0.18754340277777778,-0.0156640625,0.20588975694444445]","[-0.30550347222222224,-0.3015017361111111,-0.3050564236111111]","[1,1,1]","[0,0,0]","[0,0,0]","[1.4955399999744259,2.2462199999717996,2.9294649999937974]","[""trial_slight_left_box"",""trial_ahead_box"",""trial_slight_right_box""]",0,5,5,17,1,campsite6.jpg,breakroom4.jpg,carmechanic.jpg,baseball6.jpg,,
Image_List_1,,,,,,,,,,,,,,,,44406,2020-11-22_19h56.40.070,lingCatScenes,2020.1.3,MacIntel,60,"[1440,900]",,,"[""trial_slight_right_box"",""trial_right_box"",""trial_sharp_right_box""]",,,,,,,,,,,,bowlingalley5.jpg,space,6.433235,"[-0.189765625,-0.17846354166666667,0.19174479166666666,0.42082899305555554,0.6152604166666666]","[-0.32136284722222225,-0.29272135416666667,-0.2964279513888889,-0.2770052083333333,-0.2931727430555556]","[1,1,1,1,1]","[0,0,0,0,0]","[0,0,0,0,0]","[1.429069999983767,3.679390000004787,4.779175000003306,5.41282999998657,6.096404999989318]","[""trial_slight_left_box"",""trial_slight_left_box"",""trial_slight_right_box"",""trial_right_box"",""trial_sharp_right_box""]",0,6,6,22,1,church6.jpg,cargo5.jpg,cemetery.jpg,bistrooutdoor6.jpg,,
Image_List_1,,,,,,,,,,,,,,,,44406,2020-11-22_19h56.40.070,lingCatScenes,2020.1.3,MacIntel,60,"[1440,900]",,,"[""trial_slight_left_box"",""trial_slight_right_box""]",,,,,,,,,,,,ballroom1.jpg,space,2.61403,"[-0.19059461805555555,0.18986979166666668]","[-0.30051649305555556,-0.29477864583333335]","[1,1]","[0,0]","[0,0]","[1.5967299999902025,2.3301750000100583]","[""trial_slight_left_box"",""trial_slight_right_box""]",0,7,7,14,1,breakroom5.jpg,bistrooutdoor5.jpg,botanicalGarden5.jpg,ballroom3.jpg,,
Image_List_1,,,,,,,,,,,,,,,,44406,2020-11-22_19h56.40.070,lingCatScenes,2020.1.3,MacIntel,60,"[1440,900]",,,"[""trial_slight_left_box"",""trial_ahead_box"",""trial_slight_right_box""]",,,,,,,,,,,,museum5.jpg,space,2.628915,"[-0.1831076388888889,-0.010455729166666667,0.1863671875]","[-0.3136067708333333,-0.3136067708333333,-0.30355902777777777]","[1,1,1]","[0,0,0]","[0,0,0]","[1.2126449999923352,1.7787799999932759,2.3951449999876786]","[""trial_slight_left_box"",""trial_ahead_box"",""trial_slight_right_box""]",0,8,8,72,1,pharmacy4.jpg,musicStore1.jpg,museum4.jpg,kindergarten_classroom.jpg,,
Image_List_1,,,,,,,,,,,,,,,,44406,2020-11-22_19h56.40.070,lingCatScenes,2020.1.3,MacIntel,60,"[1440,900]",,,"[""trial_ahead_box"",""trial_slight_right_box""]",,,,,,,,,,,,shoestore2.jpg,space,3.02676,"[0.04140190972222222,-0.0038107638888888887,0.196796875]","[-0.2928298611111111,-0.2949262152777778,-0.3021831597222222]","[1,1,1]","[0,0,0]","[0,0,0]","[1.2820099999953527,1.815409999981057,2.5144750000035856]","[""trial_ahead_box"",""trial_slight_right_box""]",0,9,9,91,1,trainStation5.jpg,skatepark5.jpg,ticket_counter6.jpg,sidewalk3.jpg,,
Image_List_1,,,,,,,,,,,,,,,,44406,2020-11-22_19h56.40.070,lingCatScenes,2020.1.3,MacIntel,60,"[1440,900]",,,"[""trial_slight_left_box"",""trial_slight_right_box"",""trial_ahead_box""]",,,,,,,,,,,,frontDoor3.jpg,space,3.269715,"[-0.2132769097222222,0.19653211805555557,-0.0190625]","[-0.3074045138888889,-0.30288628472222223,-0.2965798611111111]","[1,1,1]","[0,0,0]","[0,0,0]","[1.3107200000085868,1.980474999989383,2.59474999998929]","[""trial_slight_left_box"",""trial_slight_right_box"",""trial_ahead_box""]",0,10,10,49,1,greenhouse5.jpg,flowershop3.jpg,greenhouse.jpg,farm2.jpg,,
Image_List_1,,,,,,,,,,,,,,,,44406,2020-11-22_19h56.40.070,lingCatScenes,2020.1.3,MacIntel,60,"[1440,900]",,,"[""trial_ahead_box""]",,,,,,,,,,,,deck1.jpg,space,2.042245,[-0.012426215277777777],[-0.29844618055555555],[1],[0],[0],[1.678474999993341],"[""trial_ahead_box""]",0,11,11,33,1,diningroom1.jpg,courthouse2.jpg,diner10.jpg,cabinIndoors5.jpg,,
Image_List_1,,,,,,,,,,,,,,,,44406,2020-11-22_19h56.40.070,lingCatScenes,2020.1.3,MacIntel,60,"[1440,900]",,,"[""trial_slight_right_box"",""trial_right_box""]",,,,,,,,,,,,exerciseequipment5.jpg,space,14.524885,"[0.20755208333333333,0.3794574652777778]","[-0.2873350694444444,-0.29378038194444445]","[1,1]","[0,0]","[0,0]","[13.561524999997346,14.261484999995446]","[""trial_slight_right_box"",""trial_right_box""]",0,12,12,43,1,forestpath10.jpg,dugout2.jpg,foodcourt.jpg,diningroom3.jpg,,
Image_List_1,,,,,,,,,,,,,,,,44406,2020-11-22_19h56.40.070,lingCatScenes,2020.1.3,MacIntel,60,"[1440,900]",,,"[""trial_ahead_box""]",,,,,,,,,,,,airplanecabin1.jpg,space,1.829225,[-0.005217013888888889],[-0.3036762152777778],[1],[0],[0],[1.464994999987539],"[""trial_ahead_box""]",0,13,13,0,1,alley2.jpg,appleorchard4.jpg,airplanecabin5.jpg,airplanecabin3.jpg,,
Image_List_1,,,,,,,,,,,,,,,,44406,2020-11-22_19h56.40.070,lingCatScenes,2020.1.3,MacIntel,60,"[1440,900]",,,"[""trial_ahead_box"",""trial_slight_right_box"",""trial_right_box""]",,,,,,,,,,,,dugout4.jpg,space,7.44959,"[-0.005217013888888889,0.22395399305555555,0.3882595486111111]","[-0.3036762152777778,-0.32233072916666666,-0.3095920138888889]","[1,1,1]","[0,0,0]","[0,0,0]","[2.2619049999921117,2.9618049999990035,3.795280000020284]","[""trial_ahead_box"",""trial_slight_right_box"",""trial_right_box""]",0,14,14,41,1,farm3.jpg,drymountains3.jpg,fabricstore1.jpg,dentist2.jpg,,
Image_List_1,,,,,,,,,,,,,,,,44406,2020-11-22_19h56.40.070,lingCatScenes,2020.1.3,MacIntel,60,"[1440,900]",,,"[""trial_right_box"",""trial_sharp_right_box""]",,,,,,,,,,,,pasture.jpg,space,2.89414,"[0.3836805555555556,0.5949305555555555]","[-0.30328125,-0.29660590277777776]","[1,1]","[0,0]","[0,0]","[1.2803499999863561,1.930354999989504]","[""trial_right_box"",""trial_sharp_right_box""]",0,15,15,79,1,poolhall2.jpeg,playground9.jpg,pier2.jpg,observatory2.jpg,,
Image_List_1,,,,,,,,,,,,,,,,44406,2020-11-22_19h56.40.070,lingCatScenes,2020.1.3,MacIntel,60,"[1440,900]",,,"[""trial_right_box"",""trial_sharp_right_box""]",,,,,,,,,,,,ATM1.jpg,space,5.809415,"[0.4402387152777778,0.390859375,0.5729427083333334,0.5925607638888889]","[-0.3003342013888889,-0.29674913194444447,-0.2970095486111111,-0.2970095486111111]","[1,1,1,1]","[0,0,0,0]","[0,0,0,0]","[3.796470000001136,4.263765000010608,4.89640500000678,5.596125000010943]","[""trial_right_box"",""trial_sharp_right_box""]",0,16,16,6,1,banquetHall2.jpg,auto_showroom5.jpg,baggageClaim1.jpg,apartmentBuilding3.jpg,,
Image_List_1,,,,,,,,,,,,,,,,44406,2020-11-22_19h56.40.070,lingCatScenes,2020.1.3,MacIntel,60,"[1440,900]",,,"[""trial_right_box"",""trial_sharp_right_box""]",,,,,,,,,,,,hotellobby2.jpg,space,3.24241,"[0.36725260416666666,0.3745616319444444,0.4007118055555556,0.5996137152777777]","[-0.2814539930555556,-0.2814539930555556,-0.28174479166666666,-0.29387152777777775]","[1,1,1,1]","[0,0,0,0]","[0,0,0,0]","[1.6296750000037719,1.96252000000095,2.3286450000014156,2.9468850000121165]","[""trial_right_box"",""trial_sharp_right_box""]",0,17,17,62,1,minigolf.jpg,horsebarn8.jpg,lab3.jpg,hayfield7.jpg,,
Image_List_1,,,,,,,,,,,,,,,,44406,2020-11-22_19h56.40.070,lingCatScenes,2020.1.3,MacIntel,60,"[1440,900]",,,"[""trial_slight_left_box"",""trial_ahead_box"",""trial_slight_right_box""]",,,,,,,,,,,,frontLawn4.jpg,space,3.307005,"[-0.1939496527777778,0.004952256944444444,0.21512152777777777]","[-0.29491319444444447,-0.2876432291666667,-0.3117144097222222]","[1,1,1]","[0,0,0]","[0,0,0]","[1.6277800000098068,2.3620150000206195,2.9774900000193156]","[""trial_slight_left_box"",""trial_ahead_box"",""trial_slight_right_box""]",0,18,18,50,1,grocerystore6.jpg,forestpath6.jpg,hallway2.jpg,fireplace4.jpg,,
Image_List_1,,,,,,,,,,,,,,,,44406,2020-11-22_19h56.40.070,lingCatScenes,2020.1.3,MacIntel,60,"[1440,900]",,,"[""trial_slight_left_box"",""trial_ahead_box"",""trial_slight_right_box""]",,,,,,,,,,,,readingroom5.jpg,space,2.884585,"[-0.205859375,-0.0012543402777777778,0.19261284722222222]","[-0.30885416666666665,-0.30975260416666667,-0.30975260416666667]","[1,1,1]","[0,0,0]","[0,0,0]","[1.5791900000185706,2.1120649999938905,2.6788700000033714]","[""trial_slight_left_box"",""trial_ahead_box"",""trial_slight_right_box""]",0,19,19,84,1,sidewalk2.jpg,restaurant13.jpg,sandDunes_desert_outdoor.jpg,rooftop2.jpg,,
Image_List_1,,,,,,,,,,,,,,,,44406,2020-11-22_19h56.40.070,lingCatScenes,2020.1.3,MacIntel,60,"[1440,900]",,,"[""trial_ahead_box""]",,,,,,,,,,,,savanna5.jpg,space,4.50152,"[-0.18662760416666666,-0.2117534722222222,0.021514756944444446]","[-0.28998263888888887,-0.288203125,-0.31233072916666665]","[1,1,1]","[0,0,0]","[0,0,0]","[1.4460000000253785,3.5635550000006333,4.196850000007544]","[""trial_slight_left_box"",""trial_slight_left_box"",""trial_ahead_box""]",0,20,20,90,1,trainStation1.jpg,sidewalk1.jpg,stripmall3.jpg,shoestore4.jpg,,
Image_List_1,,,,,,,,,,,,,,,,44406,2020-11-22_19h56.40.070,lingCatScenes,2020.1.3,MacIntel,60,"[1440,900]",,,"[""trial_ahead_box"",""trial_slight_right_box""]",,,,,,,,,,,,liquorstore8.jpg,space,2.609495,"[0.004140625,0.20374565972222222]","[-0.30026041666666664,-0.29041666666666666]","[1,1]","[0,0]","[0,0]","[1.4629349999886472,2.2628749999857973]","[""trial_ahead_box"",""trial_slight_right_box""]",0,21,21,69,1,parkinglot2.jpg,livingroom.jpg,metroInside1.jpg,icecream2.jpg,,
Image_List_1,,,,,,,,,,,,,,,,44406,2020-11-22_19h56.40.070,lingCatScenes,2020.1.3,MacIntel,60,"[1440,900]",,,"[""trial_ahead_box"",""trial_slight_right_box""]",,,,,,,,,,,,drycleaners4.jpg,space,3.057035,"[0.02275173611111111,0.1950390625]","[-0.30307725694444443,-0.30113715277777775]","[1,1]","[0,0]","[0,0]","[1.9966450000065379,2.729350000008708]","[""trial_ahead_box"",""trial_slight_right_box""]",0,22,22,40,1,farm1.jpg,drymountains.jpg,dugout1.jpg,clothingstore3.jpg,,
Image_List_1,,,,,,,,,,,,,,,,44406,2020-11-22_19h56.40.070,lingCatScenes,2020.1.3,MacIntel,60,"[1440,900]",,,"[""trial_ahead_box"",""trial_slight_left_box"",""trial_left_box""]",,,,,,,,,,,,botanicalGarden6.jpg,space,3.12554,"[-0.020460069444444444,-0.19345052083333333,-0.38155815972222223]","[-0.31514322916666665,-0.29336805555555556,-0.3021050347222222]","[1,1,1]","[0,0,0]","[0,0,0]","[1.2449299999861978,1.9770300000091083,2.826715000002878]","[""trial_ahead_box"",""trial_slight_left_box"",""trial_left_box""]",0,23,23,21,1,cemetery6.jpg,campusquad3.jpg,cave5.jpg,beach1.jpeg,,
Image_List_1,,,,,,,,,,,,,,,,44406,2020-11-22_19h56.40.070,lingCatScenes,2020.1.3,MacIntel,60,"[1440,900]",,,"[""trial_slight_left_box"",""trial_left_box"",""trial_ahead_box""]",,,,,,,,,,,,diner14.jpg,space,3.84575,"[-0.2057204861111111,-0.3827994791666667,0.01361111111111111]","[-0.3216015625,-0.2909071180555556,-0.3044487847222222]","[1,1,1]","[0,0,0]","[0,0,0]","[1.9436149999964982,2.7599350000091363,3.6443050000234507]","[""trial_slight_left_box"",""trial_left_box"",""trial_ahead_box""]",0,24,24,36,1,dormroom9.jpg,dining_car3.jpg,doctor1.jpg,checkoutcounter9.jpg,,
Image_List_1,,,,,,,,,,,,,,,,44406,2020-11-22_19h56.40.070,lingCatScenes,2020.1.3,MacIntel,60,"[1440,900]",,,"[""trial_ahead_box"",""trial_slight_left_box""]",,,,,,,,,,,,frontDoor2.jpg,space,3.46802,"[0.0130859375,-0.1901171875]","[-0.3044487847222222,-0.31582465277777777]","[1,1]","[0,0]","[0,0]","[0.9965149999770802,3.229475000000093]","[""trial_ahead_box"",""trial_slight_left_box""]",0,25,25,48,1,golfcourse6.jpg,fittingroom5.jpg,golfcourse7.jpg,fabricstore2.jpg,,
Image_List_1,,,,,,,,,,,,,,,,44406,2020-11-22_19h56.40.070,lingCatScenes,2020.1.3,MacIntel,60,"[1440,900]",,,"[""trial_slight_left_box"",""trial_right_box""]",,,,,,,,,,,,ruralroad7.jpg,space,5.13159,"[-0.21526475694444444,0.0297265625,0.41855902777777776]","[-0.29540798611111113,-0.30438368055555554,-0.309453125]","[1,1,1]","[0,0,0]","[0,0,0]","[2.2301700000243727,2.913765000004787,4.497610000020359]","[""trial_slight_left_box"",""trial_right_box""]",0,26,26,89,1,track5.jpg,ShowJumping7.jpg,staircase7.jpg,sculpturegarden3.jpg,,
Image_List_1,,,,,,,,,,,,,,,,44406,2020-11-22_19h56.40.070,lingCatScenes,2020.1.3,MacIntel,60,"[1440,900]",,,"[""trial_ahead_box""]",,,,,,,,,,,,deck4.jpg,space,1.42529,[-0.004375],[-0.29645399305555553],[1],[0],[0],[1.1958549999981187],"[""trial_ahead_box""]",0,27,27,34,1,diningroom5.jpg,courthouse4.jpg,diner11.jpg,campusquad1.jpg,,
Image_List_1,,,,,,,,,,,,,,,,44406,2020-11-22_19h56.40.070,lingCatScenes,2020.1.3,MacIntel,60,"[1440,900]",,,"[""trial_ahead_box"",""trial_slight_right_box""]",,,,,,,,,,,,boardwalk6.jpg,space,2.12597,"[0.02019097222222222,0.210859375]","[-0.3153342013888889,-0.29901475694444446]","[1,1]","[0,0]","[0,0]","[1.1619800000044052,1.7783350000099745]","[""trial_ahead_box"",""trial_slight_right_box""]",0,28,28,20,1,cave.jpg,campsite3.jpg,cave4.jpg,basketballcourt7.jpg,,
Image_List_1,,,,,,,,,,,,,,,,44406,2020-11-22_19h56.40.070,lingCatScenes,2020.1.3,MacIntel,60,"[1440,900]",,,"[""trial_ahead_box""]",,,,,,,,,,,,pavilion2.jpg,space,1.28281,[0.009322916666666667],[-0.29141493055555556],[1],[0],[0],[0.961974999983795],"[""trial_ahead_box""]",0,29,29,80,1,racecarcourse2.jpg,porch.jpg,poolhall5.jpg,parkinggarage4.jpg,,
Image_List_1,,,,,,,,,,,,,,,,44406,2020-11-22_19h56.40.070,lingCatScenes,2020.1.3,MacIntel,60,"[1440,900]",,,"[""trial_slight_right_box""]",,,,,,,,,,,,library_aisle10.jpg,space,1.50082,[0.18780815972222223],[-0.3087065972222222],[1],[0],[0],[1.297515000012936],"[""trial_slight_right_box""]",0,30,30,66,1,office3.jpg,laundromat3.jpg,liquorstore.jpg,horsebarn9.jpg,,
Image_List_1,,,,,,,,,,,,,,,,44406,2020-11-22_19h56.40.070,lingCatScenes,2020.1.3,MacIntel,60,"[1440,900]",,,"[""trial_ahead_box""]",,,,,,,,,,,,readingroom1.jpg,space,1.34608,[0.0011284722222222221],[-0.3002430555555556],[1],[0],[0],[1.130795000004582],"[""trial_ahead_box""]",0,31,31,83,1,sculpturegarden1.jpg,promenadeDeck6.jpg,restaurant8.jpg,readingroom2.jpg,,
Image_List_1,,,,,,,,,,,,,,,,44406,2020-11-22_19h56.40.070,lingCatScenes,2020.1.3,MacIntel,60,"[1440,900]",,,"[""trial_slight_right_box"",""trial_ahead_box""]",,,,,,,,,,,,parkinggarage2.jpg,space,2.858065,"[0.19419270833333332,-0.015182291666666667]","[-0.29866319444444445,-0.2861501736111111]","[1,1]","[0,0]","[0,0]","[1.663040000014007,2.2784650000103284]","[""trial_slight_right_box"",""trial_ahead_box""]",0,32,32,77,1,playroom6.jpg,pasture9.jpg,park8.jpg,mallindoor6.jpg,,
Image_List_1,,,,,,,,,,,,,,,,44406,2020-11-22_19h56.40.070,lingCatScenes,2020.1.3,MacIntel,60,"[1440,900]",,,"[""trial_ahead_box"",""trial_slight_left_box"",""trial_slight_right_box""]",,,,,,,,,,,,exerciseequipment3.jpg,space,2.81504,"[-0.00943576388888889,-0.1902734375,0.2062109375]","[-0.29072916666666665,-0.3018663194444444,-0.3032638888888889]","[1,1,1]","[0,0,0]","[0,0,0]","[1.0456450000056066,1.6118399999977555,2.5454050000116695]","[""trial_ahead_box"",""trial_slight_left_box"",""trial_slight_right_box""]",0,33,33,42,1,firestation3.jpg,drymountains6.jpg,farm4.jpg,desertvegetation2.jpg,,
Image_List_1,,,,,,,,,,,,,,,,44406,2020-11-22_19h56.40.070,lingCatScenes,2020.1.3,MacIntel,60,"[1440,900]",,,"[""trial_ahead_box""]",,,,,,,,,,,,backyard2.jpg,space,1.675465,[-0.005455729166666667],[-0.2931901041666667],[1],[0],[0],[1.211814999987837],"[""trial_ahead_box""]",0,34,34,11,1,basketballcourt4.jpg,bambooforest3.jpg,baywindow5.jpg,backyard1.jpg,,
Image_List_1,,,,,,,,,,,,,,,,44406,2020-11-22_19h56.40.070,lingCatScenes,2020.1.3,MacIntel,60,"[1440,900]",,,"[""trial_ahead_box"",""trial_slight_right_box""]",,,,,,,,,,,,alley1.jpg,space,1.623895,"[0.0049869791666666665,0.21538194444444445]","[-0.2862673611111111,-0.29229166666666667]","[1,1]","[0,0]","[0,0]","[0.8614250000100583,1.4116750000102911]","[""trial_ahead_box"",""trial_slight_right_box""]",0,35,35,2,1,arcade1.jpg,applestore6.jpg,apartmentBuilding4.jpg,airportTerminal6.jpg,,
Image_List_1,,,,,,,,,,,,,,,,44406,2020-11-22_19h56.40.070,lingCatScenes,2020.1.3,MacIntel,60,"[1440,900]",,,"[""trial_ahead_box""]",,,,,,,,,,,,parkinglot3.jpg,space,1.34757,[0.012100694444444445],[-0.29052517361111113],[1],[0],[0],[0.9125749999948312],"[""trial_ahead_box""]",0,36,36,78,1,poolhall1.jpg,pier5.jpg,pavilion3.jpg,observatory1.jpg,,
Image_List_1,,,,,,,,,,,,,,,,44406,2020-11-22_19h56.40.070,lingCatScenes,2020.1.3,MacIntel,60,"[1440,900]",,,"[""trial_slight_right_box""]",,,,,,,,,,,,cornfield2.jpg,space,1.459265,[0.20179253472222222],[-0.30858506944444447],[1],[0],[0],[1.163540000008652],"[""trial_slight_right_box""]",0,37,37,29,1,deck2.jpg,cliff2.jpg,constructionSite4.jpg,bridalboutique3.jpg,,
Image_List_1,,,,,,,,,,,,,,,,44406,2020-11-22_19h56.40.070,lingCatScenes,2020.1.3,MacIntel,60,"[1440,900]",,,"[""trial_ahead_box"",""trial_slight_right_box"",""trial_right_box""]",,,,,,,,,,,,bleachers5.jpg,space,3.613795,"[0.02358940972222222,0.19629774305555556,0.3946397569444444]","[-0.29670138888888886,-0.29877170138888887,-0.3086762152777778]","[1,1,1]","[0,0,0]","[0,0,0]","[1.8279500000062399,2.4611150000127964,3.361015000002226]","[""trial_ahead_box"",""trial_slight_right_box"",""trial_right_box""]",0,38,38,18,1,casino1.jpg,brewery4.jpg,castle2.jpg,basement6.jpg,,
Image_List_1,,,,,,,,,,,,,,,,44406,2020-11-22_19h56.40.070,lingCatScenes,2020.1.3,MacIntel,60,"[1440,900]",,,"[""trial_ahead_box"",""trial_slight_right_box""]",,,,,,,,,,,,courthouse1.jpg,space,1.931965,"[-0.016875,0.2225390625]","[-0.29258680555555555,-0.29477864583333335]","[1,1]","[0,0]","[0,0]","[1.1280700000061188,1.7112400000041816]","[""trial_ahead_box"",""trial_slight_right_box""]",0,39,39,30,1,desertvegetation3.jpg,clothingstore2.jpg,copyroom2.jpg,bus_shelter3.jpg,,
Image_List_1,,,,,,,,,,,,,,,,44406,2020-11-22_19h56.40.070,lingCatScenes,2020.1.3,MacIntel,60,"[1440,900]",,,"[""trial_slight_right_box"",""trial_ahead_box""]",,,,,,,,,,,,treehouse.jpg,space,2.598785,"[0.2098654513888889,-0.0031510416666666666]","[-0.29604166666666665,-0.28651041666666666]","[1,1]","[0,0]","[0,0]","[1.3462900000158697,2.07907000000705]","[""trial_slight_right_box"",""trial_ahead_box""]",0,40,40,94,1,waitingroom3.jpg,staircase6.jpg,weightroom.jpg,trainStation3.jpg,,
Image_List_1,,,,,,,,,,,,,,,,44406,2020-11-22_19h56.40.070,lingCatScenes,2020.1.3,MacIntel,60,"[1440,900]",,,"[""trial_ahead_box"",""trial_slight_left_box""]",,,,,,,,,,,,castle3.jpg,space,1.841325,"[-0.0031510416666666666,-0.201328125]","[-0.28651041666666666,-0.29345052083333334]","[1,1]","[0,0]","[0,0]","[0.8789549999928568,1.4788249999983236]","[""trial_ahead_box"",""trial_slight_left_box""]",0,41,41,27,1,courtroom3.jpg,churchInside4.jpg,closet.jpg,brewery2.jpg,,
Image_List_1,,,,,,,,,,,,,,,,44406,2020-11-22_19h56.40.070,lingCatScenes,2020.1.3,MacIntel,60,"[1440,900]",,,"[""trial_ahead_box""]",,,,,,,,,,,,dining_car.jpg,space,1.528335,[-0.007764756944444445],[-0.30473090277777776],[1],[0],[0],[1.2806799999962095],"[""trial_ahead_box""]",0,42,42,37,1,driveway4.jpg,dinosaur4.jpg,driveway7.jpg,citystreet9.jpg,,
Image_List_1,,,,,,,,,,,,,,,,44406,2020-11-22_19h56.40.070,lingCatScenes,2020.1.3,MacIntel,60,"[1440,900]",,,"[""trial_ahead_box"",""trial_slight_right_box"",""trial_right_box""]",,,,,,,,,,,,campusquad2.jpg,space,2.311965,"[-0.007764756944444445,0.20212239583333333,0.38819878472222225]","[-0.30473090277777776,-0.29778211805555554,-0.3077170138888889]","[1,1,1]","[0,0,0]","[0,0,0]","[0.811535000015283,1.3947749999933876,2.0617700000002515]","[""trial_ahead_box"",""trial_slight_right_box"",""trial_right_box""]",0,43,43,26,1,cornfield4.jpg,church4.jpg,churchInside3.jpg,botanicalGarden7.jpg,,
Image_List_1,,,,,,,,,,,,,,,,44406,2020-11-22_19h56.40.070,lingCatScenes,2020.1.3,MacIntel,60,"[1440,900]",,,"[""trial_ahead_box""]",,,,,,,,,,,,auto_showroom3.jpg,space,1.39388,[-0.0015190972222222222],[-0.29713975694444444],[1],[0],[0],[1.1263699999835808],"[""trial_ahead_box""]",0,44,44,9,1,bar2.jpg,ballroom2.jpg,basement5.jpg,arcade2.jpg,,
Image_List_1,,,,,,,,,,,,,,,,44406,2020-11-22_19h56.40.070,lingCatScenes,2020.1.3,MacIntel,60,"[1440,900]",,,"[""trial_ahead_box""]",,,,,,,,,,,,bambooforest4.jpg,space,1.059995,[-0.0015190972222222222],[-0.29713975694444444],[1],[0],[0],[0.5612499999988358],"[""trial_ahead_box""]",0,45,45,15,1,cafeteria5.jpg,bleachers8.jpg,cabinIndoors.jpg,bar8.jpg,,
Image_List_1,,,,,,,,,,,,,,,,44406,2020-11-22_19h56.40.070,lingCatScenes,2020.1.3,MacIntel,60,"[1440,900]",,,[],,,,,,,,,,,,deck5.jpg,space,0.892605,[],[],[],[],[],[],[],0,46,46,35,1,dock3.jpg,cubicle7.jpg,dining_car6.jpg,carmechanic2.jpg,,
Image_List_1,,,,,,,,,,,,,,,,44406,2020-11-22_19h56.40.070,lingCatScenes,2020.1.3,MacIntel,60,"[1440,900]",,,"[""trial_ahead_box""]",,,,,,,,,,,,staircase.jpg,space,1.857225,[-0.0015190972222222222],[-0.29713975694444444],[1],[0],[0],[1.277605000010226],"[""trial_ahead_box""]",0,47,47,92,1,volleyballcourt.jpg,skatepark7.jpg,tvstudio2.jpg,soccerfield2.jpg,,
Image_List_1,,,,,,,,,,,,,,,,44406,2020-11-22_19h56.40.070,lingCatScenes,2020.1.3,MacIntel,60,"[1440,900]",,,"[""trial_slight_right_box""]",,,,,,,,,,,,restaurant14.jpg,space,1.2989,[0.1874435763888889],[-0.2996918402777778],[1],[0],[0],[1.145714999991469],"[""trial_slight_right_box""]",0,48,48,86,1,stripmall.jpg,ruralroad3.jpg,sandDunes_desert_outdoor8.jpg,rooftop4.jpg,,
Image_List_1,,,,,,,,,,,,,,,,44406,2020-11-22_19h56.40.070,lingCatScenes,2020.1.3,MacIntel,60,"[1440,900]",,,"[""trial_ahead_box""]",,,,,,,,,,,,gazebo3.jpg,space,0.968735,[0.013910590277777777],[-0.30952256944444445],[1],[0],[0],[0.797500000015134],"[""trial_ahead_box""]",0,49,49,53,1,homeoffice.jpg,frontLawn3.jpg,homegarage3.jpg,fountain.jpg,,
Image_List_1,,,,,,,,,,,,,,,,44406,2020-11-22_19h56.40.070,lingCatScenes,2020.1.3,MacIntel,60,"[1440,900]",,,"[""trial_slight_left_box""]",,,,,,,,,,,,warehouseoutside4.jpg,space,0.96204,[-0.19539930555555557],[-0.3111848958333333],[1],[0],[0],[0.796795000002021],"[""trial_slight_left_box""]",0,50,50,97,1,wineVineyard2.jpg,waitingroom4.jpg,winebarrel3.jpg,warehouseoutside3.jpg,,
Image_List_1,,,,,,,,,,,,,,,,44406,2020-11-22_19h56.40.070,lingCatScenes,2020.1.3,MacIntel,60,"[1440,900]",,,"[""trial_ahead_box"",""trial_slight_left_box""]",,,,,,,,,,,,attic3.jpg,space,1.526635,"[0.002486979166666667,-0.1845703125]","[-0.29114149305555553,-0.2941666666666667]","[1,1]","[0,0]","[0,0]","[0.7813050000113435,1.330195000016829]","[""trial_ahead_box"",""trial_slight_left_box""]",0,51,51,8,1,banquetHall6.jpg,balconyIN.jpg,bar.jpg,applestore4.jpg,,
Image_List_1,,,,,,,,,,,,,,,,44406,2020-11-22_19h56.40.070,lingCatScenes,2020.1.3,MacIntel,60,"[1440,900]",,,"[""trial_slight_left_box"",""trial_ahead_box""]",,,,,,,,,,,,parkinggarage.jpg,space,1.646625,"[-0.1845703125,-0.011762152777777778]","[-0.2941666666666667,-0.28574652777777776]","[1,1]","[0,0]","[0,0]","[0.8618800000112969,1.4799300000013318]","[""trial_slight_left_box"",""trial_ahead_box""]",0,52,52,76,1,playroom4.jpg,parkinggarage3.jpg,park2.jpg,lookout4.jpg,,
Image_List_1,,,,,,,,,,,,,,,,44406,2020-11-22_19h56.40.070,lingCatScenes,2020.1.3,MacIntel,60,"[1440,900]",,,"[""trial_ahead_box"",""trial_slight_left_box""]",,,,,,,,,,,,hut2.jpg,space,1.450365,"[-0.013658854166666666,-0.1826345486111111]","[-0.28574652777777776,-0.2976475694444444]","[1,1]","[0,0]","[0,0]","[0.6139249999832828,1.2635949999967124]","[""trial_ahead_box"",""trial_slight_left_box""]",0,53,53,63,1,museum6.jpg,hotelRoom2.jpg,lab4.jpg,highway2.jpg,,
Image_List_1,,,,,,,,,,,,,,,,44406,2020-11-22_19h56.40.070,lingCatScenes,2020.1.3,MacIntel,60,"[1440,900]",,,"[""trial_slight_left_box"",""trial_ahead_box""]",,,,,,,,,,,,recordingstudio4.jpg,space,2.04182,"[-0.1826345486111111,-0.001328125,0.22547743055555555]","[-0.2976475694444444,-0.3008203125,-0.29995225694444444]","[1,1,1]","[0,0,0]","[0,0,0]","[0.5613200000079814,1.111735000013141,1.6786000000138301]","[""trial_slight_left_box"",""trial_ahead_box""]",0,54,54,85,1,sidewalk5.jpg,ruralroad2.jpg,sandDunes_desert_outdoor3.jpg,rooftop3.jpg,,
Image_List_1,,,,,,,,,,,,,,,,44406,2020-11-22_19h56.40.070,lingCatScenes,2020.1.3,MacIntel,60,"[1440,900]",,,"[""trial_ahead_box"",""trial_slight_left_box"",""trial_left_box"",""trial_sharp_left_box""]",,,,,,,,,,,,boardwalk2.jpg,space,3.057895,"[0.019735243055555556,-0.22313368055555555,-0.4008550347222222,-0.5914583333333333]","[-0.309921875,-0.2852517361111111,-0.2843142361111111,-0.29153211805555557]","[1,1,1,1]","[0,0,0,0]","[0,0,0,0]","[1.0446349999983795,1.6770700000051875,2.245200000004843,2.860660000005737]","[""trial_ahead_box"",""trial_slight_left_box"",""trial_left_box"",""trial_sharp_left_box""]",0,55,55,19,1,casino3.jpg,cafeteria1.jpg,castle4.jpg,basketballcourt.jpg,,
Image_List_1,,,,,,,,,,,,,,,,44406,2020-11-22_19h56.40.070,lingCatScenes,2020.1.3,MacIntel,60,"[1440,900]",,,"[""trial_ahead_box""]",,,,,,,,,,,,igloo2.jpg,space,1.499045,[-0.010798611111111111],[-0.29125],[1],[0],[0],[1.2791500000166707],"[""trial_ahead_box""]",0,56,56,64,1,newsstand5.jpg,jewelrystore8.jpg,lab5.jpg,homegarage2.jpg,,
Image_List_1,,,,,,,,,,,,,,,,44406,2020-11-22_19h56.40.070,lingCatScenes,2020.1.3,MacIntel,60,"[1440,900]",,,"[""trial_ahead_box"",""trial_slight_left_box""]",,,,,,,,,,,,weightroom5.jpg,space,2.07752,"[-0.010798611111111111,-0.2209765625]","[-0.29125,-0.3078081597222222]","[1,1]","[0,0]","[0,0]","[1.2935649999999441,1.8434249999991152]","[""trial_ahead_box"",""trial_slight_left_box""]",0,57,57,98,1,wineVineyard8.jpg,warehouse3.jpg,winebarrel4.jpg,winebarrel2.jpg,,
Image_List_1,,,,,,,,,,,,,,,,44406,2020-11-22_19h56.40.070,lingCatScenes,2020.1.3,MacIntel,60,"[1440,900]",,,"[""trial_ahead_box"",""trial_slight_right_box""]",,,,,,,,,,,,fittingroom2.jpg,space,1.831705,"[-0.016627604166666667,0.207578125]","[-0.2982986111111111,-0.2989236111111111]","[1,1]","[0,0]","[0,0]","[1.0115850000001956,1.6292150000226684]","[""trial_ahead_box"",""trial_slight_right_box""]",0,58,58,45,1,frontFoyer7.jpg,factory1.jpg,forestpath4.jpg,dock4.jpg,,
Image_List_1,,,,,,,,,,,,,,,,44406,2020-11-22_19h56.40.070,lingCatScenes,2020.1.3,MacIntel,60,"[1440,900]",,,"[""trial_ahead_box"",""trial_slight_left_box"",""trial_left_box""]",,,,,,,,,,,,hometheater2.jpg,space,2.95051,"[0.016770833333333332,-0.22418836805555556,-0.41445746527777777]","[-0.3029340277777778,-0.31235243055555556,-0.31703993055555557]","[1,1,1]","[0,0,0]","[0,0,0]","[1.36343999998644,1.9639049999823328,2.5966799999878276]","[""trial_ahead_box"",""trial_slight_left_box"",""trial_left_box""]",0,59,59,60,1,lightingstore3.jpg,homegarage.jpg,kindergarten_classroom6.jpg,hallway.jpg,,
Image_List_1,,,,,,,,,,,,,,,,44406,2020-11-22_19h56.40.070,lingCatScenes,2020.1.3,MacIntel,60,"[1440,900]",,,"[""trial_sharp_left_box"",""trial_ahead_box""]",,,,,,,,,,,,cubicle4.jpg,space,3.56508,"[-0.6246961805555555,0.019774305555555555]","[-0.29670572916666665,-0.30788628472222224]","[1,1]","[0,0]","[0,0]","[2.3464899999962654,3.1467399999964982]","[""trial_sharp_left_box"",""trial_ahead_box""]",0,60,60,31,1,desertvegetation6.jpg,conference4.jpg,courtroom2.jpg,cabin3.jpg,,
Image_List_1,,,,,,,,,,,,,,,,44406,2020-11-22_19h56.40.070,lingCatScenes,2020.1.3,MacIntel,60,"[1440,900]",,,"[""trial_ahead_box"",""trial_sharp_right_box""]",,,,,,,,,,,,lockerroom4.jpg,space,1.967875,"[0.019774305555555555,0.5976519097222223]","[-0.30788628472222224,-0.29063368055555555]","[1,1]","[0,0]","[0,0]","[0.8825749999959953,1.7310449999931734]","[""trial_ahead_box"",""trial_sharp_right_box""]",0,61,61,70,1,pavilion.jpg,lockerroom3.jpg,minigolf8.jpg,igloo.jpg,,
Image_List_1,,,,,,,,,,,,,,,,44406,2020-11-22_19h56.40.070,lingCatScenes,2020.1.3,MacIntel,60,"[1440,900]",,,"[""trial_ahead_box"",""trial_slight_left_box""]",,,,,,,,,,,,firestation2.jpg,space,3.062135,"[0.03322482638888889,0.004557291666666667,-0.24828993055555557,-0.2019140625]","[-0.3142144097222222,-0.3082638888888889,-0.31678385416666666,-0.311171875]","[1,1,1,1]","[0,0,0,0]","[0,0,0,0]","[1.2483050000155345,1.7969650000159163,2.3648749999993015,2.814060000004247]","[""trial_ahead_box"",""trial_slight_left_box""]",0,62,62,44,1,frontFoyer4.jpg,elevatorOutside1.jpg,foodcourt6.jpg,dock2.jpg,,
Image_List_1,,,,,,,,,,,,,,,,44406,2020-11-22_19h56.40.070,lingCatScenes,2020.1.3,MacIntel,60,"[1440,900]",,,"[""trial_ahead_box"",""trial_slight_left_box""]",,,,,,,,,,,,wineVineyard9.jpg,space,3.299735,"[-0.003125,-0.19336805555555556]","[-0.29217447916666667,-0.3227994791666667]","[1,1]","[0,0]","[0,0]","[1.4641499999852385,2.2813899999891873]","[""trial_ahead_box"",""trial_slight_left_box""]",0,63,63,99,1,yogastudio4.jpg,windmill2.jpg,wrestlingring7.jpg,yogastudio1.jpg,,
Image_List_1,,,,,,,,,,,,,,,,44406,2020-11-22_19h56.40.070,lingCatScenes,2020.1.3,MacIntel,60,"[1440,900]",,,"[""trial_ahead_box"",""trial_right_box""]",,,,,,,,,,,,driveway6.jpg,space,2.6357,"[-0.007799479166666666,0.4300954861111111,0.38678819444444446]","[-0.28846788194444445,-0.2974131944444444,-0.2998177083333333]","[1,1,1]","[0,0,0]","[0,0,0]","[0.9142100000171922,1.8475800000014715,2.364189999992959]","[""trial_ahead_box"",""trial_right_box""]",0,64,64,39,1,eyeglassstore9.jpg,drycleaners6.jpg,drymountains5.jpg,cliff5.jpg,,
Image_List_1,,,,,,,,,,,,,,,,44406,2020-11-22_19h56.40.070,lingCatScenes,2020.1.3,MacIntel,60,"[1440,900]",,,"[""trial_ahead_box"",""trial_slight_left_box"",""trial_left_box""]",,,,,,,,,,,,artStudio3.jpg,space,3.000035,"[0.013311631944444444,-0.20748263888888888,-0.3861501736111111]","[-0.3060980902777778,-0.2948046875,-0.2865798611111111]","[1,1,1]","[0,0,0]","[0,0,0]","[1.3292099999962375,2.1620849999890197,2.7791900000011083]","[""trial_ahead_box"",""trial_slight_left_box"",""trial_left_box""]",0,65,65,5,1,bambooforest.jpg,auto_showroom4.jpg,attic4.jpg,amusement3.jpg,,
Image_List_1,,,,,,,,,,,,,,,,44406,2020-11-22_19h56.40.070,lingCatScenes,2020.1.3,MacIntel,60,"[1440,900]",,,[],,,,,,,,,,,,gasstation6.jpg,space,1.449415,[0.02589409722222222],[-0.30254774305555554],[1],[0],[0],[1.1132799999904819],[],0,66,66,51,1,hallway5.jpg,frontDoor5.jpg,hayfield4.jpg,firestation5.jpg,,
Image_List_1,,,,,,,,,,,,,,,,44406,2020-11-22_19h56.40.070,lingCatScenes,2020.1.3,MacIntel,60,"[1440,900]",,,"[""trial_ahead_box""]",,,,,,,,,,,,flowershop.jpg,space,1.39388,[-0.0012413194444444444],[-0.3032942708333333],[1],[0],[0],[0.8474200000055134],"[""trial_ahead_box""]",0,67,67,46,1,frontLawn5.jpg,farmersmarket4.jpg,fountain4.jpg,dormroom6.jpg,,
Image_List_1,,,,,,,,,,,,,,,,44406,2020-11-22_19h56.40.070,lingCatScenes,2020.1.3,MacIntel,60,"[1440,900]",,,"[""trial_ahead_box"",""trial_slight_left_box""]",,,,,,,,,,,,waitingroom2.jpg,space,1.89677,"[-0.0012413194444444444,-0.18206163194444444]","[-0.3032942708333333,-0.3039453125]","[1,1]","[0,0]","[0,0]","[0.9284449999977369,1.5618549999780953]","[""trial_ahead_box"",""trial_slight_left_box""]",0,68,68,95,1,warehouse2.jpg,stripmall6.jpg,weightroom4.jpg,tvstudio3.jpg,,
Image_List_1,,,,,,,,,,,,,,,,44406,2020-11-22_19h56.40.070,lingCatScenes,2020.1.3,MacIntel,60,"[1440,900]",,,"[""trial_ahead_box"",""trial_slight_left_box""]",,,,,,,,,,,,homegarden7.jpg,space,5.64414,"[-0.03497829861111111,-0.013841145833333334,-0.17726128472222222]","[-0.3047699652777778,-0.3006032986111111,-0.3006032986111111]","[1,1,1]","[0,0,0]","[0,0,0]","[4.080094999982975,4.71481499998481,5.314175000006799]","[""trial_ahead_box"",""trial_slight_left_box""]",0,69,69,59,1,library_aisle8.jpg,highway4.jpg,kindergarten_classroom5.jpg,grocerystore3.jpg,,
Image_List_1,,,,,,,,,,,,,,,,44406,2020-11-22_19h56.40.070,lingCatScenes,2020.1.3,MacIntel,60,"[1440,900]",,,"[""trial_ahead_box""]",,,,,,,,,,,,grocerystore5.jpg,space,2.69111,[0.013506944444444445],[-0.30504340277777775],[1],[0],[0],[2.094729999982519],"[""trial_ahead_box""]",0,70,70,56,1,hut3.jpg,golfcourse10.jpg,hut1.jpg,gasstation2.jpg,,
Image_List_1,,,,,,,,,,,,,,,,44406,2020-11-22_19h56.40.070,lingCatScenes,2020.1.3,MacIntel,60,"[1440,900]",,,"[""trial_ahead_box""]",,,,,,,,,,,,backstage2.jpg,space,1.858905,[0.013246527777777777],[-0.30504340277777775],[1],[0],[0],[1.4789349999919068],"[""trial_ahead_box""]",0,71,71,10,1,barbershop3.jpg,ballroom4.jpg,basketballcourt3.jpg,ATM4.jpg,,
Image_List_1,,,,,,,,,,,,,,,,44406,2020-11-22_19h56.40.070,lingCatScenes,2020.1.3,MacIntel,60,"[1440,900]",,,"[""trial_ahead_box"",""trial_slight_right_box""]",,,,,,,,,,,,basement.jpg,space,1.94539,"[0.013246527777777777,0.21196614583333334]","[-0.30504340277777775,-0.2823090277777778]","[1,1]","[0,0]","[0,0]","[0.8783500000135973,1.4954900000011548]","[""trial_ahead_box"",""trial_slight_right_box""]",0,72,72,16,1,cafeteria6.jpg,breakroom2.jpg,campusquad4.jpg,barbershop2.jpg,,
Image_List_1,,,,,,,,,,,,,,,,44406,2020-11-22_19h56.40.070,lingCatScenes,2020.1.3,MacIntel,60,"[1440,900]",,,"[""trial_ahead_box""]",,,,,,,,,,,,promenadeDeck.jpg,space,1.76723,[0.023025173611111113],[-0.2950520833333333],[1],[0],[0],[1.0958799999789335],"[""trial_ahead_box""]",0,73,73,81,1,ruralroad5.jpg,promenadeDeck2.jpg,rainforest5.jpg,pasture8.jpg,,
Image_List_1,,,,,,,,,,,,,,,,44406,2020-11-22_19h56.40.070,lingCatScenes,2020.1.3,MacIntel,60,"[1440,900]",,,"[""trial_ahead_box"",""trial_slight_left_box"",""trial_slight_right_box""]",,,,,,,,,,,,highway7.jpg,space,4.037415,"[0.031006944444444445,0.014956597222222222,-0.2220095486111111,0.24005208333333333,0.19383246527777778]","[-0.2934765625,-0.29672743055555556,-0.29299913194444444,-0.30897135416666666,-0.3033767361111111]","[1,1,1,1,1]","[0,0,0,0,0]","[0,0,0,0,0]","[1.0472699999809265,1.7977050000044983,2.414439999993192,3.0974849999765866,3.614029999997001]","[""trial_ahead_box"",""trial_slight_left_box"",""trial_slight_right_box""]",0,74,74,58,1,lab1.jpg,hedgemaze1.jpg,igloo4.jpg,grocerystore2.jpg,,
Image_List_1,,,,,,,,,,,,,,,,44406,2020-11-22_19h56.40.070,lingCatScenes,2020.1.3,MacIntel,60,"[1440,900]",,,"[""trial_ahead_box""]",,,,,,,,,,,,campsite7.jpg,space,1.879425,[-0.005525173611111111],[-0.299453125],[1],[0],[0],[1.1460650000080932],"[""trial_ahead_box""]",0,75,75,25,1,conference3.jpg,church3.jpg,checkoutcounter2.jpg,botanicalGarden4.jpg,,
Image_List_1,,,,,,,,,,,,,,,,44406,2020-11-22_19h56.40.070,lingCatScenes,2020.1.3,MacIntel,60,"[1440,900]",,,"[""trial_ahead_box"",""trial_slight_right_box""]",,,,,,,,,,,,dining_car2.jpg,space,1.74558,"[-0.005525173611111111,0.21697916666666667]","[-0.299453125,-0.29768229166666665]","[1,1]","[0,0]","[0,0]","[0.7119149999925867,1.4459849999984726]","[""trial_ahead_box"",""trial_slight_right_box""]",0,76,76,38,1,elevatorOutside4.jpg,dock1.jpg,driveway8.jpg,classroom1.jpg,,
Image_List_1,,,,,,,,,,,,,,,,44406,2020-11-22_19h56.40.070,lingCatScenes,2020.1.3,MacIntel,60,"[1440,900]",,,"[""trial_slight_right_box"",""trial_ahead_box"",""trial_slight_left_box"",""trial_sharp_left_box""]",,,,,,,,,,,,baggageClaim4.jpg,space,3.41361,"[0.21697916666666667,0.015538194444444445,-0.19200520833333334,-0.5821310763888888]","[-0.29768229166666665,-0.29961805555555554,-0.3000954861111111,-0.28979166666666667]","[1,1,1,1]","[0,0,0,0]","[0,0,0,0]","[0.6786900000006426,1.3457500000076834,2.1299350000044797,3.129404999985127]","[""trial_slight_right_box"",""trial_ahead_box"",""trial_slight_left_box"",""trial_sharp_left_box""]",0,77,77,12,1,bedroom6.jpg,bambooforest5.jpg,bleachers7.jpg,backyard5.jpg,,
Image_List_1,,,,,,,,,,,,,,,,44406,2020-11-22_19h56.40.070,lingCatScenes,2020.1.3,MacIntel,60,"[1440,900]",,,"[""trial_ahead_box""]",,,,,,,,,,,,attic2.jpg,space,2.727375,[-0.013433159722222223],[-0.2904470486111111],[1],[0],[0],[1.2144400000106543],"[""trial_ahead_box""]",0,78,78,7,1,banquetHall4.jpg,backstage1.jpg,baggageClaim3.jpg,applestore2.jpg,,
Image_List_1,,,,,,,,,,,,,,,,44406,2020-11-22_19h56.40.070,lingCatScenes,2020.1.3,MacIntel,60,"[1440,900]",,,"[""trial_ahead_box""]",,,,,,,,,,,,musicStore3.jpg,space,1.814735,[-0.01177951388888889],[-0.30279079861111113],[1],[0],[0],[0.9956949999905191],"[""trial_ahead_box""]",0,79,79,73,1,photographer_studio2.jpg,nursery.jpg,nursery4.jpg,library_aisle9.jpg,,
Image_List_1,,,,,,,,,,,,,,,,44406,2020-11-22_19h56.40.070,lingCatScenes,2020.1.3,MacIntel,60,"[1440,900]",,,"[""trial_ahead_box"",""trial_slight_left_box""]",,,,,,,,,,,,apartmentBuilding2.jpg,space,2.277825,"[0.004765625,-0.2152734375]","[-0.2907595486111111,-0.29106770833333334]","[1,1]","[0,0]","[0,0]","[1.247494999988703,2.0639349999837577]","[""trial_ahead_box"",""trial_slight_left_box""]",0,80,80,3,1,attic1.jpg,aquarium1.jpg,appleorchard2.jpg,alley3.jpg,,
Image_List_1,,,,,,,,,,,,,,,,44406,2020-11-22_19h56.40.070,lingCatScenes,2020.1.3,MacIntel,60,"[1440,900]",,,"[""trial_ahead_box"",""trial_slight_right_box"",""trial_slight_left_box""]",,,,,,,,,,,,dancestudio6.jpg,space,2.63332,"[0.013537326388888889,0.19246527777777778,-0.18162760416666668]","[-0.28631944444444446,-0.29420572916666665,-0.2882638888888889]","[1,1,1]","[0,0,0]","[0,0,0]","[1.0615249999973457,1.74516500000027,2.446714999998221]","[""trial_ahead_box"",""trial_slight_right_box"",""trial_slight_left_box""]",0,81,81,32,1,diner12.jpg,constructionSite2.jpg,dentist4.jpg,cabin4.jpg,,
Image_List_1,,,,,,,,,,,,,,,,44406,2020-11-22_19h56.40.070,lingCatScenes,2020.1.3,MacIntel,60,"[1440,900]",,,"[""trial_slight_left_box""]",,,,,,,,,,,,airportTerminal4.jpg,space,2.050855,"[-0.18162760416666668,-0.43006944444444445]","[-0.2882638888888889,-0.31298177083333334]","[1,1]","[0,0]","[0,0]","[0.7633500000229105,1.813975000026403]","[""trial_slight_left_box""]",0,82,82,1,1,apartmentBuilding1.jpg,applestore1.jpg,airportTerminal3.jpg,airportTerminal2.jpg,,
Image_List_1,,,,,,,,,,,,,,,,44406,2020-11-22_19h56.40.070,lingCatScenes,2020.1.3,MacIntel,60,"[1440,900]",,,"[""trial_left_box""]",,,,,,,,,,,,newsstand2.jpg,space,1.46793,[-0.40112413194444446],[-0.3063194444444444],[1],[0],[0],[0.7640750000136904],"[""trial_left_box""]",0,83,83,74,1,playground10.jpg,observatory4.jpeg,operatingroom1.jpg,lightingstore2.jpg,,
Image_List_1,,,,,,,,,,,,,,,,44406,2020-11-22_19h56.40.070,lingCatScenes,2020.1.3,MacIntel,60,"[1440,900]",,,"[""trial_ahead_box"",""trial_slight_right_box""]",,,,,,,,,,,,hayfield5.jpg,space,3.918525,"[-0.01204861111111111,0.19916666666666666,-0.17476996527777777]","[-0.3003732638888889,-0.30983940972222224,-0.30926649305555554]","[1,1,1]","[0,0,0]","[0,0,0]","[1.513730000006035,2.464095000002999,3.247189999994589]","[""trial_ahead_box"",""trial_slight_right_box""]",0,84,84,57,1,jail1.jpg,hallway4.jpg,hut5.jpg,gazebo.jpg,,
Image_List_1,,,,,,,,,,,,,,,,44406,2020-11-22_19h56.40.070,lingCatScenes,2020.1.3,MacIntel,60,"[1440,900]",,,"[""trial_slight_left_box""]",,,,,,,,,,,,campsite.jpg,space,1.515145,[-0.18915364583333333],[-0.3004644097222222],[1],[0],[0],[1.0464950000168756],"[""trial_slight_left_box""]",0,85,85,24,1,cliff3.jpg,cave6.jpg,cemetery5.jpg,boardwalk.jpg,,
Image_List_1,,,,,,,,,,,,,,,,44406,2020-11-22_19h56.40.070,lingCatScenes,2020.1.3,MacIntel,60,"[1440,900]",,,"[""trial_slight_left_box"",""trial_sharp_left_box""]",,,,,,,,,,,,HorseRaceTrack.jpg,space,2.33157,"[-0.21475260416666667,-0.6143793402777777]","[-0.2923133680555556,-0.30423177083333336]","[1,1]","[0,0]","[0,0]","[0.8961149999813642,1.6626149999792688]","[""trial_slight_left_box"",""trial_sharp_left_box""]",0,86,86,61,1,metroInside4.jpg,homegarden6.jpg,kindergarten_classroom7.jpg,hayfield6.jpg,,
Image_List_1,,,,,,,,,,,,,,,,44406,2020-11-22_19h56.40.070,lingCatScenes,2020.1.3,MacIntel,60,"[1440,900]",,,"[""trial_ahead_box"",""trial_slight_left_box""]",,,,,,,,,,,,churchInside1.jpg,space,1.932865,"[0.00046875,-0.1920703125]","[-0.2993663194444444,-0.28532552083333335]","[1,1]","[0,0]","[0,0]","[1.161789999983739,1.7619100000010803]","[""trial_ahead_box"",""trial_slight_left_box""]",0,87,87,28,1,dancestudio5.jpg,citystreet10.jpg,clothingstore5.jpg,bridalboutique2.jpg,,
Image_List_1,,,,,,,,,,,,,,,,44406,2020-11-22_19h56.40.070,lingCatScenes,2020.1.3,MacIntel,60,"[1440,900]",,,"[""trial_ahead_box"",""trial_slight_left_box"",""trial_left_box"",""trial_slight_right_box""]",,,,,,,,,,,,tollbooth8.jpg,space,3.65109,"[-0.005733506944444445,-0.18234375,-0.36255208333333333,-0.39362413194444446,0.20457899305555555]","[-0.2894878472222222,-0.3019965277777778,-0.31602864583333334,-0.3012239583333333,-0.2895703125]","[1,1,1,1,1]","[0,0,0,0,0]","[0,0,0,0,0]","[1.097845000011148,1.5961650000244845,2.17982000001939,2.680080000020098,3.446330000006128]","[""trial_ahead_box"",""trial_slight_left_box"",""trial_left_box"",""trial_slight_right_box""]",0,88,88,93,1,volleyballcourt4.jpg,staircase4.jpg,warehouseoutside2.jpg,tenniscourt.jpg,,
Image_List_1,,,,,,,,,,,,,,,,44406,2020-11-22_19h56.40.070,lingCatScenes,2020.1.3,MacIntel,60,"[1440,900]",,,"[""trial_ahead_box"",""trial_slight_left_box""]",,,,,,,,,,,,rooftop1.jpg,space,1.73311,"[-0.015256076388888888,-0.185078125]","[-0.3087065972222222,-0.3035199652777778]","[1,1]","[0,0]","[0,0]","[0.9636499999905936,1.461444999993546]","[""trial_ahead_box"",""trial_slight_left_box""]",0,89,89,88,1,track.jpg,sculpturegarden4.jpg,soccerfield.jpg,sandbox.jpg,,
Image_List_1,,,,,,,,,,,,,,,,44406,2020-11-22_19h56.40.070,lingCatScenes,2020.1.3,MacIntel,60,"[1440,900]",,,"[""trial_ahead_box""]",,,,,,,,,,,,greenhouse2.jpg,space,1.53428,[0.017361111111111112],[-0.30047743055555554],[1],[0],[0],[1.0153949999948964],"[""trial_ahead_box""]",0,90,90,54,1,horsebarn11.jpg,gazebo2.jpg,homegarage4.jpg,frontFoyer.jpg,,
Image_List_1,,,,,,,,,,,,,,,,44406,2020-11-22_19h56.40.070,lingCatScenes,2020.1.3,MacIntel,60,"[1440,900]",,,"[""trial_ahead_box"",""trial_slight_left_box""]",,,,,,,,,,,,gasstation7.jpg,space,1.89977,"[0.017361111111111112,-0.26697482638888886,-0.19952690972222223]","[-0.30047743055555554,-0.28480034722222225,-0.28694010416666665]","[1,1,1]","[0,0,0]","[0,0,0]","[0.5472550000122283,1.1975050000182819,1.614785000012489]","[""trial_ahead_box"",""trial_slight_left_box""]",0,91,91,52,1,hardwarestore1.jpg,frontFoyer6.jpg,highway.jpg,forestpath2.jpg,,
Image_List_1,,,,,,,,,,,,,,,,44406,2020-11-22_19h56.40.070,lingCatScenes,2020.1.3,MacIntel,60,"[1440,900]",,,"[""trial_slight_left_box""]",,,,,,,,,,,,warehouse4.jpg,space,1.159825,[-0.20579427083333332],[-0.2935112847222222],[1],[0],[0],[0.9301400000113063],"[""trial_slight_left_box""]",0,92,92,96,1,warehouseoutside1.jpg,tenniscourt3.jpg,windmill1.jpg,warehouse1.jpg,,
Image_List_1,,,,,,,,,,,,,,,,44406,2020-11-22_19h56.40.070,lingCatScenes,2020.1.3,MacIntel,60,"[1440,900]",,,"[""trial_slight_left_box""]",,,,,,,,,,,,pantry5.jpg,space,0.87724,[-0.20579427083333332],[-0.2935112847222222],[1],[0],[0],[0.5145849999971688],"[""trial_slight_left_box""]",0,93,93,75,1,playground6.jpg,operatingroom4.jpg,park.jpg,lockerroom.jpg,,
Image_List_1,,,,,,,,,,,,,,,,44406,2020-11-22_19h56.40.070,lingCatScenes,2020.1.3,MacIntel,60,"[1440,900]",,,"[""trial_left_box""]",,,,,,,,,,,,greenmountains.jpg,space,1.18086,[-0.42190104166666664],[-0.29096788194444445],[1],[0],[0],[0.8624300000083167],"[""trial_left_box""]",0,94,94,55,1,hotelRoom3.jpg,gazebo5.jpg,hotelRoom7.jpg,frontLawn2.jpg,,
Image_List_1,,,,,,,,,,,,,,,,44406,2020-11-22_19h56.40.070,lingCatScenes,2020.1.3,MacIntel,60,"[1440,900]",,,"[""trial_slight_left_box""]",,,,,,,,,,,,library_aisle3.jpg,space,1.35847,[-0.2082204861111111],[-0.29257378472222223],[1],[0],[0],[1.0954449999844655],"[""trial_slight_left_box""]",0,95,95,67,1,park7.jpg,laundromat4.jpg,liquorstore2.jpg,hospitalroom2.jpg,,
Image_List_1,,,,,,,,,,,,,,,,44406,2020-11-22_19h56.40.070,lingCatScenes,2020.1.3,MacIntel,60,"[1440,900]",,,"[""trial_ahead_box""]",,,,,,,,,,,,metroInside2.jpg,space,1.6924,"[0.0564453125,0.0090625]","[-0.29507378472222223,-0.29507378472222223]","[1,1]","[0,0]","[0,0]","[0.7954150000005029,1.2295349999913014]","[""trial_ahead_box""]",0,96,96,71,1,pavilion5.jpg,metroInside3.jpg,museum3.jpg,jewelrystore.jpg,,
Image_List_1,,,,,,,,,,,,,,,,44406,2020-11-22_19h56.40.070,lingCatScenes,2020.1.3,MacIntel,60,"[1440,900]",,,"[""trial_slight_right_box""]",,,,,,,,,,,,balconyIN2.jpg,space,1.87698,[0.18323784722222222],[-0.29137152777777775],[1],[0],[0],[1.2782050000096206],"[""trial_slight_right_box""]",0,97,97,13,1,bowlingalley3.jpg,beach2.jpg,boardwalk4.jpg,backyard6.jpg,,
Image_List_1,,,,,,,,,,,,,,,,44406,2020-11-22_19h56.40.070,lingCatScenes,2020.1.3,MacIntel,60,"[1440,900]",,,"[""trial_ahead_box""]",,,,,,,,,,,,frontDoor.jpg,space,0.930365,[0.013962673611111111],[-0.2988237847222222],[1],[0],[0],[0.71129999999539],"[""trial_ahead_box""]",0,98,98,47,1,gasstation8.jpg,firestation4.jpg,fountain7.jpg,elevatorOutside2.jpg,,
Image_List_1,,,,,,,,,,,,,,,,44406,2020-11-22_19h56.40.070,lingCatScenes,2020.1.3,MacIntel,60,"[1440,900]",,,"[""trial_slight_left_box""]",,,,,,,,,,,,igloo5.jpg,space,0.94779,[-0.19976996527777777],[-0.3087717013888889],[1],[0],[0],[0.7438649999967311],"[""trial_slight_left_box""]",0,99,99,65,1,newsstand7.jpg,laundromat2.jpeg,labClass7.jpg,homeoffice8.jpg,,
Image_List_1,,,,,,,,,,,,,,,,44406,2020-11-22_19h56.40.070,lingCatScenes,2020.1.3,MacIntel,60,,,,,,,,,,,,,,,,,,,,,,,,,,,,,,,,,,,space,55.6519
