image_list,key_resp_intructions.keys,key_resp_intructions.rt,key_resp_intructions_3.keys,key_resp_intructions_3.rt,PracticeComplete_2.keys,PracticeComplete_2.rt,PracticeComplete_3.keys,PracticeComplete_3.rt,demo_trials.thisRepN,demo_trials.thisTrialN,demo_trials.thisN,demo_trials.thisIndex,demo_trials.ran,demo_images,path_images,participant,date,expName,psychopyVersion,OS,frameRate,windowSize,drawing,numDrawings,drawingSizes,practice_complete.keys,practice_complete.rt,PracticeComplete.keys,PracticeComplete.rt,practice_trials.thisRepN,practice_trials.thisTrialN,practice_trials.thisN,practice_trials.thisIndex,practice_trials.ran,practice_images,feedback_images,key_resp_intructions_2.keys,key_resp_intructions_2.rt,Image_List_5,trial_complete.keys,trial_complete.rt,trials.thisRepN,trials.thisTrialN,trials.thisN,trials.thisIndex,trials.ran,Image_List_1,Image_List_2,Image_List_3,Image_List_4,key_resp.keys,key_resp.rt
Image_List_5,space,12.84686,space,4.71554,space,10.20913,space,1.64813,0,0,0,5,1,right.jpg,right_path.jpg,44422,2020-11-19_14h48.04.164,analogCatScenes,2020.1.3,MacIntel,60,,,,,,,,,,,,,,,,,,,,,,,,,,,,,,,
Image_List_5,,,,,space,2.28588,space,1.042165,0,1,1,6,1,right_left.jpg,right_left_path.jpg,44422,2020-11-19_14h48.04.164,analogCatScenes,2020.1.3,MacIntel,60,,,,,,,,,,,,,,,,,,,,,,,,,,,,,,,
Image_List_5,,,,,space,0.68524,space,0.80235,0,2,2,4,1,left.jpg,left_path.jpg,44422,2020-11-19_14h48.04.164,analogCatScenes,2020.1.3,MacIntel,60,,,,,,,,,,,,,,,,,,,,,,,,,,,,,,,
Image_List_5,,,,,space,1.78198,space,0.567935,0,3,3,0,1,ahead.jpg,ahead_path.jpg,44422,2020-11-19_14h48.04.164,analogCatScenes,2020.1.3,MacIntel,60,,,,,,,,,,,,,,,,,,,,,,,,,,,,,,,
Image_List_5,,,,,space,0.918325,space,2.48314,0,4,4,3,1,ahead_right_left.jpg,ahead_right_left_path.jpg,44422,2020-11-19_14h48.04.164,analogCatScenes,2020.1.3,MacIntel,60,,,,,,,,,,,,,,,,,,,,,,,,,,,,,,,
Image_List_5,,,,,space,0.930405,space,0.818555,0,5,5,2,1,ahead_right.jpg,ahead_right_path.jpg,44422,2020-11-19_14h48.04.164,analogCatScenes,2020.1.3,MacIntel,60,,,,,,,,,,,,,,,,,,,,,,,,,,,,,,,
Image_List_5,,,,,space,0.793665,space,0.630985,0,6,6,1,1,ahead_left.jpg,ahead_left_path.jpg,44422,2020-11-19_14h48.04.164,analogCatScenes,2020.1.3,MacIntel,60,,,,,,,,,,,,,,,,,,,,,,,,,,,,,,,
Image_List_5,,,,,,,,,,,,,,,,44422,2020-11-19_14h48.04.164,analogCatScenes,2020.1.3,MacIntel,60,"[1440,900]",[],0,[],space,0.700685,space,0.98703,0,0,0,4,1,left_2.jpg,left_2_path.jpg,,,,,,,,,,,,,,,,
Image_List_5,,,,,,,,,,,,,,,,44422,2020-11-19_14h48.04.164,analogCatScenes,2020.1.3,MacIntel,60,"[1440,900]",[],0,[],space,0.5833,space,0.70141,0,1,1,2,1,ahead_right_2.jpg,ahead_right_2_path.jpg,,,,,,,,,,,,,,,,
Image_List_5,,,,,,,,,,,,,,,,44422,2020-11-19_14h48.04.164,analogCatScenes,2020.1.3,MacIntel,60,"[1440,900]",[],0,[],space,0.5352,space,0.43441,0,2,2,5,1,right_2.jpg,right_2_path.jpg,,,,,,,,,,,,,,,,
Image_List_5,,,,,,,,,,,,,,,,44422,2020-11-19_14h48.04.164,analogCatScenes,2020.1.3,MacIntel,60,"[1440,900]",[],0,[],space,0.849735,space,1.61509,0,3,3,0,1,ahead_2.jpg,ahead_2_path.jpg,,,,,,,,,,,,,,,,
Image_List_5,,,,,,,,,,,,,,,,44422,2020-11-19_14h48.04.164,analogCatScenes,2020.1.3,MacIntel,60,"[1440,900]","[[[-0.0043359375,-0.19913194444444443],[-0.0043359375,-0.19913194444444443],[-0.0043359375,-0.19913194444444443],[-0.0043359375,-0.19913194444444443],[-0.0043359375,-0.19913194444444443],[-0.0043359375,-0.19913194444444443],[-0.0043359375,-0.19913194444444443],[-0.0043359375,-0.19913194444444443],[-0.0043359375,-0.19913194444444443],[-0.0043359375,-0.19913194444444443],[-0.0043359375,-0.19913194444444443],[-0.0043359375,-0.1986111111111111],[-0.005759548611111111,-0.19115451388888888],[-0.012747395833333333,-0.1740451388888889],[-0.017964409722222224,-0.15704861111111112],[-0.021796875,-0.14258680555555556],[-0.02668402777777778,-0.1211328125],[-0.027756076388888887,-0.11632378472222223],[-0.03008246527777778,-0.10411458333333333],[-0.033914930555555556,-0.08887152777777778],[-0.03658420138888889,-0.07927951388888889],[-0.04075954861111111,-0.06616319444444445],[-0.045151909722222223,-0.051111111111111114],[-0.04986979166666667,-0.03814670138888889],[-0.053125,-0.028984375],[-0.0577734375,-0.016649305555555556],[-0.06167100694444445,-0.008229166666666666],[-0.06460069444444444,-0.0008940972222222222],[-0.06803385416666667,0.006440972222222222],[-0.07272135416666667,0.01474392361111111],[-0.07837239583333333,0.02491753472222222],[-0.08458767361111111,0.034518229166666664],[-0.08920572916666666,0.04123263888888889],[-0.09422743055555556,0.0483203125],[-0.0980078125,0.05405381944444444],[-0.10356336805555555,0.06061197916666667],[-0.10722222222222222,0.06565538194444444],[-0.11034722222222222,0.07013454861111111],[-0.1144921875,0.07616753472222222],[-0.11827690972222223,0.0818359375],[-0.12249565972222222,0.08813368055555555],[-0.12494791666666667,0.09181423611111111],[-0.12618055555555555,0.0938671875],[-0.12864583333333332,0.09756510416666667],[-0.13186631944444444,0.10236545138888889],[-0.13392361111111112,0.10606336805555555],[-0.1353732638888889,0.10860677083333334],[-0.1373654513888889,0.11177083333333333],[-0.13894965277777777,0.11534288194444445],[-0.14046875,0.1183810763888889],[-0.14368489583333333,0.12390190972222222],[-0.1463237847222222,0.1282421875],[-0.15135850694444444,0.1353515625],[-0.15469618055555556,0.1415234375],[-0.15782118055555555,0.14641059027777778],[-0.16091145833333334,0.1512673611111111],[-0.16378472222222223,0.1549609375],[-0.16901041666666666,0.1605859375],[-0.17188368055555556,0.1634592013888889],[-0.17467013888888888,0.16624565972222222],[-0.17744791666666668,0.1690234375],[-0.17989583333333334,0.17229166666666668],[-0.1827734375,0.17558159722222222],[-0.18467447916666666,0.1782421875],[-0.18789930555555556,0.183046875],[-0.18859809027777777,0.18409288194444445],[-0.1900564236111111,0.18665798611111112],[-0.19214409722222223,0.1897829861111111],[-0.19348090277777777,0.1914670138888889],[-0.19446614583333333,0.1931467013888889],[-0.19545572916666668,0.19483072916666666],[-0.1964453125,0.19651475694444445],[-0.19714409722222223,0.19860243055555554],[-0.19790364583333334,0.20163194444444443],[-0.19866753472222223,0.20467013888888888],[-0.19904947916666665,0.20770833333333333],[-0.19940104166666667,0.2098003472222222],[-0.19975260416666665,0.211484375],[-0.19975260416666665,0.21276041666666667],[-0.20007378472222223,0.21368489583333333],[-0.20007378472222223,0.2149609375],[-0.20039496527777778,0.21769097222222222],[-0.20039496527777778,0.21977430555555555],[-0.20039496527777778,0.2208203125],[-0.20039496527777778,0.22250434027777777],[-0.20039496527777778,0.22378038194444444],[-0.20039496527777778,0.22436197916666667],[-0.20039496527777778,0.22465277777777778],[-0.20039496527777778,0.22520399305555555],[-0.20039496527777778,0.22711805555555556],[-0.20039496527777778,0.22880208333333332],[-0.20039496527777778,0.23048177083333332],[-0.199765625,0.2326779513888889],[-0.1991623263888889,0.23360677083333334],[-0.19858940972222222,0.23418836805555557],[-0.19801649305555555,0.23476996527777777],[-0.19744357638888888,0.23506076388888889],[-0.19687065972222223,0.23564236111111111],[-0.19560329861111111,0.23596354166666667],[-0.19392795138888888,0.23663628472222223],[-0.1913888888888889,0.23771267361111112],[-0.188359375,0.23885416666666667],[-0.18655815972222223,0.23923611111111112],[-0.1852907986111111,0.23955729166666667],[-0.18471788194444444,0.2398480902777778],[-0.18414930555555556,0.2398480902777778],[-0.1835763888888889,0.2398480902777778],[-0.1835763888888889,0.2398480902777778],[-0.1835763888888889,0.2398480902777778],[-0.18331597222222223,0.2398480902777778],[-0.18331597222222223,0.2398480902777778],[-0.18305555555555555,0.2398480902777778],[-0.18276909722222223,0.2398480902777778],[-0.18221354166666667,0.2401215277777778],[-0.18129774305555554,0.24072916666666666],[-0.18003472222222222,0.2410503472222222],[-0.178359375,0.24140190972222222],[-0.17709635416666666,0.24171875],[-0.17582899305555555,0.24203993055555556],[-0.17490885416666666,0.24233072916666668],[-0.17434027777777777,0.24233072916666668],[-0.17405381944444445,0.24233072916666668],[-0.17405381944444445,0.24233072916666668],[-0.17405381944444445,0.24233072916666668],[-0.17405381944444445,0.24233072916666668],[-0.17405381944444445,0.24233072916666668]],[[0.005868055555555555,-0.2030642361111111],[0.005868055555555555,-0.2030642361111111],[0.005868055555555555,-0.2030642361111111],[0.005868055555555555,-0.2030642361111111],[0.005868055555555555,-0.2030642361111111],[0.005868055555555555,-0.2030642361111111],[0.005868055555555555,-0.2030642361111111],[0.005868055555555555,-0.2030642361111111],[0.005868055555555555,-0.2030642361111111],[0.005868055555555555,-0.2030642361111111],[0.005868055555555555,-0.2017578125],[0.005868055555555555,-0.1958029513888889],[0.009305555555555555,-0.18051215277777777],[0.013528645833333333,-0.16517795138888888],[0.017204861111111112,-0.15229600694444445],[0.025642361111111112,-0.126796875],[0.03340711805555555,-0.10705729166666667],[0.04261284722222222,-0.08325520833333333],[0.05168836805555556,-0.059921875],[0.05814236111111111,-0.04502604166666667],[0.06539930555555555,-0.030247395833333333],[0.06888454861111111,-0.022543402777777777],[0.07619357638888889,-0.007595486111111111],[0.080078125,-0.0012630208333333332],[0.0840407986111111,0.005681423611111111],[0.08526909722222223,0.007326388888888889],[0.09048611111111111,0.016332465277777777],[0.09458767361111112,0.023997395833333334],[0.09848524305555556,0.030355902777777777],[0.10244791666666667,0.0373046875],[0.10658854166666666,0.04334201388888889],[0.10923177083333334,0.0476953125],[0.11222222222222222,0.05195746527777778],[0.1160546875,0.058129340277777775],[0.11869791666666667,0.06348958333333334],[0.1215234375,0.07016493055555556],[0.12423177083333334,0.07505208333333334],[0.1274392361111111,0.08053385416666667],[0.13044270833333332,0.085234375],[0.13419270833333333,0.09092881944444445],[0.13740017361111112,0.09549913194444444],[0.14117621527777777,0.10116753472222222],[0.14381944444444444,0.10552083333333333],[0.1469314236111111,0.11040364583333333],[0.14944878472222223,0.11413194444444444],[0.15217881944444445,0.11879774305555556],[0.15340711805555557,0.12044270833333333],[0.15677517361111112,0.12678819444444445],[0.1588454861111111,0.13094618055555557],[0.16151475694444445,0.13522135416666667],[0.16358940972222222,0.13938802083333332],[0.16786024305555555,0.14621961805555556],[0.16983940972222222,0.1497873263888889],[0.17180555555555554,0.15292534722222223],[0.17330729166666667,0.15594184027777777],[0.17481770833333332,0.15898003472222222],[0.1773654513888889,0.16368055555555555],[0.1790625,0.16784722222222223],[0.18226128472222222,0.17331163194444443],[0.18480902777777777,0.17801215277777777],[0.187265625,0.18171006944444446],[0.18922309027777778,0.1849045138888889],[0.19114583333333332,0.1875954861111111],[0.19296875,0.18977430555555555],[0.194296875,0.19145833333333334],[0.195625,0.1931423611111111],[0.1965451388888889,0.19407118055555556],[0.1978125,0.19534722222222223],[0.19945746527777777,0.19766927083333333],[0.20009114583333334,0.19830729166666666],[0.20211371527777777,0.20103732638888888],[0.20280815972222221,0.20208333333333334],[0.20369357638888888,0.2032986111111111],[0.2042621527777778,0.20387586805555555],[0.20483506944444443,0.20416666666666666],[0.20483506944444443,0.20416666666666666],[0.2050954861111111,0.20416666666666666],[0.206015625,0.2050954861111111],[0.20769097222222221,0.20643229166666666],[0.20977430555555557,0.20782986111111112],[0.21233072916666668,0.20894097222222222],[0.21296006944444446,0.2092578125],[0.21414930555555556,0.20981770833333332],[0.21472222222222223,0.21010850694444444],[0.21500868055555555,0.21039930555555555],[0.2152777777777778,0.21039930555555555],[0.21554253472222223,0.21039930555555555],[0.21645833333333334,0.21100694444444446],[0.21737847222222223,0.21129774305555554],[0.21829861111111112,0.21158854166666666],[0.21887152777777777,0.21187934027777777],[0.21944444444444444,0.21187934027777777],[0.22001736111111111,0.2121701388888889],[0.2205859375,0.2124565972222222],[0.22115885416666667,0.21274739583333332],[0.2220138888888889,0.21303385416666668],[0.22230034722222222,0.21303385416666668],[0.22230034722222222,0.21303385416666668],[0.22230034722222222,0.21303385416666668],[0.22230034722222222,0.21303385416666668],[0.22230034722222222,0.21303385416666668],[0.22230034722222222,0.21303385416666668],[0.22230034722222222,0.21303385416666668],[0.22230034722222222,0.21303385416666668]]]",2,"[126,104]",space,20.78397,space,1.91262,0,4,4,6,1,right_left_2.jpg,right_left_2_path.jpg,,,,,,,,,,,,,,,,
Image_List_5,,,,,,,,,,,,,,,,44422,2020-11-19_14h48.04.164,analogCatScenes,2020.1.3,MacIntel,60,"[1440,900]","[[[0.00030381944444444445,-0.20360677083333334],[0.00030381944444444445,-0.20360677083333334],[0.00030381944444444445,-0.20360677083333334],[0.00030381944444444445,-0.20360677083333334],[0.00030381944444444445,-0.20360677083333334],[0.00030381944444444445,-0.20360677083333334],[0.00030381944444444445,-0.20360677083333334],[0.00030381944444444445,-0.20360677083333334],[0.00030381944444444445,-0.20360677083333334],[0.00030381944444444445,-0.20360677083333334],[0.00030381944444444445,-0.20360677083333334],[-0.002265625,-0.20360677083333334],[-0.0118359375,-0.2025347222222222],[-0.02163628472222222,-0.19970052083333334],[-0.03572048611111111,-0.19540364583333333],[-0.05077256944444444,-0.19101128472222223],[-0.06388888888888888,-0.18862413194444444],[-0.07607204861111111,-0.18743055555555554],[-0.08743923611111111,-0.18569878472222223],[-0.10055555555555555,-0.1827170138888889],[-0.12110677083333334,-0.1764279513888889],[-0.13862847222222222,-0.16899739583333334],[-0.1551779513888889,-0.16059895833333335],[-0.1731640625,-0.15094618055555556],[-0.18243489583333333,-0.14595052083333335],[-0.19152777777777777,-0.14111979166666666],[-0.19788628472222222,-0.13721354166666666],[-0.20454427083333335,-0.13432291666666665],[-0.20869791666666668,-0.13268229166666667],[-0.21399305555555556,-0.1304730902777778],[-0.2181597222222222,-0.12838975694444443],[-0.22125434027777777,-0.12721788194444444],[-0.22334635416666668,-0.12616753472222222],[-0.22503038194444444,-0.12514756944444444],[-0.22876736111111112,-0.12251736111111111],[-0.23096354166666666,-0.12075954861111111],[-0.23884114583333332,-0.11520833333333333],[-0.2433203125,-0.11208333333333333],[-0.24815538194444445,-0.10899305555555555],[-0.25225694444444446,-0.10653211805555556],[-0.2559548611111111,-0.10447482638888889],[-0.2600607638888889,-0.10323784722222222],[-0.26362413194444445,-0.10203559027777778],[-0.26719618055555555,-0.10082899305555555],[-0.2712934027777778,-0.09918402777777778],[-0.27598090277777776,-0.09748263888888889],[-0.2800651041666667,-0.09543836805555556],[-0.2841579861111111,-0.09379774305555555],[-0.2882638888888889,-0.0921484375],[-0.29182725694444445,-0.09056857638888889],[-0.29539930555555555,-0.08857638888888889],[-0.29897135416666665,-0.0869921875],[-0.30213541666666666,-0.085],[-0.30516927083333334,-0.08385850694444444],[-0.30873697916666665,-0.08265190972222222],[-0.3122960069444444,-0.08186197916666667],[-0.3173871527777778,-0.08068576388888889],[-0.3194401041666667,-0.0802734375],[-0.323515625,-0.07954427083333333],[-0.3260807291666667,-0.07881076388888889],[-0.3275868055555556,-0.07843315972222223],[-0.3303168402777778,-0.07773003472222222],[-0.3315885416666667,-0.07740885416666667],[-0.3321657986111111,-0.07740885416666667],[-0.3324565972222222,-0.07711805555555555],[-0.3324565972222222,-0.07711805555555555],[-0.3324565972222222,-0.07711805555555555],[-0.3324565972222222,-0.07711805555555555],[-0.3324565972222222,-0.07711805555555555],[-0.3327170138888889,-0.07711805555555555]],[[-0.0005425347222222222,-0.19299913194444446],[-0.0005425347222222222,-0.19299913194444446],[-0.0005425347222222222,-0.19299913194444446],[-0.0005425347222222222,-0.19299913194444446],[-0.0005425347222222222,-0.19299913194444446],[-0.0005425347222222222,-0.19299913194444446],[-0.0005425347222222222,-0.19299913194444446],[-0.0005425347222222222,-0.19299913194444446],[-0.0005425347222222222,-0.19299913194444446],[-0.0005425347222222222,-0.19299913194444446],[-0.0005425347222222222,-0.19299913194444446],[-0.0005425347222222222,-0.1924826388888889],[-0.0005425347222222222,-0.18944878472222224],[0.0026953125,-0.18387152777777777],[0.011844618055555556,-0.17023003472222223],[0.021558159722222223,-0.15643229166666667],[0.03326388888888889,-0.1405859375],[0.047942708333333334,-0.12297743055555556],[0.05803819444444445,-0.11164930555555555],[0.07373697916666666,-0.09594184027777777],[0.08689670138888889,-0.08409288194444445],[0.09880642361111111,-0.07342881944444445],[0.1079296875,-0.06484375],[0.11330729166666667,-0.05945746527777778],[0.1205859375,-0.05116319444444444],[0.12430989583333334,-0.046015625],[0.13038194444444445,-0.03947048611111111],[0.13570746527777777,-0.03413628472222222],[0.1462109375,-0.027630208333333333],[0.15102864583333334,-0.025451388888888888],[0.15650173611111112,-0.022235243055555555],[0.1611935763888889,-0.0201171875],[0.16528211805555557,-0.01806423611111111],[0.1712282986111111,-0.015321180555555555],[0.17717447916666668,-0.013489583333333333],[0.18522135416666666,-0.011979166666666667],[0.19057291666666668,-0.01109375],[0.19858940972222222,-0.0101171875],[0.2051779513888889,-0.009644097222222222],[0.20986979166666667,-0.009644097222222222],[0.2134331597222222,-0.009231770833333333],[0.21551649305555556,-0.009231770833333333],[0.21678385416666668,-0.009231770833333333],[0.2188671875,-0.009231770833333333],[0.2214236111111111,-0.009231770833333333],[0.22443142361111112,-0.009231770833333333],[0.22698350694444444,-0.009231770833333333],[0.2282465277777778,-0.009231770833333333],[0.22951388888888888,-0.009231770833333333],[0.23262152777777778,-0.008880208333333334],[0.23413628472222223,-0.008498263888888889],[0.2376779513888889,-0.0077083333333333335],[0.24222222222222223,-0.0065625],[0.24430555555555555,-0.005859375],[0.2468576388888889,-0.005125868055555555],[0.24894097222222222,-0.004774305555555556],[0.2510807291666667,-0.004396701388888889],[0.25275607638888886,-0.004045138888888889],[0.2544314236111111,-0.003693576388888889],[0.25610677083333333,-0.0033420138888888887],[0.2573741319444444,-0.0030208333333333333],[0.25992621527777776,-0.0026692708333333334],[0.2624826388888889,-0.0023177083333333335],[0.2645659722222222,-0.001966145833333333],[0.2658333333333333,-0.001966145833333333],[0.26838541666666665,-0.001584201388888889],[0.2696527777777778,-0.0012630208333333332],[0.27057291666666666,-0.0009418402777777778],[0.2711458333333333,-0.0009418402777777778],[0.27171875,-0.0009418402777777778],[0.27171875,-0.0006727430555555556],[0.27171875,-0.0006727430555555556],[0.27171875,-0.0006727430555555556],[0.27171875,-0.0006727430555555556]],[[0.0008203125,-0.1986328125],[0.0008203125,-0.1986328125],[0.0008203125,-0.1986328125],[0.0008203125,-0.1986328125],[0.0008203125,-0.1986328125],[0.0008203125,-0.1986328125],[0.0008203125,-0.1986328125],[0.0008203125,-0.1986328125],[0.0008203125,-0.1986328125],[0.0008203125,-0.1986328125],[0.0008203125,-0.19811197916666667],[0.0008203125,-0.19346788194444445],[0.0008203125,-0.1846310763888889],[0.0008203125,-0.17417100694444446],[0.0008203125,-0.16936197916666668],[0.0008203125,-0.15452690972222222],[0.0013845486111111111,-0.13901041666666666],[0.002573784722222222,-0.12583333333333332],[0.004874131944444445,-0.11371961805555555],[0.005876736111111111,-0.10542100694444445],[0.006875,-0.09736545138888889],[0.007782118055555555,-0.09141059027777777],[0.008628472222222221,-0.08671875],[0.009066840277777778,-0.08202256944444444],[0.009066840277777778,-0.07672743055555556],[0.009066840277777778,-0.07143229166666666],[0.009066840277777778,-0.06613715277777778],[0.009066840277777778,-0.06019097222222222],[0.009066840277777778,-0.05549045138888889],[0.009066840277777778,-0.05138454861111111],[0.009409722222222222,-0.04882378472222222],[0.009409722222222222,-0.04754774305555556],[0.009696180555555555,-0.04661892361111111],[0.009696180555555555,-0.04634548611111111],[0.010099826388888889,-0.04367621527777778],[0.010855034722222223,-0.0405859375],[0.011671006944444444,-0.03648003472222222],[0.012452256944444445,-0.0329296875],[0.012799479166666667,-0.030850694444444444],[0.013081597222222222,-0.029518229166666667],[0.013081597222222222,-0.028936631944444444],[0.013081597222222222,-0.028663194444444446],[0.013081597222222222,-0.028663194444444446],[0.013081597222222222,-0.028663194444444446],[0.013081597222222222,-0.028663194444444446],[0.013081597222222222,-0.028663194444444446],[0.013081597222222222,-0.028402777777777777],[0.013428819444444445,-0.027083333333333334],[0.014092881944444444,-0.025399305555555557],[0.014405381944444445,-0.024127604166666667],[0.014405381944444445,-0.023198784722222223],[0.014722222222222222,-0.02226996527777778],[0.014722222222222222,-0.021979166666666668],[0.014722222222222222,-0.021979166666666668],[0.014722222222222222,-0.021714409722222223],[0.014722222222222222,-0.021714409722222223],[0.014722222222222222,-0.021714409722222223],[0.015065104166666666,-0.020143229166666665],[0.015407986111111112,-0.01806423611111111],[0.015750868055555554,-0.0159765625],[0.015750868055555554,-0.014704861111111111],[0.016384548611111112,-0.012387152777777778],[0.016384548611111112,-0.011753472222222222],[0.016671006944444445,-0.011171875],[0.016671006944444445,-0.010299479166666667],[0.016671006944444445,-0.010299479166666667],[0.016671006944444445,-0.010299479166666667],[0.01693142361111111,-0.010034722222222223],[0.01693142361111111,-0.010034722222222223],[0.01693142361111111,-0.010034722222222223],[0.01693142361111111,-0.010034722222222223],[0.01693142361111111,-0.010034722222222223],[0.01693142361111111,-0.010034722222222223],[0.01693142361111111,-0.010034722222222223],[0.01693142361111111,-0.010034722222222223],[0.01693142361111111,-0.010034722222222223],[0.01693142361111111,-0.010034722222222223]]]",3,"[70,74,77]",space,13.11763,space,1.44787,0,5,5,3,1,ahead_right_left_2.jpg,ahead_right_left_2_path.jpg,,,,,,,,,,,,,,,,
Image_List_5,,,,,,,,,,,,,,,,44422,2020-11-19_14h48.04.164,analogCatScenes,2020.1.3,MacIntel,60,"[1440,900]","[[[-0.004192708333333333,-0.2027734375],[-0.004192708333333333,-0.2027734375],[-0.004192708333333333,-0.2027734375],[-0.004192708333333333,-0.2027734375],[-0.004192708333333333,-0.2027734375],[-0.004192708333333333,-0.2027734375],[-0.004192708333333333,-0.2027734375],[-0.004192708333333333,-0.2027734375],[-0.004192708333333333,-0.2027734375],[-0.004192708333333333,-0.2027734375],[-0.004192708333333333,-0.2027734375],[-0.004192708333333333,-0.2027734375],[-0.004192708333333333,-0.2027734375],[-0.004192708333333333,-0.2027734375],[-0.004192708333333333,-0.2027734375],[-0.004192708333333333,-0.2027734375],[-0.004192708333333333,-0.2027734375],[-0.004192708333333333,-0.20225694444444445],[-0.004192708333333333,-0.2005859375],[-0.004192708333333333,-0.19849392361111112],[-0.004192708333333333,-0.1953689236111111],[-0.004192708333333333,-0.19328125],[-0.004192708333333333,-0.19223958333333332],[-0.004192708333333333,-0.18862847222222223],[-0.004192708333333333,-0.18606770833333333],[-0.004192708333333333,-0.18302951388888888],[-0.0037847222222222223,-0.17945746527777778],[-0.0034071180555555556,-0.17641927083333334],[-0.0029991319444444445,-0.1728515625],[-0.0025911458333333333,-0.1692795138888889],[-0.002183159722222222,-0.16570746527777777],[-0.0017447916666666666,-0.16101128472222223],[-0.001306423611111111,-0.1563107638888889],[-0.0008680555555555555,-0.15161458333333333],[-0.0004600694444444444,-0.1469184027777778],[0.0003559027777777778,-0.14075954861111112],[0.0007638888888888889,-0.13870659722222223],[0.001171875,-0.13460069444444445],[0.001579861111111111,-0.13049913194444446],[0.001987847222222222,-0.12642795138888888],[0.0024262152777777776,-0.12172743055555556],[0.0033029513888888887,-0.11643229166666667],[0.0037065972222222222,-0.11234375],[0.0045225694444444445,-0.10618055555555556],[0.004926215277777778,-0.10414496527777778],[0.005711805555555556,-0.0990625],[0.006497395833333333,-0.09549045138888888],[0.007313368055555556,-0.09139322916666667],[0.008190104166666667,-0.08609809027777778],[0.010008680555555555,-0.08015190972222222],[0.01189236111111111,-0.0735373263888889],[0.013363715277777778,-0.06620225694444444],[0.014930555555555556,-0.05737413194444444],[0.016497395833333334,-0.04853732638888889],[0.01806423611111111,-0.039700520833333336],[0.019661458333333333,-0.03108940972222222],[0.020694444444444446,-0.022252604166666665],[0.022230902777777777,-0.013415798611111111],[0.023255208333333333,-0.004626736111111111],[0.024288194444444446,0.004210069444444444],[0.025316840277777777,0.013033854166666666],[0.02634548611111111,0.021848958333333335],[0.027408854166666666,0.03146267361111111],[0.02844184027777778,0.041041666666666664],[0.02947048611111111,0.04982638888888889],[0.030538194444444444,0.059444444444444446],[0.0311328125,0.07165364583333333],[0.03174045138888889,0.09116319444444444],[0.03233506944444445,0.09772135416666666],[0.03292534722222222,0.1183203125],[0.03292534722222222,0.12577256944444445],[0.033394097222222224,0.13237413194444445],[0.033394097222222224,0.13544704861111112],[0.033394097222222224,0.13713107638888888],[0.033394097222222224,0.1377126736111111],[0.033394097222222224,0.13800347222222223],[0.033394097222222224,0.13827256944444444],[0.033394097222222224,0.13827256944444444],[0.033394097222222224,0.14087239583333333],[0.033394097222222224,0.14616753472222221],[0.033394097222222224,0.1541970486111111],[0.033394097222222224,0.16027777777777777],[0.03383246527777778,0.16557291666666665],[0.03383246527777778,0.168671875],[0.0341796875,0.1703515625],[0.0341796875,0.17093315972222223],[0.0341796875,0.17122395833333334],[0.0341796875,0.1717795138888889],[0.03452256944444444,0.1738671875],[0.03452256944444444,0.17555121527777778],[0.03483506944444444,0.1774609375],[0.03483506944444444,0.1777517361111111],[0.03483506944444444,0.17802517361111111],[0.03483506944444444,0.17831597222222223],[0.03483506944444444,0.180390625],[0.03483506944444444,0.1824435763888889],[0.03483506944444444,0.1892578125],[0.03483506944444444,0.19517795138888888],[0.03483506944444444,0.2011328125],[0.03483506944444444,0.2052951388888889],[0.03483506944444444,0.20786024305555556],[0.03483506944444444,0.20995225694444444],[0.03483506944444444,0.2125173611111111],[0.03448350694444444,0.214609375],[0.0341015625,0.21764756944444444],[0.03371961805555555,0.2206857638888889],[0.033368055555555554,0.2232421875],[0.033016493055555554,0.22492621527777779],[0.0326953125,0.22620225694444446],[0.0326953125,0.2267795138888889],[0.0326953125,0.2267795138888889],[0.0326953125,0.2267795138888889],[0.0326953125,0.2267795138888889],[0.0326953125,0.2267795138888889],[0.0326953125,0.2267795138888889],[0.0326953125,0.2267795138888889],[0.0326953125,0.2267795138888889],[0.0326953125,0.2267795138888889],[0.0326953125,0.2267795138888889],[0.0326953125,0.2267795138888889],[0.0326953125,0.2267795138888889],[0.0326953125,0.2267795138888889],[0.0326953125,0.2267795138888889],[0.0326953125,0.2267795138888889],[0.0326953125,0.2267795138888889],[0.0326953125,0.2267795138888889],[0.0326953125,0.2267795138888889],[0.0326953125,0.2267795138888889],[0.0326953125,0.2267795138888889],[0.0326953125,0.2267795138888889],[0.0326953125,0.2267795138888889],[0.0326953125,0.2267795138888889],[0.0326953125,0.2267795138888889],[0.0326953125,0.2267795138888889],[0.0326953125,0.2267795138888889],[0.0326953125,0.2267795138888889],[0.0326953125,0.2267795138888889],[0.0326953125,0.2267795138888889],[0.0326953125,0.2267795138888889],[0.0326953125,0.2267795138888889],[0.0326953125,0.2267795138888889],[0.0326953125,0.2267795138888889],[0.0326953125,0.2267795138888889],[0.0326953125,0.2267795138888889],[0.0326953125,0.2267795138888889],[0.0326953125,0.2267795138888889],[0.0326953125,0.2267795138888889],[0.0326953125,0.2267795138888889],[0.0326953125,0.2267795138888889]],[[0.0054600694444444445,-0.20168402777777777],[0.0054600694444444445,-0.20168402777777777],[0.0054600694444444445,-0.20168402777777777],[0.0054600694444444445,-0.20168402777777777],[0.0054600694444444445,-0.20168402777777777],[0.0054600694444444445,-0.20168402777777777],[0.0054600694444444445,-0.20168402777777777],[0.0054600694444444445,-0.20168402777777777],[0.0054600694444444445,-0.20168402777777777],[0.0054600694444444445,-0.20168402777777777],[0.0054600694444444445,-0.20168402777777777],[0.0058984375,-0.19826388888888888],[0.012486979166666667,-0.1894357638888889],[0.01794704861111111,-0.18063802083333333],[0.0320703125,-0.1614019097222222],[0.04519097222222222,-0.146171875],[0.060885416666666664,-0.12748697916666665],[0.07220486111111112,-0.11684895833333334],[0.08764322916666667,-0.10208333333333333],[0.10802951388888889,-0.08323350694444444],[0.12425347222222222,-0.06913194444444444],[0.15171006944444446,-0.04709635416666667],[0.15621527777777777,-0.043715277777777777],[0.17206597222222222,-0.0319921875],[0.1835546875,-0.02290798611111111],[0.19875868055555557,-0.011193576388888888],[0.20378472222222221,-0.0083984375],[0.21230902777777777,-0.0030642361111111113],[0.2224001736111111,0.0017838541666666667],[0.2292230902777778,0.005217013888888889],[0.23450954861111112,0.007864583333333333],[0.23876302083333334,0.010863715277777778],[0.24301649305555556,0.013862847222222223],[0.24629340277777778,0.01673611111111111],[0.2513107638888889,0.020850694444444446],[0.2546527777777778,0.023758680555555557],[0.2592057291666667,0.027877604166666667],[0.26361545138888887,0.031410590277777775],[0.2668967013888889,0.03470052083333333],[0.2696614583333333,0.037061631944444444],[0.2719357638888889,0.03934461805555556],[0.27370225694444444,0.04111979166666667],[0.27588107638888887,0.04296006944444444],[0.27761284722222224,0.04470052083333333],[0.2798828125,0.04697916666666667],[0.28265625,0.04934895833333333],[0.28543402777777777,0.05213541666666666],[0.28821180555555553,0.05450954861111111],[0.29147135416666664,0.05736979166666667],[0.29430121527777775,0.06062065972222222],[0.2970703125,0.06298611111111112],[0.3009722222222222,0.06649305555555556],[0.3032465277777778,0.06877604166666666],[0.30552083333333335,0.07105902777777778],[0.3076996527777778,0.07289930555555556],[0.31047743055555554,0.0752734375],[0.31265190972222223,0.077109375],[0.314921875,0.07938802083333334],[0.3176996527777778,0.08176215277777778],[0.32047743055555555,0.08413628472222222],[0.32325086805555553,0.0865060763888889],[0.3265104166666667,0.08895833333333333],[0.32916232638888887,0.090859375],[0.33133246527777777,0.0926953125],[0.3338845486111111,0.09415364583333333],[0.3376649305555556,0.09661892361111112],[0.34030381944444443,0.098515625],[0.343984375,0.1009765625],[0.3487717013888889,0.1041970486111111]]]",2,"[149,69]",space,17.66849,space,2.167205,0,6,6,1,1,ahead_left_2.jpg,ahead_left_2_path.jpg,,,,,,,,,,,,,,,,
Image_List_5,,,,,,,,,,,,,,,,44422,2020-11-19_14h48.04.164,analogCatScenes,2020.1.3,MacIntel,60,"[1440,900]","[[[0.0017795138888888889,-0.20243055555555556],[0.0017795138888888889,-0.20243055555555556],[0.0017795138888888889,-0.20243055555555556],[0.0017795138888888889,-0.20243055555555556],[0.0017795138888888889,-0.20243055555555556],[0.0017795138888888889,-0.20243055555555556],[0.0017795138888888889,-0.20243055555555556],[0.0017795138888888889,-0.20243055555555556],[0.0017795138888888889,-0.20243055555555556],[0.0017795138888888889,-0.20243055555555556],[0.0017795138888888889,-0.20243055555555556],[0.0017795138888888889,-0.20243055555555556],[0.0017795138888888889,-0.20243055555555556],[0.003806423611111111,-0.20243055555555556],[0.009088541666666667,-0.20243055555555556],[0.022408854166666665,-0.2004644097222222],[0.033715277777777775,-0.1976171875],[0.05187065972222222,-0.19227430555555555],[0.07673177083333334,-0.18359375],[0.09116319444444444,-0.17801215277777777],[0.10694444444444444,-0.1714279513888889],[0.12026909722222222,-0.16595052083333334],[0.1384592013888889,-0.15828993055555557],[0.14453125,-0.15545138888888888],[0.1485546875,-0.15394097222222222],[0.15654947916666667,-0.15040364583333332],[0.1606467013888889,-0.14834635416666667],[0.16656684027777777,-0.1460546875],[0.17071614583333333,-0.14397569444444444],[0.17600260416666666,-0.14176649305555555],[0.17956597222222223,-0.14018229166666665],[0.18212239583333334,-0.13907118055555556],[0.18304253472222223,-0.1384592013888889],[0.1836111111111111,-0.13817274305555555],[0.18389756944444444,-0.13817274305555555],[0.18480034722222222,-0.1378515625],[0.18735677083333332,-0.13711805555555556],[0.1909201388888889,-0.13591145833333335],[0.1949782986111111,-0.1342795138888889],[0.19967013888888888,-0.13216145833333334],[0.20323350694444445,-0.13098958333333333],[0.20578993055555556,-0.12953125],[0.20787326388888888,-0.128828125],[0.20995225694444444,-0.12778211805555556],[0.21162326388888889,-0.12644965277777778],[0.21351996527777778,-0.1251736111111111],[0.21415364583333332,-0.12485243055555556],[0.21501302083333335,-0.12427083333333333],[0.21529513888888888,-0.12398003472222222],[0.2155642361111111,-0.12398003472222222],[0.2155642361111111,-0.12398003472222222],[0.2155642361111111,-0.12398003472222222],[0.2155642361111111,-0.12371527777777777],[0.2155642361111111,-0.12371527777777777],[0.2155642361111111,-0.12371527777777777],[0.21582465277777776,-0.12345052083333333],[0.21674479166666666,-0.12283854166666666],[0.21801215277777777,-0.12187934027777778],[0.2192795138888889,-0.12092013888888889],[0.21985243055555556,-0.12033854166666667],[0.22042534722222223,-0.12004774305555556],[0.22099392361111111,-0.12004774305555556],[0.22099392361111111,-0.11977430555555556],[0.22159722222222222,-0.11913628472222222],[0.22286024305555555,-0.11849826388888889],[0.22412760416666666,-0.1175390625],[0.22539496527777778,-0.11689670138888889],[0.22596354166666666,-0.11660590277777778],[0.22653645833333333,-0.11631510416666667],[0.22680121527777777,-0.11631510416666667],[0.22680121527777777,-0.11602864583333333],[0.22680121527777777,-0.11602864583333333],[0.22680121527777777,-0.11602864583333333],[0.22680121527777777,-0.11576388888888889],[0.22680121527777777,-0.11576388888888889],[0.22680121527777777,-0.11576388888888889],[0.22680121527777777,-0.11576388888888889],[0.22680121527777777,-0.11576388888888889],[0.22705729166666666,-0.11576388888888889],[0.22705729166666666,-0.11576388888888889],[0.22705729166666666,-0.11576388888888889],[0.22705729166666666,-0.11576388888888889],[0.22731336805555555,-0.11547309027777777],[0.22731336805555555,-0.11547309027777777],[0.22757378472222223,-0.11547309027777777],[0.22924913194444443,-0.11413628472222222],[0.2319314236111111,-0.11220486111111111],[0.23461371527777777,-0.1102734375],[0.2366970486111111,-0.10887586805555556],[0.23837239583333333,-0.1075390625],[0.23929253472222223,-0.10692708333333334],[0.24014756944444443,-0.10634548611111111],[0.2404296875,-0.10634548611111111],[0.2404296875,-0.1060546875],[0.24069444444444443,-0.10578559027777777],[0.24069444444444443,-0.10578559027777777],[0.24069444444444443,-0.10578559027777777],[0.24069444444444443,-0.10578559027777777],[0.24069444444444443,-0.1055251736111111]],[[-0.0034852430555555557,-0.2024609375],[-0.0034852430555555557,-0.2024609375],[-0.0034852430555555557,-0.2024609375],[-0.0034852430555555557,-0.2024609375],[-0.0034852430555555557,-0.2024609375],[-0.0034852430555555557,-0.2024609375],[-0.0034852430555555557,-0.2024609375],[-0.0034852430555555557,-0.2024609375],[-0.0034852430555555557,-0.2024609375],[-0.0034852430555555557,-0.2024609375],[-0.0034852430555555557,-0.2024609375],[-0.004006076388888889,-0.2024609375],[-0.010043402777777778,-0.20196180555555557],[-0.021223958333333334,-0.19779079861111112],[-0.046236979166666664,-0.18694010416666668],[-0.054713541666666664,-0.18433159722222223],[-0.07429253472222222,-0.17662326388888888],[-0.11191840277777777,-0.16171875],[-0.1415407986111111,-0.14731336805555556],[-0.15591145833333334,-0.1397048611111111],[-0.18940104166666666,-0.12118923611111111],[-0.21213975694444445,-0.10703125],[-0.22875,-0.09527777777777778],[-0.24215711805555556,-0.08569444444444445],[-0.25232638888888886,-0.0772829861111111],[-0.26059027777777777,-0.0701171875],[-0.26547309027777777,-0.06576822916666666],[-0.26995225694444447,-0.06176215277777778],[-0.27273871527777777,-0.05897569444444444],[-0.27510850694444444,-0.05619357638888889],[-0.27644097222222225,-0.05451822916666667],[-0.2775217013888889,-0.051953125],[-0.2791059027777778,-0.04838107638888889],[-0.28067274305555556,-0.04484375],[-0.2818142361111111,-0.041805555555555554],[-0.2829513888888889,-0.0387890625],[-0.2840625,-0.036223958333333334],[-0.28546006944444446,-0.034131944444444444],[-0.2868576388888889,-0.032039930555555554],[-0.2883072916666667,-0.029496527777777778],[-0.29095920138888887,-0.025325520833333334],[-0.2929513888888889,-0.02216145833333333],[-0.2944097222222222,-0.019596354166666666],[-0.29586805555555556,-0.01703125],[-0.297265625,-0.014939236111111111],[-0.29865451388888886,-0.012860243055555555],[-0.29998697916666667,-0.011180555555555555],[-0.30191840277777776,-0.008489583333333333],[-0.3038454861111111,-0.005802951388888889],[-0.3063064236111111,-0.002521701388888889],[-0.30921440972222225,0.0008289930555555556],[-0.3116796875,0.004118923611111111],[-0.313671875,0.007282986111111111],[-0.3155121527777778,0.009470486111111112],[-0.3168446180555556,0.01115017361111111],[-0.3174826388888889,0.012417534722222222],[-0.31809461805555556,0.013346354166666666],[-0.3186762152777778,0.013927951388888889],[-0.31928819444444445,0.014856770833333333],[-0.3202170138888889,0.01578559027777778],[-0.32114583333333335,0.016714409722222223],[-0.32210503472222224,0.017673611111111112],[-0.3230338541666667,0.018285590277777777],[-0.32360677083333333,0.018858506944444443],[-0.3241840277777778,0.019435763888888888],[-0.3250868055555556,0.020364583333333332],[-0.3256640625,0.020941840277777776],[-0.32624131944444446,0.02151909722222222],[-0.32652777777777775,0.021805555555555557],[-0.32709201388888887,0.022078993055555555],[-0.3273828125,0.022369791666666666],[-0.3273828125,0.022369791666666666],[-0.32765190972222225,0.02263888888888889],[-0.32765190972222225,0.02263888888888889],[-0.3279166666666667,0.02263888888888889],[-0.32819010416666666,0.02263888888888889],[-0.32848090277777775,0.0229296875],[-0.3287717013888889,0.023216145833333333],[-0.3293532986111111,0.023506944444444445],[-0.3296267361111111,0.023506944444444445],[-0.3296267361111111,0.023797743055555556],[-0.3299001736111111,0.023797743055555556],[-0.3299001736111111,0.023797743055555556],[-0.33016493055555557,0.023797743055555556],[-0.33016493055555557,0.023797743055555556],[-0.33016493055555557,0.023797743055555556],[-0.3304296875,0.023797743055555556],[-0.3304296875,0.023797743055555556],[-0.3304296875,0.023797743055555556],[-0.3304296875,0.023797743055555556],[-0.33069010416666667,0.023797743055555556],[-0.3312543402777778,0.023797743055555556],[-0.3318315972222222,0.024375],[-0.3327560763888889,0.024982638888888888],[-0.3333333333333333,0.0252734375],[-0.33391493055555554,0.02556423611111111],[-0.3342057291666667,0.025855034722222222],[-0.3342057291666667,0.025855034722222222],[-0.33447482638888887,0.025855034722222222],[-0.33447482638888887,0.025855034722222222],[-0.33447482638888887,0.025855034722222222],[-0.3347395833333333,0.025855034722222222],[-0.3347395833333333,0.025855034722222222],[-0.33500868055555555,0.026145833333333333],[-0.3352821180555556,0.026145833333333333],[-0.3352821180555556,0.026145833333333333],[-0.3352821180555556,0.026145833333333333],[-0.3352821180555556,0.026145833333333333],[-0.3352821180555556,0.026145833333333333]]]",2,"[99,109]",,,,,,,,,,,,space,2.414905,bridalboutique2.jpg,space,14.38317,0,0,0,28,1,churchInside1.jpg,dancestudio5.jpg,citystreet10.jpg,clothingstore5.jpg,,
Image_List_5,,,,,,,,,,,,,,,,44422,2020-11-19_14h48.04.164,analogCatScenes,2020.1.3,MacIntel,60,"[1440,900]","[[[0.0025260416666666665,-0.20042100694444445],[0.0025260416666666665,-0.20042100694444445],[0.0025260416666666665,-0.20042100694444445],[0.0025260416666666665,-0.20042100694444445],[0.0025260416666666665,-0.20042100694444445],[0.0025260416666666665,-0.20042100694444445],[0.0025260416666666665,-0.20042100694444445],[0.0025260416666666665,-0.20042100694444445],[0.0025260416666666665,-0.20042100694444445],[0.0025260416666666665,-0.20042100694444445],[0.0012326388888888888,-0.20042100694444445],[-0.008346354166666667,-0.20042100694444445],[-0.023372395833333334,-0.20042100694444445],[-0.04267795138888889,-0.20042100694444445],[-0.066796875,-0.20042100694444445],[-0.08408854166666667,-0.20042100694444445],[-0.10947916666666667,-0.20042100694444445],[-0.13115885416666667,-0.20042100694444445],[-0.14825520833333333,-0.20042100694444445],[-0.16233940972222222,-0.20042100694444445],[-0.17360243055555555,-0.20098090277777778],[-0.18400173611111112,-0.2020703125],[-0.19430555555555556,-0.20315104166666667],[-0.2095138888888889,-0.20424913194444444],[-0.21980034722222222,-0.20424913194444444],[-0.22725694444444444,-0.20424913194444444],[-0.2345876736111111,-0.20424913194444444],[-0.24124565972222223,-0.20424913194444444],[-0.24720052083333333,-0.20377604166666666],[-0.2513064236111111,-0.20336371527777777],[-0.2548784722222222,-0.20336371527777777],[-0.2579123263888889,-0.20336371527777777],[-0.26046875,-0.20336371527777777],[-0.2625564236111111,-0.20336371527777777],[-0.2646484375,-0.20336371527777777],[-0.2667404513888889,-0.20336371527777777],[-0.26883246527777777,-0.20336371527777777],[-0.2718532986111111,-0.20298611111111112],[-0.27489149305555555,-0.20298611111111112],[-0.27844618055555553,-0.20260416666666667],[-0.281484375,-0.20222222222222222],[-0.2850564236111111,-0.20180989583333334],[-0.2891015625,-0.20143663194444444],[-0.2901475694444444,-0.20143663194444444],[-0.2927126736111111,-0.20143663194444444],[-0.29575086805555556,-0.20143663194444444],[-0.29830729166666664,-0.20143663194444444],[-0.30140190972222225,-0.20143663194444444],[-0.30444010416666667,-0.2010546875],[-0.30852430555555554,-0.2010546875],[-0.3110894097222222,-0.2010546875],[-0.3141276041666667,-0.2010546875],[-0.3171657986111111,-0.20143229166666668],[-0.3192578125,-0.20212673611111112],[-0.3205338541666667,-0.20244357638888888],[-0.32145833333333335,-0.20276041666666667],[-0.3217317708333333,-0.20276041666666667],[-0.3217317708333333,-0.20276041666666667],[-0.3217317708333333,-0.20276041666666667],[-0.3217317708333333,-0.20276041666666667],[-0.3217317708333333,-0.20276041666666667],[-0.3219921875,-0.20276041666666667],[-0.3219921875,-0.20276041666666667]],[[0.00011284722222222222,-0.19940972222222222],[0.00011284722222222222,-0.19940972222222222],[0.00011284722222222222,-0.19940972222222222],[0.00011284722222222222,-0.19940972222222222],[0.00011284722222222222,-0.19940972222222222],[0.00011284722222222222,-0.19940972222222222],[0.00011284722222222222,-0.19940972222222222],[0.00011284722222222222,-0.19940972222222222],[0.00011284722222222222,-0.19940972222222222],[0.00011284722222222222,-0.19940972222222222],[0.00011284722222222222,-0.19940972222222222],[0.00011284722222222222,-0.19914930555555554],[0.00011284722222222222,-0.19504774305555556],[0.00011284722222222222,-0.18693142361111112],[-0.0009592013888888889,-0.17731336805555556],[-0.001966145833333333,-0.17124565972222222],[-0.003793402777777778,-0.1645703125],[-0.00546875,-0.15986979166666668],[-0.007144097222222222,-0.15516927083333334],[-0.010390625,-0.14959201388888888],[-0.013606770833333334,-0.14411024305555556],[-0.017391493055555554,-0.13844184027777778],[-0.020516493055555557,-0.1339626736111111],[-0.024049479166666665,-0.12954427083333334],[-0.028836805555555556,-0.12431423611111111],[-0.036180555555555556,-0.11787326388888889],[-0.03969184027777778,-0.11586805555555556],[-0.05220486111111111,-0.10853732638888888],[-0.060251736111111114,-0.10501736111111111],[-0.06983072916666666,-0.10181857638888889],[-0.07858072916666667,-0.0992578125],[-0.08819878472222223,-0.09711371527777778],[-0.09701388888888889,-0.0945095486111111],[-0.10585069444444445,-0.09243055555555556],[-0.11354600694444444,-0.09047743055555556],[-0.12088107638888888,-0.08899739583333334],[-0.12642795138888888,-0.08811197916666667],[-0.13301649305555555,-0.08717013888888889],[-0.13831163194444446,-0.08584201388888889],[-0.14188368055555556,-0.0854296875],[-0.1454513888888889,-0.08463541666666667],[-0.1480034722222222,-0.08428385416666667],[-0.1505642361111111,-0.08355034722222222],[-0.15265625,-0.08284722222222222],[-0.1552170138888889,-0.08211805555555556],[-0.15730902777777778,-0.08141493055555556],[-0.15898871527777778,-0.08074652777777777],[-0.15991753472222223,-0.08042534722222222],[-0.15991753472222223,-0.08042534722222222]],[[0.005217013888888889,-0.19747395833333334],[0.005217013888888889,-0.19747395833333334],[0.005217013888888889,-0.19747395833333334],[0.005217013888888889,-0.19747395833333334],[0.005217013888888889,-0.19747395833333334],[0.005217013888888889,-0.19747395833333334],[0.005217013888888889,-0.19747395833333334],[0.005217013888888889,-0.19747395833333334],[0.005217013888888889,-0.19747395833333334],[0.005217013888888889,-0.19747395833333334],[0.011241319444444444,-0.19747395833333334],[0.03188368055555556,-0.19747395833333334],[0.056766493055555554,-0.19747395833333334],[0.08587239583333334,-0.19662760416666666],[0.12075520833333334,-0.19403645833333333],[0.15723524305555556,-0.19047743055555555],[0.1985546875,-0.18765625],[0.23214409722222223,-0.18421006944444446],[0.2557248263888889,-0.18126302083333334],[0.2798350694444444,-0.17825520833333333],[0.2991579861111111,-0.17477864583333333],[0.3142013888888889,-0.17289496527777778],[0.3224913194444444,-0.17131944444444444],[0.32981770833333335,-0.17034288194444444],[0.3351692708333333,-0.16993055555555556],[0.33772569444444445,-0.16957899305555554],[0.33905381944444446,-0.16957899305555554],[0.33996961805555553,-0.1692578125],[0.34054253472222223,-0.16896701388888888],[0.34081163194444447,-0.16869357638888888],[0.34173177083333334,-0.1680815972222222],[0.3429947916666667,-0.16744357638888888],[0.34356770833333333,-0.1671527777777778],[0.344140625,-0.16686197916666667],[0.344140625,-0.16629774305555556],[0.344140625,-0.16602430555555556],[0.344140625,-0.16602430555555556],[0.344140625,-0.16547743055555555],[0.344140625,-0.16520399305555555],[0.344140625,-0.16493055555555555],[0.344140625,-0.16493055555555555],[0.3438498263888889,-0.16466145833333334],[0.34357638888888886,-0.16438802083333334],[0.3429947916666667,-0.16409722222222223],[0.34270399305555554,-0.1638064236111111]]]",3,"[63,49,45]",,,,,,,,,,,,,,gasstation2.jpg,space,9.96862,0,1,1,56,1,grocerystore5.jpg,hut3.jpg,golfcourse10.jpg,hut1.jpg,,
Image_List_5,,,,,,,,,,,,,,,,44422,2020-11-19_14h48.04.164,analogCatScenes,2020.1.3,MacIntel,60,"[1440,900]","[[[-0.0035460069444444445,-0.19639756944444445],[-0.0035460069444444445,-0.19639756944444445],[-0.0035460069444444445,-0.19639756944444445],[-0.0035460069444444445,-0.19639756944444445],[-0.0035460069444444445,-0.19639756944444445],[-0.0035460069444444445,-0.19639756944444445],[-0.0035460069444444445,-0.19639756944444445],[-0.0035460069444444445,-0.19639756944444445],[-0.0035460069444444445,-0.19639756944444445],[-0.0035460069444444445,-0.19639756944444445],[-0.0035460069444444445,-0.19639756944444445],[-0.0035460069444444445,-0.19639756944444445],[-0.0035460069444444445,-0.1772439236111111],[-0.0035460069444444445,-0.1465234375],[-0.0035460069444444445,-0.11567708333333333],[-0.0035460069444444445,-0.08786024305555555],[-0.0027951388888888887,-0.07031684027777778],[-0.0013932291666666667,-0.049856770833333335],[0.0006987847222222222,-0.02939670138888889],[0.0026692708333333334,-0.012278645833333334],[0.0037022569444444446,-0.0033203125],[0.004704861111111111,0.004774305555555556],[0.005551215277777778,0.009470486111111112],[0.005928819444444444,0.012508680555555556],[0.006714409722222222,0.016080729166666665],[0.007530381944444445,0.020186631944444443],[0.008346354166666667,0.02429253472222222],[0.009631076388888889,0.028988715277777778],[0.010447048611111112,0.03309461805555555],[0.012022569444444445,0.03666666666666667],[0.013151041666666667,0.03969618055555556],[0.01513454861111111,0.043268229166666665],[0.017118055555555556,0.04643229166666667],[0.01904079861111111,0.049123263888888886],[0.020308159722222222,0.05109809027777778],[0.020881076388888888,0.0516796875],[0.02116753472222222,0.05197048611111111],[0.02116753472222222,0.05197048611111111],[0.02116753472222222,0.05197048611111111],[0.02116753472222222,0.05197048611111111],[0.02116753472222222,0.05197048611111111],[0.02116753472222222,0.05197048611111111],[0.02116753472222222,0.05197048611111111],[0.02116753472222222,0.05197048611111111],[0.02116753472222222,0.05197048611111111],[0.02116753472222222,0.05197048611111111],[0.02116753472222222,0.05197048611111111],[0.02116753472222222,0.05197048611111111]],[[0.0010112847222222222,-0.19944010416666666],[0.0010112847222222222,-0.19944010416666666],[0.0010112847222222222,-0.19944010416666666],[0.0010112847222222222,-0.19944010416666666],[0.0010112847222222222,-0.19944010416666666],[0.0010112847222222222,-0.19944010416666666],[0.0010112847222222222,-0.19944010416666666],[0.004691840277777777,-0.19944010416666666],[0.015516493055555556,-0.19944010416666666],[0.030598958333333332,-0.19944010416666666],[0.05117621527777778,-0.19944010416666666],[0.07650607638888889,-0.19944010416666666],[0.10581163194444444,-0.19944010416666666],[0.13641059027777777,-0.19944010416666666],[0.1552907986111111,-0.19944010416666666],[0.17824652777777777,-0.19944010416666666],[0.20608506944444444,-0.19944010416666666],[0.22194010416666668,-0.19944010416666666],[0.23796006944444445,-0.19944010416666666],[0.2445138888888889,-0.2000347222222222],[0.2576953125,-0.2015625],[0.2609982638888889,-0.20203125],[0.2655902777777778,-0.20243923611111111],[0.2719184027777778,-0.20243923611111111],[0.28002604166666667,-0.20243923611111111],[0.29303385416666666,-0.20199652777777777],[0.30114149305555554,-0.2015234375],[0.30649305555555556,-0.20063802083333335],[0.31059027777777776,-0.19981336805555555],[0.31527777777777777,-0.19895833333333332],[0.3194357638888889,-0.19813368055555555],[0.3241276041666667,-0.19813368055555555],[0.3276866319444444,-0.19772135416666667],[0.32948784722222224,-0.19772135416666667],[0.33075520833333333,-0.19772135416666667],[0.331328125,-0.19743055555555555],[0.3330034722222222,-0.19743055555555555],[0.3371484375,-0.19743055555555555],[0.34130208333333334,-0.19743055555555555],[0.3472482638888889,-0.19743055555555555]]]",2,"[48,40]",,,,,,,,,,,,,,warehouseoutside3.jpg,space,5.22215,0,2,2,97,1,warehouseoutside4.jpg,wineVineyard2.jpg,waitingroom4.jpg,winebarrel3.jpg,,
Image_List_5,,,,,,,,,,,,,,,,44422,2020-11-19_14h48.04.164,analogCatScenes,2020.1.3,MacIntel,60,"[1440,900]","[[[0.0025824652777777777,-0.19539496527777778],[0.0025824652777777777,-0.19539496527777778],[0.0025824652777777777,-0.19539496527777778],[0.0025824652777777777,-0.19539496527777778],[0.0025824652777777777,-0.19539496527777778],[0.0025824652777777777,-0.19539496527777778],[0.0025824652777777777,-0.19539496527777778],[0.0025824652777777777,-0.19539496527777778],[0.0025824652777777777,-0.19513454861111112],[0.0025824652777777777,-0.19484375],[0.0025824652777777777,-0.19180989583333333],[0.0030512152777777777,-0.18380208333333334],[0.003927951388888889,-0.1784418402777778],[0.005308159722222222,-0.17249131944444446],[0.006688368055555556,-0.16653645833333333],[0.008120659722222222,-0.15989583333333332],[0.009622395833333333,-0.15184027777777778],[0.0117578125,-0.14222222222222222],[0.013828125,-0.13338541666666667],[0.015364583333333333,-0.12454861111111111],[0.01690104166666667,-0.11572048611111112],[0.017808159722222223,-0.10963975694444444],[0.017808159722222223,-0.1023046875],[0.017808159722222223,-0.0951345486111111],[0.017808159722222223,-0.08617621527777777],[0.017808159722222223,-0.07884114583333333],[0.017395833333333333,-0.07352864583333334],[0.01644965277777778,-0.06685329861111111],[0.01515625,-0.061497395833333336],[0.0138671875,-0.054184027777777775],[0.013454861111111112,-0.05213107638888889],[0.012630208333333334,-0.04597222222222222],[0.011775173611111111,-0.04127170138888889],[0.0113671875,-0.03924045138888889],[0.010104166666666666,-0.0325],[0.00927951388888889,-0.028333333333333332],[0.008485243055555555,-0.02476128472222222],[0.007751736111111111,-0.022196180555555556],[0.007048611111111111,-0.020104166666666666],[0.006345486111111111,-0.018012152777777776],[0.0052039930555555555,-0.014973958333333334],[0.004036458333333334,-0.011410590277777778],[0.0024522569444444444,-0.007838541666666667],[0.0017491319444444444,-0.005681423611111111],[0.0010763888888888889,-0.003997395833333334],[0.0007855902777777777,-0.003415798611111111],[0.0004947916666666667,-0.003125],[0.0004947916666666667,-0.003125],[0.0004947916666666667,-0.0028602430555555555],[-0.0001171875,-0.0022222222222222222],[-0.0011024305555555555,-0.0008940972222222222],[-0.002942708333333333,0.0012934027777777779],[-0.005316840277777778,0.004079861111111111],[-0.007152777777777778,0.006263020833333333],[-0.008489583333333333,0.007947048611111111],[-0.009388020833333333,0.009162326388888888],[-0.009661458333333333,0.009162326388888888],[-0.009934895833333334,0.00943576388888889],[-0.010512152777777778,0.0097265625],[-0.01109375,0.01001736111111111],[-0.011675347222222222,0.010598958333333333],[-0.011966145833333334,0.011180555555555555],[-0.012256944444444445,0.011471354166666666],[-0.012530381944444445,0.011744791666666667],[-0.012530381944444445,0.011744791666666667],[-0.012530381944444445,0.011744791666666667],[-0.012530381944444445,0.011744791666666667],[-0.012530381944444445,0.011744791666666667],[-0.012530381944444445,0.011744791666666667],[-0.012530381944444445,0.011744791666666667]],[[0.007664930555555556,-0.20348524305555554],[0.007664930555555556,-0.20348524305555554],[0.007664930555555556,-0.20348524305555554],[0.007664930555555556,-0.20348524305555554],[0.007664930555555556,-0.20348524305555554],[0.007664930555555556,-0.20348524305555554],[0.007664930555555556,-0.20348524305555554],[0.007664930555555556,-0.20348524305555554],[0.007664930555555556,-0.20348524305555554],[0.007664930555555556,-0.20348524305555554],[0.007664930555555556,-0.20348524305555554],[0.007921006944444444,-0.20348524305555554],[0.012052951388888889,-0.20348524305555554],[0.02359809027777778,-0.20348524305555554],[0.03941840277777778,-0.20348524305555554],[0.06259548611111111,-0.20348524305555554],[0.08940972222222222,-0.20348524305555554],[0.10501736111111111,-0.20348524305555554],[0.13335069444444445,-0.20348524305555554],[0.15139322916666667,-0.20348524305555554],[0.17295572916666666,-0.20348524305555554],[0.19456163194444445,-0.20348524305555554],[0.21616753472222222,-0.20276475694444446],[0.2343185763888889,-0.20276475694444446],[0.2514279513888889,-0.20210503472222222],[0.2612847222222222,-0.20210503472222222],[0.270078125,-0.20210503472222222],[0.27602430555555557,-0.20163194444444443],[0.2807074652777778,-0.20163194444444443],[0.2842708333333333,-0.20125],[0.29021267361111114,-0.20125],[0.29432291666666666,-0.20086805555555556],[0.2996006944444444,-0.20042534722222222],[0.30429253472222223,-0.20042534722222222],[0.3078559027777778,-0.20004340277777777],[0.3114192708333333,-0.19966145833333335],[0.31497395833333336,-0.1988671875],[0.31800347222222225,-0.19848524305555557],[0.32307291666666665,-0.19769097222222223],[0.3245703125,-0.19731336805555555],[0.32813368055555553,-0.19651909722222222],[0.33273871527777776,-0.19499565972222221],[0.3352907986111111,-0.19388454861111112],[0.3383159722222222,-0.1923654513888889],[0.34039930555555553,-0.19131510416666667],[0.3425477430555556,-0.190234375],[0.34381510416666666,-0.18927517361111112],[0.345078125,-0.1886371527777778],[0.3463454861111111,-0.18767795138888888],[0.347265625,-0.1870659722222222],[0.3485286458333333,-0.1864279513888889],[0.34979166666666667,-0.18547309027777778]]]",2,"[70,52]",,,,,,,,,,,,,,postoffice4.jpg,space,7.85339,0,3,3,82,1,publicrestroom2.jpg,sandDunes_desert_outdoor9.jpg,promenadeDeck3.jpg,readingroom4.jpg,,
Image_List_5,,,,,,,,,,,,,,,,44422,2020-11-19_14h48.04.164,analogCatScenes,2020.1.3,MacIntel,60,"[1440,900]","[[[-0.0012065972222222222,-0.19557725694444444],[-0.0012065972222222222,-0.19557725694444444],[-0.0012065972222222222,-0.19557725694444444],[-0.0012065972222222222,-0.19557725694444444],[-0.0012065972222222222,-0.19557725694444444],[-0.0012065972222222222,-0.19557725694444444],[-0.0012065972222222222,-0.19557725694444444],[-0.0012065972222222222,-0.19557725694444444],[-0.0012065972222222222,-0.19557725694444444],[-0.0012065972222222222,-0.19557725694444444],[-0.0012065972222222222,-0.19557725694444444],[-0.0012065972222222222,-0.19326822916666667],[-0.0012065972222222222,-0.18581163194444444],[-0.0012065972222222222,-0.17360243055555555],[-0.0012065972222222222,-0.15757378472222222],[-0.0012065972222222222,-0.14336371527777778],[-0.0012065972222222222,-0.13592013888888888],[-0.0012065972222222222,-0.127890625],[-0.0012065972222222222,-0.12259548611111111],[-0.0012065972222222222,-0.11789930555555556],[-0.0012065972222222222,-0.11432725694444444],[-0.0012065972222222222,-0.11223524305555556],[-0.0012065972222222222,-0.11095920138888889],[-0.0012065972222222222,-0.11037760416666667],[-0.0012065972222222222,-0.11010416666666667],[-0.0012065972222222222,-0.11010416666666667],[-0.0012065972222222222,-0.10926215277777777],[-0.0015885416666666667,-0.10419270833333333],[-0.001987847222222222,-0.10219618055555556],[-0.003693576388888889,-0.09485243055555556],[-0.004930555555555555,-0.09074652777777778],[-0.0052821180555555555,-0.08865451388888888],[-0.005603298611111111,-0.08772569444444445],[-0.0058940972222222224,-0.08714409722222222],[-0.0058940972222222224,-0.08714409722222222],[-0.0058940972222222224,-0.08714409722222222],[-0.006163194444444444,-0.08661024305555555],[-0.0068359375,-0.08492621527777777],[-0.007886284722222222,-0.08283420138888889],[-0.009344618055555556,-0.08026909722222222],[-0.010451388888888889,-0.07771267361111112],[-0.011501736111111112,-0.07562065972222222],[-0.012144097222222223,-0.07434461805555556],[-0.012465277777777778,-0.07341579861111111],[-0.012738715277777778,-0.07314236111111111],[-0.012738715277777778,-0.07256510416666667],[-0.013381076388888889,-0.0712890625],[-0.014053819444444445,-0.06960503472222222],[-0.014405381944444445,-0.06751302083333334],[-0.015073784722222223,-0.06583333333333333],[-0.015394965277777778,-0.06456163194444445],[-0.015685763888888888,-0.0636935763888889],[-0.0159765625,-0.06340277777777778],[-0.0159765625,-0.06340277777777778],[-0.0159765625,-0.06340277777777778],[-0.0159765625,-0.06313802083333334],[-0.016297743055555557,-0.0622265625],[-0.017348090277777777,-0.06013454861111111],[-0.0183984375,-0.05804253472222222],[-0.01904079861111111,-0.056766493055555554],[-0.01965277777777778,-0.05583767361111111],[-0.019943576388888887,-0.05555121527777778],[-0.019943576388888887,-0.05555121527777778],[-0.019943576388888887,-0.05555121527777778],[-0.019943576388888887,-0.05555121527777778],[-0.019943576388888887,-0.05555121527777778]]]",1,[66],,,,,,,,,,,,,,citystreet9.jpg,space,6.152785,0,4,4,37,1,dining_car.jpg,driveway4.jpg,dinosaur4.jpg,driveway7.jpg,,
Image_List_5,,,,,,,,,,,,,,,,44422,2020-11-19_14h48.04.164,analogCatScenes,2020.1.3,MacIntel,60,"[1440,900]","[[[0.006879340277777778,-0.19930989583333333],[0.006879340277777778,-0.19930989583333333],[0.006879340277777778,-0.19930989583333333],[0.006879340277777778,-0.19930989583333333],[0.006879340277777778,-0.19930989583333333],[0.006879340277777778,-0.19930989583333333],[0.006879340277777778,-0.19930989583333333],[0.006879340277777778,-0.19930989583333333],[0.006879340277777778,-0.19930989583333333],[0.006879340277777778,-0.19930989583333333],[0.006879340277777778,-0.19930989583333333],[0.006879340277777778,-0.19930989583333333],[0.008650173611111112,-0.19892795138888889],[0.012747395833333333,-0.1964626736111111],[0.018580729166666667,-0.1915625],[0.025794270833333334,-0.18637586805555556],[0.037513020833333334,-0.1773003472222222],[0.04203125,-0.17390625],[0.0521875,-0.16712673611111112],[0.06453125,-0.1579904513888889],[0.06819878472222222,-0.15431857638888888],[0.0783420138888889,-0.14303385416666667],[0.08638454861111111,-0.13325086805555555],[0.09372829861111111,-0.12364149305555555],[0.10099826388888888,-0.1146657986111111],[0.1052734375,-0.10893229166666667],[0.10939236111111111,-0.10388888888888889],[0.11194010416666667,-0.09918836805555556],[0.113984375,-0.09508680555555556],[0.11568576388888889,-0.09038628472222222],[0.11763020833333333,-0.0837109375],[0.11844618055555556,-0.07955729166666667],[0.11935329861111112,-0.07361111111111111],[0.12023003472222223,-0.06831597222222222],[0.12166666666666667,-0.06165798611111111],[0.12245225694444445,-0.0580859375],[0.12368055555555556,-0.05398003472222222],[0.12440538194444445,-0.051419270833333336],[0.12506944444444446,-0.04973524305555556],[0.12535590277777778,-0.04880642361111111],[0.1256423611111111,-0.048515625],[0.12627170138888888,-0.04666666666666667],[0.1266189236111111,-0.04562065972222222],[0.12731336805555554,-0.04352864583333333],[0.12828993055555554,-0.0412109375],[0.12889322916666668,-0.04028211805555556],[0.12889322916666668,-0.03999565972222222],[0.1291623263888889,-0.03999565972222222],[0.12942708333333333,-0.0397265625],[0.13009114583333334,-0.03804253472222222],[0.1311328125,-0.03595052083333333],[0.131796875,-0.034266493055555555],[0.13240017361111112,-0.03333767361111111],[0.13300347222222222,-0.03240885416666667],[0.13328993055555555,-0.03240885416666667],[0.13355902777777778,-0.032135416666666666],[0.13355902777777778,-0.032135416666666666],[0.13355902777777778,-0.032135416666666666],[0.13355902777777778,-0.032135416666666666],[0.13381510416666667,-0.032135416666666666],[0.13381510416666667,-0.032135416666666666]],[[0.004600694444444445,-0.20401475694444443],[0.004600694444444445,-0.20401475694444443],[0.004600694444444445,-0.20401475694444443],[0.004600694444444445,-0.20401475694444443],[0.004600694444444445,-0.20401475694444443],[0.004600694444444445,-0.20401475694444443],[0.004600694444444445,-0.20401475694444443],[0.004600694444444445,-0.20401475694444443],[0.004600694444444445,-0.20401475694444443],[0.004600694444444445,-0.20401475694444443],[0.004600694444444445,-0.20401475694444443],[0.0006684027777777777,-0.20401475694444443],[-0.005946180555555555,-0.20117621527777776],[-0.014995659722222223,-0.19637152777777778],[-0.032421875,-0.1864670138888889],[-0.04311631944444445,-0.17989149305555555],[-0.05631944444444444,-0.17170572916666665],[-0.0689279513888889,-0.16226128472222223],[-0.07997829861111111,-0.1552907986111111],[-0.0890234375,-0.14850260416666666],[-0.09703993055555556,-0.14262152777777778],[-0.10170572916666666,-0.13836805555555556],[-0.1066796875,-0.13298177083333335],[-0.11140190972222222,-0.1282595486111111],[-0.1155295138888889,-0.12369357638888889],[-0.11950520833333333,-0.11971788194444444],[-0.12351128472222223,-0.11571180555555556],[-0.12746961805555557,-0.1117578125],[-0.13188368055555555,-0.10775173611111111],[-0.1330251736111111,-0.10661024305555555],[-0.1342751736111111,-0.10536024305555555],[-0.13485677083333333,-0.10506944444444444],[-0.13514756944444445,-0.10448784722222222],[-0.13642361111111112,-0.10352864583333334],[-0.13776041666666666,-0.10184461805555556],[-0.13950520833333332,-0.10009982638888888],[-0.1413454861111111,-0.09791232638888889],[-0.1431857638888889,-0.09572482638888889],[-0.14446180555555554,-0.09444878472222222],[-0.14579861111111111,-0.09276475694444444],[-0.14713541666666666,-0.09108072916666667],[-0.14841145833333333,-0.0898046875],[-0.1496875,-0.08852864583333334],[-0.1506467013888889,-0.08756944444444445],[-0.15157552083333334,-0.086640625],[-0.1525043402777778,-0.08602864583333333],[-0.15345486111111112,-0.08507378472222223],[-0.15406684027777778,-0.08414496527777778],[-0.15502604166666667,-0.08318576388888889],[-0.15531684027777778,-0.08260416666666667],[-0.1558984375,-0.08231336805555556],[-0.1561892361111111,-0.08173177083333333],[-0.15740451388888888,-0.08083333333333333],[-0.15772569444444445,-0.0801953125],[-0.1592925347222222,-0.0789453125],[-0.15986979166666668,-0.07836805555555555],[-0.16044704861111111,-0.07779079861111111],[-0.16073350694444444,-0.0775],[-0.16073350694444444,-0.0772265625],[-0.16073350694444444,-0.0772265625],[-0.16073350694444444,-0.0772265625],[-0.16099826388888888,-0.0772265625],[-0.16126736111111112,-0.0772265625],[-0.16154079861111112,-0.0772265625],[-0.16217881944444446,-0.0772265625]]]",2,"[61,65]",,,,,,,,,,,,,,homeoffice8.jpg,space,6.233945,0,5,5,65,1,igloo5.jpg,newsstand7.jpg,laundromat2.jpeg,labClass7.jpg,,
Image_List_5,,,,,,,,,,,,,,,,44422,2020-11-19_14h48.04.164,analogCatScenes,2020.1.3,MacIntel,60,"[1440,900]","[[[0.0019921875,-0.20741319444444445],[0.0019921875,-0.20741319444444445],[0.0019921875,-0.20741319444444445],[0.0019921875,-0.20741319444444445],[0.0019921875,-0.20741319444444445],[0.0019921875,-0.20741319444444445],[0.0019921875,-0.20741319444444445],[0.0019921875,-0.20741319444444445],[0.0019921875,-0.20741319444444445],[0.0019921875,-0.20741319444444445],[0.0019921875,-0.20741319444444445],[-0.003411458333333333,-0.20552083333333335],[-0.010399305555555556,-0.20152777777777778],[-0.017391493055555554,-0.19653211805555557],[-0.025438368055555556,-0.19062065972222222],[-0.028971354166666668,-0.18768663194444443],[-0.035703125,-0.18252604166666667],[-0.0408984375,-0.17827256944444445],[-0.046753472222222224,-0.172890625],[-0.05423611111111111,-0.16594184027777778],[-0.06169704861111111,-0.15954427083333333],[-0.06708333333333333,-0.15510416666666665],[-0.07230902777777778,-0.15031684027777778],[-0.07629774305555556,-0.14673177083333333],[-0.07866319444444445,-0.14395399305555556],[-0.08040798611111111,-0.1422092013888889],[-0.08319010416666667,-0.13983940972222222],[-0.0859765625,-0.1370529513888889],[-0.08866753472222222,-0.13512152777777778],[-0.09044270833333333,-0.13334635416666665],[-0.0913671875,-0.13273871527777778],[-0.09165798611111112,-0.13215711805555555],[-0.09165798611111112,-0.13215711805555555],[-0.09165798611111112,-0.13215711805555555],[-0.09165798611111112,-0.13215711805555555]],[[0.0032769097222222223,-0.20118489583333332],[0.0032769097222222223,-0.20118489583333332],[0.0032769097222222223,-0.20118489583333332],[0.0032769097222222223,-0.20118489583333332],[0.0032769097222222223,-0.20118489583333332],[0.0032769097222222223,-0.20118489583333332],[0.0032769097222222223,-0.20118489583333332],[0.0032769097222222223,-0.20118489583333332],[0.0032769097222222223,-0.20118489583333332],[0.0032769097222222223,-0.20092447916666667],[0.0036241319444444446,-0.19924045138888888],[0.004822048611111111,-0.19566840277777778],[0.005642361111111111,-0.19256944444444443],[0.006427951388888889,-0.18899739583333333],[0.007552083333333333,-0.1859765625],[0.008888888888888889,-0.18065972222222224],[0.010551215277777777,-0.17393663194444445],[0.011935763888888888,-0.16917534722222222],[0.013810763888888888,-0.16259114583333334],[0.015130208333333334,-0.15729600694444446],[0.015946180555555557,-0.15319010416666667],[0.01679253472222222,-0.1484939236111111],[0.017200520833333333,-0.14380642361111112],[0.017200520833333333,-0.137734375],[0.018046875,-0.13303385416666666],[0.018485243055555555,-0.12834201388888888],[0.019270833333333334,-0.12476996527777778],[0.020026041666666668,-0.12167100694444444],[0.020772569444444444,-0.11865885416666666],[0.02115017361111111,-0.11562065972222223],[0.021996527777777778,-0.1109201388888889],[0.02331597222222222,-0.10609375],[0.024635416666666667,-0.10079861111111112],[0.025924479166666667,-0.09543836805555556],[0.02718315972222222,-0.09073784722222222],[0.02834201388888889,-0.08717881944444444],[0.029066840277777777,-0.08461371527777778],[0.029791666666666668,-0.08204861111111111],[0.03095052083333333,-0.07848958333333333],[0.03264756944444445,-0.07214409722222222],[0.03396701388888889,-0.06684895833333333],[0.03522569444444444,-0.0621484375],[0.036041666666666666,-0.05799045138888889],[0.03682725694444444,-0.05441840277777778],[0.037547743055555555,-0.05185763888888889],[0.038272569444444446,-0.049292534722222225],[0.038272569444444446,-0.04672743055555555],[0.038272569444444446,-0.04368923611111111],[0.038272569444444446,-0.0401171875],[0.03865017361111111,-0.03654513888888889],[0.03865017361111111,-0.03350694444444444],[0.03902777777777778,-0.03046875],[0.03902777777777778,-0.02689670138888889],[0.03902777777777778,-0.0238671875],[0.03902777777777778,-0.02029513888888889],[0.03902777777777778,-0.01773003472222222],[0.03902777777777778,-0.01564670138888889],[0.03902777777777778,-0.013962673611111111],[0.03902777777777778,-0.011870659722222222],[0.03902777777777778,-0.009309895833333333],[0.03867621527777778,-0.005724826388888889],[0.03867621527777778,-0.0036458333333333334],[0.03867621527777778,-0.0027213541666666666],[0.03867621527777778,-0.0021397569444444446],[0.03867621527777778,-0.0021397569444444446],[0.03867621527777778,-0.0021397569444444446]],[[0.004791666666666666,-0.19681423611111112],[0.004791666666666666,-0.19681423611111112],[0.004791666666666666,-0.19681423611111112],[0.004791666666666666,-0.19681423611111112],[0.004791666666666666,-0.19681423611111112],[0.004791666666666666,-0.19681423611111112],[0.004791666666666666,-0.19681423611111112],[0.004791666666666666,-0.19681423611111112],[0.004791666666666666,-0.19681423611111112],[0.005546875,-0.19503472222222223],[0.009978298611111111,-0.1892404513888889],[0.015186631944444445,-0.18198350694444446],[0.02140625,-0.17522135416666668],[0.02828559027777778,-0.1678081597222222],[0.03541232638888889,-0.160078125],[0.04631076388888889,-0.14773871527777777],[0.053046875,-0.13944878472222222],[0.06292100694444444,-0.12834201388888888],[0.0726953125,-0.11737847222222222],[0.08141927083333333,-0.10801649305555555],[0.08873697916666666,-0.09900173611111111],[0.09473090277777778,-0.09028645833333333],[0.10546440972222222,-0.07615451388888889],[0.10813368055555556,-0.07187934027777777],[0.11686197916666667,-0.05880642361111111],[0.12151041666666666,-0.0510546875],[0.1255295138888889,-0.04299913194444444],[0.12904513888888888,-0.03494357638888889],[0.13264756944444445,-0.026128472222222223],[0.1354079861111111,-0.015668402777777778],[0.13760416666666667,-0.005208333333333333],[0.13926649305555555,0.0052517361111111115],[0.14036458333333332,0.015711805555555555],[0.14145833333333332,0.02615451388888889],[0.1419921875,0.03661458333333333],[0.1419921875,0.04346354166666667],[0.1419921875,0.054040798611111114],[0.1419921875,0.062096354166666666],[0.1419921875,0.07093315972222222],[0.1419921875,0.07779513888888889],[0.1419921875,0.08638020833333333],[0.1419921875,0.09233506944444445],[0.1419921875,0.09590277777777778],[0.1419921875,0.09758680555555556],[0.1419921875,0.098515625],[0.1419921875,0.10061197916666667],[0.1419921875,0.1046875],[0.14120659722222223,0.10823350694444445],[0.14079427083333335,0.11028211805555556],[0.1395876736111111,0.11590711805555555],[0.1395876736111111,0.11799913194444445],[0.13926649305555555,0.11892795138888888],[0.13926649305555555,0.11921875],[0.13926649305555555,0.1194921875],[0.13926649305555555,0.1194921875],[0.13926649305555555,0.1194921875],[0.13926649305555555,0.1194921875],[0.13926649305555555,0.1194921875],[0.13926649305555555,0.1194921875]]]",3,"[35,66,59]",,,,,,,,,,,,,,airplanecabin3.jpg,space,6.670165,0,6,6,0,1,airplanecabin1.jpg,alley2.jpg,appleorchard4.jpg,airplanecabin5.jpg,,
Image_List_5,,,,,,,,,,,,,,,,44422,2020-11-19_14h48.04.164,analogCatScenes,2020.1.3,MacIntel,60,"[1440,900]","[[[-0.003589409722222222,-0.19864583333333333],[-0.003589409722222222,-0.19864583333333333],[-0.003589409722222222,-0.19864583333333333],[-0.003589409722222222,-0.19864583333333333],[-0.003589409722222222,-0.19864583333333333],[-0.003589409722222222,-0.19864583333333333],[-0.003589409722222222,-0.19864583333333333],[-0.003589409722222222,-0.19864583333333333],[-0.003589409722222222,-0.19864583333333333],[-0.003589409722222222,-0.19864583333333333],[-0.005368923611111111,-0.19864583333333333],[-0.008003472222222223,-0.19864583333333333],[-0.025677083333333333,-0.1909201388888889],[-0.03428819444444445,-0.18661458333333333],[-0.04506076388888889,-0.1808984375],[-0.056970486111111114,-0.17434895833333333],[-0.07671006944444445,-0.16348958333333333],[-0.0954861111111111,-0.15122395833333332],[-0.11697482638888888,-0.13662760416666667],[-0.13142795138888888,-0.12674913194444445],[-0.14694444444444443,-0.11596354166666667],[-0.16046006944444444,-0.10696180555555555],[-0.1726953125,-0.09899305555555556],[-0.18433159722222223,-0.09042534722222222],[-0.1968359375,-0.08104600694444444],[-0.20937934027777777,-0.07101128472222222],[-0.22192274305555557,-0.0609765625],[-0.2335112847222222,-0.052447916666666664],[-0.24335069444444443,-0.04491753472222222],[-0.25190104166666666,-0.0395703125],[-0.25894965277777776,-0.03453559027777778],[-0.26599826388888886,-0.0305078125],[-0.27046006944444445,-0.027395833333333335],[-0.2754861111111111,-0.02375],[-0.28167100694444447,-0.0180078125],[-0.2846440972222222,-0.015034722222222222],[-0.2893836805555556,-0.009006076388888888],[-0.2934765625,-0.0044835069444444445],[-0.2967664930555556,-0.001193576388888889],[-0.29995659722222223,0.0011762152777777778],[-0.30312065972222224,0.003168402777777778],[-0.3048046875,0.004188368055555555],[-0.3060807291666667,0.004830729166666666],[-0.30671875,0.005442708333333333],[-0.3070095486111111,0.005442708333333333]],[[0.004639756944444445,-0.20796006944444445],[0.004639756944444445,-0.20796006944444445],[0.004639756944444445,-0.20796006944444445],[0.004639756944444445,-0.20796006944444445],[0.004639756944444445,-0.20796006944444445],[0.004639756944444445,-0.20796006944444445],[0.004639756944444445,-0.20796006944444445],[0.004639756944444445,-0.20796006944444445],[0.004639756944444445,-0.20796006944444445],[0.004639756944444445,-0.20796006944444445],[0.004639756944444445,-0.20796006944444445],[0.004639756944444445,-0.20796006944444445],[0.004639756944444445,-0.20692708333333334],[0.004639756944444445,-0.20084635416666666],[-0.0019314236111111112,-0.18245225694444445],[-0.005225694444444444,-0.17455295138888888],[-0.012469618055555555,-0.15875434027777777],[-0.01970486111111111,-0.14297309027777777],[-0.026983506944444444,-0.1256640625],[-0.0344140625,-0.10814236111111111],[-0.04829427083333333,-0.0700173611111111],[-0.05469184027777778,-0.055403645833333334],[-0.05798611111111111,-0.04750434027777778],[-0.06836805555555556,-0.0248046875],[-0.07464409722222222,-0.010941840277777778],[-0.08407552083333333,0.009483506944444444],[-0.09272135416666667,0.029657118055555556],[-0.09983072916666667,0.044561631944444444],[-0.108203125,0.05936197916666667],[-0.11292100694444444,0.06709635416666666],[-0.11772135416666667,0.07563802083333333],[-0.1215625,0.08180989583333333],[-0.12612847222222223,0.08891927083333333],[-0.12770399305555555,0.09247395833333333],[-0.1292578125,0.09516493055555555],[-0.13039930555555557,0.0978515625],[-0.13069010416666665,0.09814236111111112]],[[0.010399305555555556,-0.20412326388888888],[0.010399305555555556,-0.20412326388888888],[0.010399305555555556,-0.20412326388888888],[0.010399305555555556,-0.20412326388888888],[0.010399305555555556,-0.20386284722222223],[0.010399305555555556,-0.20217881944444444],[0.010399305555555556,-0.1980251736111111],[0.010399305555555556,-0.19332465277777777],[0.010399305555555556,-0.186796875],[0.010399305555555556,-0.17368923611111112],[0.010399305555555556,-0.15963975694444443],[0.010399305555555556,-0.15193576388888888],[0.010399305555555556,-0.14460069444444446],[0.010399305555555556,-0.13990017361111112],[0.010399305555555556,-0.13381944444444444],[0.010399305555555556,-0.1284592013888889],[0.010399305555555556,-0.12040364583333334],[0.010399305555555556,-0.11078559027777778],[0.010963541666666667,-0.10032552083333333],[0.012530381944444445,-0.09064670138888889],[0.0147265625,-0.08018663194444445],[0.016414930555555554,-0.06891059027777778],[0.019800347222222223,-0.050625],[0.021019965277777778,-0.03641493055555556],[0.022421875,-0.01595486111111111],[0.024796006944444445,0.008736979166666667],[0.025546875,0.03279079861111111],[0.02701388888888889,0.07309027777777778],[0.02701388888888889,0.09714409722222223],[0.028515625,0.12119791666666667],[0.028515625,0.13848958333333333],[0.028515625,0.1521701388888889],[0.028515625,0.16263020833333333],[0.028515625,0.1673263888888889],[0.028515625,0.16901041666666666],[0.028515625,0.169296875],[0.028515625,0.169296875],[0.028515625,0.169296875]]]",3,"[45,37,38]",,,,,,,,,,,,,,beach1.jpeg,space,7.935035,0,7,7,21,1,botanicalGarden6.jpg,cemetery6.jpg,campusquad3.jpg,cave5.jpg,,
Image_List_5,,,,,,,,,,,,,,,,44422,2020-11-19_14h48.04.164,analogCatScenes,2020.1.3,MacIntel,60,"[1440,900]","[[[0.0009157986111111112,-0.19865451388888888],[0.0009157986111111112,-0.19865451388888888],[0.0009157986111111112,-0.19865451388888888],[0.0009157986111111112,-0.19865451388888888],[0.0009157986111111112,-0.19865451388888888],[0.0009157986111111112,-0.19865451388888888],[0.0009157986111111112,-0.19865451388888888],[0.0009157986111111112,-0.19813368055555555],[0.0009157986111111112,-0.1906987847222222],[0.0009157986111111112,-0.17354600694444444],[0.0009157986111111112,-0.15186631944444445],[0.0009157986111111112,-0.12518229166666667],[0.0009157986111111112,-0.1012109375],[0.0009157986111111112,-0.07587239583333333],[0.0009157986111111112,-0.058194444444444444],[0.0009157986111111112,-0.03279513888888889],[0.0016189236111111111,-0.011380208333333334],[0.0036197916666666666,0.006831597222222222],[0.006966145833333334,0.034513888888888886],[0.00890625,0.0514453125],[0.010716145833333333,0.06551215277777778],[0.013020833333333334,0.07766059027777777],[0.013993055555555555,0.0851171875],[0.014991319444444444,0.09317274305555556],[0.0158984375,0.09911024305555556],[0.0158984375,0.10572482638888889],[0.0158984375,0.111015625],[0.0158984375,0.11571614583333334],[0.0158984375,0.12041666666666667],[0.0158984375,0.12452256944444444],[0.0158984375,0.1275607638888889],[0.0158984375,0.13012586805555557],[0.0158984375,0.13180555555555556],[0.0158984375,0.1323828125],[0.0158984375,0.13265625],[0.0158984375,0.13265625],[0.0158984375,0.13265625],[0.0158984375,0.13265625],[0.0158984375,0.13265625]]]",1,[39],,,,,,,,,,,,,,airportTerminal6.jpg,space,3.28079,0,8,8,2,1,alley1.jpg,arcade1.jpg,applestore6.jpg,apartmentBuilding4.jpg,,
Image_List_5,,,,,,,,,,,,,,,,44422,2020-11-19_14h48.04.164,analogCatScenes,2020.1.3,MacIntel,60,"[1440,900]","[[[0.004140625,-0.2069704861111111],[0.004140625,-0.2069704861111111],[0.004140625,-0.2069704861111111],[0.004140625,-0.2069704861111111],[0.004140625,-0.2069704861111111],[0.004140625,-0.2069704861111111],[0.004140625,-0.2069704861111111],[0.004140625,-0.2069704861111111],[0.004140625,-0.2069704861111111],[0.004140625,-0.2069704861111111],[0.004140625,-0.2069704861111111],[0.004140625,-0.2069704861111111],[0.004140625,-0.2069704861111111],[0.004140625,-0.2069704861111111],[0.004140625,-0.2069704861111111],[0.004140625,-0.2069704861111111],[0.009869791666666667,-0.1990017361111111],[0.018958333333333334,-0.1874826388888889],[0.027886284722222224,-0.1773611111111111],[0.03854166666666667,-0.16669704861111112],[0.05983940972222222,-0.1432855902777778],[0.06435763888888889,-0.13932725694444445],[0.08496527777777778,-0.11733506944444444],[0.09866753472222223,-0.1029470486111111],[0.11308159722222222,-0.08920572916666666],[0.12049045138888889,-0.08246527777777778],[0.14323784722222221,-0.06315538194444445],[0.15840277777777778,-0.05005208333333333],[0.17256510416666668,-0.037921006944444446],[0.1838107638888889,-0.027916666666666666],[0.1939626736111111,-0.018949652777777777],[0.20299913194444444,-0.011032986111111111],[0.21202256944444445,-0.003689236111111111],[0.22190104166666666,0.0044444444444444444],[0.22860243055555557,0.009587673611111111],[0.23515625,0.015143229166666666],[0.24081597222222223,0.01986545138888889],[0.24765625,0.025590277777777778],[0.25090277777777775,0.028055555555555556],[0.2559375,0.031714409722222225],[0.26002604166666665,0.03417534722222222],[0.26371527777777776,0.036640625],[0.26686631944444444,0.038628472222222224],[0.27001736111111113,0.04062065972222222],[0.2725737847222222,0.042078993055555555],[0.2748828125,0.04405381944444445],[0.2755121527777778,0.04437065972222222],[0.2763671875,0.04495225694444444],[0.27665364583333335,0.04524305555555556],[0.2769357638888889,0.04524305555555556],[0.2769357638888889,0.04524305555555556],[0.2769357638888889,0.04524305555555556],[0.2769357638888889,0.04524305555555556],[0.2769357638888889,0.04524305555555556],[0.2769357638888889,0.04524305555555556],[0.2769357638888889,0.04524305555555556],[0.2769357638888889,0.04524305555555556],[0.2769357638888889,0.04524305555555556],[0.2769357638888889,0.04524305555555556],[0.2769357638888889,0.04524305555555556]],[[-0.0062586805555555555,-0.19461371527777777],[-0.0062586805555555555,-0.19461371527777777],[-0.0062586805555555555,-0.19461371527777777],[-0.0062586805555555555,-0.19461371527777777],[-0.0062586805555555555,-0.19461371527777777],[-0.0062586805555555555,-0.19461371527777777],[-0.0062586805555555555,-0.19461371527777777],[-0.0062586805555555555,-0.19461371527777777],[-0.0062586805555555555,-0.19461371527777777],[-0.0062586805555555555,-0.19461371527777777],[-0.0062586805555555555,-0.19461371527777777],[-0.0062586805555555555,-0.19461371527777777],[-0.0062586805555555555,-0.19461371527777777],[-0.0062586805555555555,-0.19461371527777777],[-0.0062586805555555555,-0.19461371527777777],[-0.0062586805555555555,-0.19461371527777777],[-0.0062586805555555555,-0.19461371527777777],[-0.0062586805555555555,-0.19461371527777777],[-0.0062586805555555555,-0.19461371527777777],[-0.0062586805555555555,-0.19461371527777777],[-0.0062586805555555555,-0.19461371527777777],[-0.0062586805555555555,-0.19461371527777777],[-0.0062586805555555555,-0.19461371527777777],[-0.0062586805555555555,-0.19461371527777777],[-0.008880208333333334,-0.19094618055555557],[-0.019791666666666666,-0.17664930555555555],[-0.033893229166666664,-0.16041666666666668],[-0.046024305555555554,-0.14624565972222223],[-0.056966145833333336,-0.13338975694444444],[-0.06853732638888889,-0.12115885416666666],[-0.07916666666666666,-0.10928385416666667],[-0.09046006944444444,-0.09861979166666666],[-0.10112413194444445,-0.08732638888888888],[-0.11178819444444445,-0.07666232638888888],[-0.1222048611111111,-0.066875],[-0.13278645833333333,-0.056306423611111114],[-0.14151475694444443,-0.04701388888888889],[-0.15010850694444444,-0.03788628472222222],[-0.15262152777777777,-0.034370659722222224],[-0.15673177083333334,-0.029348958333333335],[-0.1607421875,-0.024522569444444444],[-0.16266059027777777,-0.021848958333333335],[-0.16450086805555555,-0.019661458333333333],[-0.16678385416666666,-0.017378472222222222],[-0.16871527777777778,-0.0146875],[-0.17124131944444446,-0.010959201388888888],[-0.1737890625,-0.006271701388888889],[-0.176328125,-0.0015972222222222223],[-0.1788845486111111,0.003103298611111111],[-0.18147569444444445,0.007365451388888889],[-0.18394097222222222,0.011063368055555555],[-0.1869140625,0.0148828125],[-0.18970052083333333,0.017669270833333334],[-0.19207465277777777,0.020455729166666665],[-0.1944487847222222,0.0232421875],[-0.19690104166666667,0.026514756944444443],[-0.19936197916666668,0.029796006944444446],[-0.20182725694444445,0.0330859375],[-0.20428385416666667,0.036362847222222223],[-0.2071484375,0.03963107638888889],[-0.20952256944444445,0.04241753472222222],[-0.21139322916666667,0.044696180555555555],[-0.2130512152777778,0.04701822916666667],[-0.21368923611111112,0.04765625],[-0.21455729166666668,0.04852430555555556],[-0.21484809027777776,0.049162326388888886],[-0.21513888888888888,0.049453125],[-0.21513888888888888,0.04972222222222222],[-0.21513888888888888,0.04972222222222222],[-0.21513888888888888,0.04972222222222222],[-0.21513888888888888,0.04972222222222222]],[[0.0009765625,-0.2047092013888889],[0.0009765625,-0.2047092013888889],[0.0009765625,-0.2047092013888889],[0.0009765625,-0.2047092013888889],[0.0009765625,-0.2047092013888889],[0.0009765625,-0.2047092013888889],[0.0009765625,-0.20340711805555556],[0.0009765625,-0.19733072916666666],[0.0009765625,-0.18921440972222223],[0.0020399305555555557,-0.17953559027777777],[0.005386284722222222,-0.16542100694444445],[0.008893229166666667,-0.1522439236111111],[0.014344618055555555,-0.13766059027777777],[0.0180859375,-0.12268229166666667],[0.022122395833333332,-0.11049479166666666],[0.024913194444444446,-0.09912760416666666],[0.027730034722222224,-0.08784288194444445],[0.031176215277777777,-0.07563368055555555],[0.03586371527777778,-0.06272569444444444],[0.041180555555555554,-0.05029513888888889],[0.0449609375,-0.04231336805555556],[0.050859375,-0.027825520833333332],[0.05377170138888889,-0.020516493055555557],[0.05546440972222222,-0.015698784722222223],[0.05772569444444445,-0.009743923611111111],[0.05901475694444445,-0.005043402777777778],[0.060147569444444444,-0.0020052083333333332],[0.060811631944444444,-0.00032118055555555556],[0.06141493055555555,0.0006076388888888889],[0.06141493055555555,0.0008810763888888889],[0.06141493055555555,0.001154513888888889],[0.06141493055555555,0.003246527777777778],[0.06141493055555555,0.005811631944444445],[0.06141493055555555,0.00837673611111111],[0.06173177083333333,0.009652777777777777],[0.06173177083333333,0.010581597222222221],[0.06173177083333333,0.010872395833333333],[0.06173177083333333,0.011141493055555556],[0.06173177083333333,0.013233506944444445],[0.062109375,0.01627170138888889],[0.06251736111111111,0.01984375],[0.06286458333333333,0.02240451388888889],[0.06286458333333333,0.023676215277777777],[0.06315104166666667,0.0242578125],[0.06315104166666667,0.0242578125],[0.06315104166666667,0.024522569444444444],[0.0634201388888889,0.024522569444444444],[0.0634201388888889,0.024522569444444444],[0.0634201388888889,0.024522569444444444],[0.0634201388888889,0.024522569444444444],[0.0634201388888889,0.024522569444444444],[0.0634201388888889,0.024522569444444444],[0.0634201388888889,0.024522569444444444],[0.0634201388888889,0.024522569444444444],[0.0634201388888889,0.024522569444444444],[0.0634201388888889,0.024522569444444444]]]",3,"[60,71,56]",,,,,,,,,,,,,,rooftop2.jpg,space,7.938645,0,9,9,84,1,readingroom5.jpg,sidewalk2.jpg,restaurant13.jpg,sandDunes_desert_outdoor.jpg,,
Image_List_5,,,,,,,,,,,,,,,,44422,2020-11-19_14h48.04.164,analogCatScenes,2020.1.3,MacIntel,60,"[1440,900]","[[[0.008676215277777777,-0.2054470486111111],[0.008676215277777777,-0.2054470486111111],[0.008676215277777777,-0.2054470486111111],[0.008676215277777777,-0.2054470486111111],[0.008676215277777777,-0.2054470486111111],[0.008676215277777777,-0.2054470486111111],[0.008676215277777777,-0.2054470486111111],[0.008676215277777777,-0.2054470486111111],[0.008676215277777777,-0.2054470486111111],[0.013532986111111112,-0.2054470486111111],[0.022717013888888887,-0.2054470486111111],[0.040546875,-0.2054470486111111],[0.05459201388888889,-0.2054470486111111],[0.06773871527777778,-0.2054470486111111],[0.08631510416666667,-0.2054470486111111],[0.10561197916666666,-0.20268663194444445],[0.1284375,-0.19826822916666667],[0.13887586805555555,-0.1971657986111111],[0.1511328125,-0.19485677083333333],[0.15779513888888888,-0.1934722222222222],[0.16088541666666667,-0.19305989583333333],[0.16180121527777777,-0.19273871527777778],[0.16312934027777778,-0.19174913194444446],[0.16781684027777777,-0.18960503472222223],[0.17586371527777778,-0.18608072916666665],[0.1827170138888889,-0.1832421875],[0.19187065972222223,-0.17950520833333333],[0.19919704861111112,-0.17657552083333333],[0.2068185763888889,-0.17255208333333333],[0.21271267361111112,-0.16983506944444443],[0.22,-0.16691840277777778],[0.226640625,-0.16409722222222223],[0.23541666666666666,-0.15946180555555556],[0.23744791666666668,-0.1582421875],[0.24194010416666667,-0.15373697916666668],[0.24383246527777777,-0.15107638888888889],[0.24528211805555555,-0.14851128472222222],[0.24635416666666668,-0.14594618055555555],[0.247109375,-0.1429123263888889],[0.24786458333333333,-0.13987413194444445],[0.24826822916666666,-0.13578125],[0.24826822916666666,-0.13042100694444445],[0.24826822916666666,-0.12446614583333333],[0.24826822916666666,-0.11891927083333333],[0.24826822916666666,-0.11224392361111112],[0.24826822916666666,-0.1062890625],[0.24826822916666666,-0.10158854166666667],[0.24826822916666666,-0.0985546875],[0.24826822916666666,-0.09551649305555555],[0.2475043402777778,-0.09248263888888889],[0.24629774305555555,-0.08891059027777778],[0.2455034722222222,-0.08533854166666667],[0.24436197916666666,-0.0823046875],[0.2432769097222222,-0.0786935763888889],[0.24292534722222223,-0.07764756944444444],[0.24260850694444444,-0.07637586805555556],[0.24231770833333333,-0.07579861111111111],[0.2420269097222222,-0.07521701388888889],[0.2417578125,-0.07494791666666667],[0.2417578125,-0.07494791666666667],[0.2417578125,-0.07494791666666667],[0.2417578125,-0.07494791666666667],[0.2417578125,-0.07494791666666667],[0.2417578125,-0.07494791666666667],[0.2417578125,-0.07494791666666667],[0.2417578125,-0.07494791666666667]]]",1,[66],,,,,,,,,,,,,,igloo.jpg,space,3.03488,0,10,10,70,1,lockerroom4.jpg,pavilion.jpg,lockerroom3.jpg,minigolf8.jpg,,
Image_List_5,,,,,,,,,,,,,,,,44422,2020-11-19_14h48.04.164,analogCatScenes,2020.1.3,MacIntel,60,"[1440,900]","[[[0.005091145833333333,-0.20241319444444444],[0.005091145833333333,-0.20241319444444444],[0.005091145833333333,-0.20241319444444444],[0.005091145833333333,-0.20241319444444444],[0.005091145833333333,-0.20241319444444444],[0.005091145833333333,-0.20241319444444444],[0.005091145833333333,-0.20241319444444444],[0.005091145833333333,-0.20241319444444444],[0.005091145833333333,-0.20241319444444444],[0.005091145833333333,-0.19836805555555556],[0.005681423611111111,-0.1922873263888889],[0.011631944444444445,-0.17698784722222222],[0.01665798611111111,-0.16638020833333333],[0.021176215277777778,-0.1593402777777778],[0.0251953125,-0.15229166666666666],[0.030065104166666665,-0.14593315972222223],[0.03382378472222222,-0.14028645833333334],[0.039709201388888886,-0.13226128472222223],[0.04438802083333333,-0.12446180555555555],[0.04900607638888889,-0.1173220486111111],[0.053619791666666666,-0.11018663194444445],[0.05828993055555556,-0.10240017361111112],[0.06416232638888889,-0.09438368055555556],[0.06790364583333333,-0.08880642361111112],[0.07330295138888888,-0.081796875],[0.07858072916666667,-0.07387586805555556],[0.08282552083333333,-0.06821180555555556],[0.0876953125,-0.061853298611111114],[0.09272135416666667,-0.0548046875],[0.097734375,-0.0477734375],[0.10345052083333334,-0.0405078125],[0.10916666666666666,-0.0332421875],[0.11557291666666666,-0.02575954861111111],[0.12125,-0.018541666666666668],[0.13153211805555556,-0.006627604166666667],[0.1347092013888889,-0.002916666666666667],[0.14440538194444444,0.008975694444444444],[0.15080295138888888,0.01644965277777778],[0.1565190972222222,0.023715277777777776],[0.15975260416666667,0.028875868055555556],[0.16327690972222222,0.033294270833333334],[0.16639322916666666,0.03818142361111111],[0.17063802083333332,0.04384982638888889],[0.17618489583333333,0.05040798611111111],[0.18365885416666666,0.057890625],[0.18903645833333332,0.06327690972222222],[0.194375,0.06908854166666667],[0.19777777777777777,0.07294270833333333],[0.200234375,0.07623263888888888],[0.20274739583333334,0.07995659722222222],[0.20511284722222223,0.08274305555555556],[0.20788194444444444,0.08552083333333334],[0.21015190972222222,0.08786458333333333],[0.21157552083333334,0.089296875],[0.21217881944444444,0.09022569444444445],[0.21274739583333332,0.09022569444444445],[0.21274739583333332,0.09051649305555555],[0.21274739583333332,0.09051649305555555],[0.21274739583333332,0.09051649305555555],[0.21274739583333332,0.09051649305555555],[0.21274739583333332,0.09051649305555555],[0.21274739583333332,0.09051649305555555],[0.21274739583333332,0.09051649305555555],[0.21274739583333332,0.09051649305555555],[0.21274739583333332,0.09051649305555555],[0.21274739583333332,0.09051649305555555],[0.21274739583333332,0.09051649305555555],[0.21274739583333332,0.09051649305555555],[0.21274739583333332,0.09051649305555555],[0.21274739583333332,0.09051649305555555],[0.21274739583333332,0.09051649305555555],[0.21274739583333332,0.09051649305555555],[0.21274739583333332,0.09051649305555555],[0.21274739583333332,0.09051649305555555]]]",1,[74],,,,,,,,,,,,,,boardwalk.jpg,space,4.72162,0,11,11,24,1,campsite.jpg,cliff3.jpg,cave6.jpg,cemetery5.jpg,,
Image_List_5,,,,,,,,,,,,,,,,44422,2020-11-19_14h48.04.164,analogCatScenes,2020.1.3,MacIntel,60,"[1440,900]","[[[-0.007999131944444444,-0.2003125],[-0.007999131944444444,-0.2003125],[-0.007999131944444444,-0.2003125],[-0.007999131944444444,-0.2003125],[-0.007999131944444444,-0.2003125],[-0.007999131944444444,-0.2003125],[-0.007999131944444444,-0.2003125],[-0.007999131944444444,-0.2003125],[-0.007999131944444444,-0.2003125],[-0.007999131944444444,-0.2003125],[-0.007999131944444444,-0.2003125],[-0.007999131944444444,-0.2003125],[-0.007999131944444444,-0.2003125],[-0.007999131944444444,-0.2003125],[-0.007999131944444444,-0.2003125],[-0.007999131944444444,-0.2003125],[-0.007999131944444444,-0.2003125],[-0.007999131944444444,-0.2003125],[-0.007999131944444444,-0.2003125],[-0.011085069444444444,-0.19963975694444444],[-0.01578559027777778,-0.1979296875],[-0.02048611111111111,-0.19621961805555554],[-0.023585069444444443,-0.19545572916666668],[-0.02526909722222222,-0.19510416666666666],[-0.026197916666666668,-0.1947829861111111],[-0.026197916666666668,-0.1947829861111111],[-0.02646701388888889,-0.1947829861111111],[-0.02646701388888889,-0.1945095486111111],[-0.02646701388888889,-0.1945095486111111],[-0.02646701388888889,-0.1945095486111111],[-0.02646701388888889,-0.19424479166666667],[-0.02646701388888889,-0.19424479166666667],[-0.02646701388888889,-0.19424479166666667],[-0.02646701388888889,-0.19424479166666667],[-0.02646701388888889,-0.193984375],[-0.02646701388888889,-0.193984375],[-0.027018229166666668,-0.193984375],[-0.030056423611111112,-0.19284288194444443],[-0.03362847222222222,-0.19085069444444444],[-0.038311631944444445,-0.1883029513888889],[-0.04356770833333334,-0.18567274305555556],[-0.04970920138888889,-0.18239149305555555],[-0.05084201388888889,-0.18125868055555555],[-0.05490885416666667,-0.17904947916666666],[-0.05709635416666667,-0.17720920138888888],[-0.058780381944444446,-0.17618923611111112],[-0.059735243055555554,-0.175234375],[-0.06002604166666667,-0.17465711805555556],[-0.060316840277777777,-0.17465711805555556],[-0.06059027777777778,-0.17438368055555556],[-0.06059027777777778,-0.17438368055555556],[-0.06059027777777778,-0.17438368055555556],[-0.06085503472222222,-0.17438368055555556],[-0.0625390625,-0.1733940972222222],[-0.06510416666666667,-0.1719357638888889],[-0.06826822916666667,-0.16994357638888888],[-0.07035590277777778,-0.16889756944444445],[-0.07128472222222222,-0.16825954861111111],[-0.07221354166666667,-0.16764756944444445],[-0.07250434027777777,-0.16764756944444445],[-0.07250434027777777,-0.1673784722222222],[-0.07250434027777777,-0.1673784722222222],[-0.0727734375,-0.1673784722222222],[-0.0727734375,-0.1673784722222222],[-0.0727734375,-0.1673784722222222],[-0.07367621527777778,-0.16705729166666666],[-0.07723090277777778,-0.16548177083333335],[-0.08448784722222222,-0.16256076388888888],[-0.09897135416666666,-0.15721354166666668],[-0.11118055555555556,-0.15256510416666666],[-0.123359375,-0.1490842013888889],[-0.1355685763888889,-0.145],[-0.14600694444444445,-0.14114149305555557],[-0.15855902777777778,-0.1357421875],[-0.17048611111111112,-0.12918402777777777],[-0.18065972222222224,-0.12239583333333333],[-0.1896484375,-0.11452690972222222],[-0.19713107638888888,-0.10704427083333333],[-0.203359375,-0.10028211805555555],[-0.20821180555555555,-0.09489583333333333],[-0.21291666666666667,-0.08924913194444445],[-0.21704427083333333,-0.08467881944444444],[-0.22057725694444444,-0.08026041666666667],[-0.22344618055555557,-0.0765798611111111],[-0.2264453125,-0.07272569444444445],[-0.22977430555555556,-0.06657118055555555],[-0.23249131944444446,-0.06067708333333333],[-0.23485677083333334,-0.0540625],[-0.2367751736111111,-0.0480078125],[-0.2403949652777778,-0.03699652777777778],[-0.2418142361111111,-0.03368923611111111],[-0.24583333333333332,-0.021571180555555555],[-0.24833767361111111,-0.013580729166666666],[-0.2507638888888889,-0.006245659722222222],[-0.2533203125,0.002521701388888889],[-0.2555208333333333,0.0111328125],[-0.2564019097222222,0.016671006944444445],[-0.2575217013888889,0.024322916666666666],[-0.2575217013888889,0.03149305555555556],[-0.2575217013888889,0.04042534722222222],[-0.2575217013888889,0.04578559027777778],[-0.2575217013888889,0.05211371527777778],[-0.2565842013888889,0.058719618055555554],[-0.25614583333333335,0.06401475694444445],[-0.2552994791666667,0.06871527777777778],[-0.25489149305555553,0.07282118055555556],[-0.25489149305555553,0.07692708333333333],[-0.25407552083333335,0.08365885416666667],[-0.2536675347222222,0.08571180555555556],[-0.2528211805555556,0.0904123263888889],[-0.25200954861111113,0.09450086805555556],[-0.25125434027777777,0.09753472222222222],[-0.2505598958333333,0.09962673611111111],[-0.2505598958333333,0.10131076388888889],[-0.24986545138888888,0.10404079861111111],[-0.249140625,0.10660590277777778],[-0.24876302083333332,0.10812065972222222],[-0.24772135416666666,0.11125868055555556],[-0.2474045138888889,0.11294270833333334],[-0.2470876736111111,0.11421875],[-0.2468012152777778,0.11480034722222222],[-0.2468012152777778,0.11572916666666666],[-0.24651475694444444,0.11631076388888889],[-0.24651475694444444,0.11658420138888889],[-0.24651475694444444,0.11685763888888889],[-0.24651475694444444,0.11685763888888889],[-0.24651475694444444,0.11685763888888889],[-0.24651475694444444,0.11685763888888889],[-0.24651475694444444,0.11711805555555556],[-0.24622829861111112,0.11769965277777777],[-0.24622829861111112,0.11862847222222223],[-0.24594184027777777,0.11921006944444444],[-0.24594184027777777,0.11948350694444444],[-0.24567274305555556,0.11948350694444444],[-0.24567274305555556,0.11948350694444444],[-0.24567274305555556,0.11975260416666667],[-0.24567274305555556,0.11975260416666667],[-0.24567274305555556,0.12001736111111111],[-0.24567274305555556,0.12001736111111111],[-0.24567274305555556,0.12029079861111111],[-0.24567274305555556,0.12029079861111111],[-0.24567274305555556,0.12029079861111111],[-0.24541232638888888,0.12029079861111111],[-0.24541232638888888,0.12056423611111111],[-0.24541232638888888,0.12083767361111111],[-0.24541232638888888,0.12083767361111111]]]",1,[146],,,,,,,,,,,,,,barbershop2.jpg,space,5.753155,0,12,12,16,1,basement.jpg,cafeteria6.jpg,breakroom2.jpg,campusquad4.jpg,,
