image_list,key_resp_intructions.keys,key_resp_intructions.rt,key_resp_intructions_3.keys,key_resp_intructions_3.rt,PracticeComplete_2.keys,PracticeComplete_2.rt,PracticeComplete_3.keys,PracticeComplete_3.rt,demo_trials.thisRepN,demo_trials.thisTrialN,demo_trials.thisN,demo_trials.thisIndex,demo_trials.ran,demo_images,path_images,participant,date,expName,psychopyVersion,OS,frameRate,windowSize,practice_complete.keys,practice_complete.rt,boxes_checked,PracticeComplete.keys,PracticeComplete.rt,practice_trials.thisRepN,practice_trials.thisTrialN,practice_trials.thisN,practice_trials.thisIndex,practice_trials.ran,practice_images,feedback_images,key_resp_intructions_2.keys,key_resp_intructions_2.rt,Image_List_2,trial_complete.keys,trial_complete.rt,trial_mouse.x,trial_mouse.y,trial_mouse.leftButton,trial_mouse.midButton,trial_mouse.rightButton,trial_mouse.time,trial_mouse.clicked_name,trials.thisRepN,trials.thisTrialN,trials.thisN,trials.thisIndex,trials.ran,Image_List_1,Image_List_3,Image_List_4,Image_List_5
Image_List_2,space,11.075565,space,2.60014,space,6.28264,space,3.423065,0,0,0,0,1,ahead.jpg,ahead_path.jpg,44458,2020-11-23_15h59.01.059,lingCatScenes,2020.1.3,MacIntel,60,,,,,,,,,,,,,,,,,,,,,,,,,,,,,,,,,,
Image_List_2,,,,,space,1.8265,space,1.71128,0,1,1,5,1,right.jpg,right_path.jpg,44458,2020-11-23_15h59.01.059,lingCatScenes,2020.1.3,MacIntel,60,,,,,,,,,,,,,,,,,,,,,,,,,,,,,,,,,,
Image_List_2,,,,,space,2.12086,space,3.663805,0,2,2,3,1,ahead_right_left.jpg,ahead_right_left_path.jpg,44458,2020-11-23_15h59.01.059,lingCatScenes,2020.1.3,MacIntel,60,,,,,,,,,,,,,,,,,,,,,,,,,,,,,,,,,,
Image_List_2,,,,,space,1.785265,space,1.348775,0,3,3,1,1,ahead_left.jpg,ahead_left_path.jpg,44458,2020-11-23_15h59.01.059,lingCatScenes,2020.1.3,MacIntel,60,,,,,,,,,,,,,,,,,,,,,,,,,,,,,,,,,,
Image_List_2,,,,,space,0.98211,space,0.6785,0,4,4,4,1,left.jpg,left_path.jpg,44458,2020-11-23_15h59.01.059,lingCatScenes,2020.1.3,MacIntel,60,,,,,,,,,,,,,,,,,,,,,,,,,,,,,,,,,,
Image_List_2,,,,,space,0.629605,space,0.668805,0,5,5,6,1,right_left.jpg,right_left_path.jpg,44458,2020-11-23_15h59.01.059,lingCatScenes,2020.1.3,MacIntel,60,,,,,,,,,,,,,,,,,,,,,,,,,,,,,,,,,,
Image_List_2,,,,,space,0.60035,space,0.541395,0,6,6,2,1,ahead_right.jpg,ahead_right_path.jpg,44458,2020-11-23_15h59.01.059,lingCatScenes,2020.1.3,MacIntel,60,,,,,,,,,,,,,,,,,,,,,,,,,,,,,,,,,,
Image_List_2,,,,,,,,,,,,,,,,44458,2020-11-23_15h59.01.059,lingCatScenes,2020.1.3,MacIntel,60,"[1680,939]",space,13.63838,"[""left_box"",""slight_right_box"",""right_box""]",space,5.765875,0,0,0,1,1,ahead_left_2.jpg,ahead_left_2_path.jpg,,,,,,,,,,,,,,,,,,,,,
Image_List_2,,,,,,,,,,,,,,,,44458,2020-11-23_15h59.01.059,lingCatScenes,2020.1.3,MacIntel,60,"[1680,939]",space,11.483505,"[""ahead_box""]",space,2.750845,0,1,1,2,1,ahead_right_2.jpg,ahead_right_2_path.jpg,,,,,,,,,,,,,,,,,,,,,
Image_List_2,,,,,,,,,,,,,,,,44458,2020-11-23_15h59.01.059,lingCatScenes,2020.1.3,MacIntel,60,"[1680,939]",space,6.12894,"[""right_box"",""slight_right_box""]",space,1.19743,0,2,2,5,1,right_2.jpg,right_2_path.jpg,,,,,,,,,,,,,,,,,,,,,
Image_List_2,,,,,,,,,,,,,,,,44458,2020-11-23_15h59.01.059,lingCatScenes,2020.1.3,MacIntel,60,"[1680,939]",space,10.24813,"[""ahead_box""]",space,1.01496,0,3,3,0,1,ahead_2.jpg,ahead_2_path.jpg,,,,,,,,,,,,,,,,,,,,,
Image_List_2,,,,,,,,,,,,,,,,44458,2020-11-23_15h59.01.059,lingCatScenes,2020.1.3,MacIntel,60,"[1680,939]",space,4.520475,"[""sharp_left_box""]",space,0.679255,0,4,4,4,1,left_2.jpg,left_2_path.jpg,,,,,,,,,,,,,,,,,,,,,
Image_List_2,,,,,,,,,,,,,,,,44458,2020-11-23_15h59.01.059,lingCatScenes,2020.1.3,MacIntel,60,"[1680,939]",space,8.12354,"[""left_box"",""right_box""]",space,2.05087,0,5,5,6,1,right_left_2.jpg,right_left_2_path.jpg,,,,,,,,,,,,,,,,,,,,,
Image_List_2,,,,,,,,,,,,,,,,44458,2020-11-23_15h59.01.059,lingCatScenes,2020.1.3,MacIntel,60,"[1680,939]",space,9.21486,"[""slight_right_box""]",space,1.33365,0,6,6,3,1,ahead_right_left_2.jpg,ahead_right_left_2_path.jpg,,,,,,,,,,,,,,,,,,,,,
Image_List_2,,,,,,,,,,,,,,,,44458,2020-11-23_15h59.01.059,lingCatScenes,2020.1.3,MacIntel,60,"[1680,939]",,,"[""trial_slight_left_box"",""trial_left_box""]",,,,,,,,,,space,3.417035,attic1.jpg,space,3.095335,"[-0.19653970314164004,-0.37920993077742277]","[-0.2988510050585729,-0.2930935503194888]","[1,1]","[0,0]","[0,0]","[1.9041600000055041,2.9047300000020186]","[""trial_slight_left_box"",""trial_left_box""]",0,0,0,3,1,apartmentBuilding2.jpg,aquarium1.jpg,appleorchard2.jpg,alley3.jpg
Image_List_2,,,,,,,,,,,,,,,,44458,2020-11-23_15h59.01.059,lingCatScenes,2020.1.3,MacIntel,60,"[1680,939]",,,"[""trial_sharp_left_box""]",,,,,,,,,,,,deck2.jpg,space,4.91942,[-0.6036300252928648],[-0.309754392971246],[1],[0],[0],[4.247860000003129],"[""trial_sharp_left_box""]",0,1,1,29,1,cornfield2.jpg,cliff2.jpg,constructionSite4.jpg,bridalboutique3.jpg
Image_List_2,,,,,,,,,,,,,,,,44458,2020-11-23_15h59.01.059,lingCatScenes,2020.1.3,MacIntel,60,"[1680,939]",,,"[""trial_ahead_box""]",,,,,,,,,,,,sidewalk5.jpg,space,7.36566,[0.00728001863684771],[-0.2915377063365282],[1],[0],[0],[6.897879999996803],"[""trial_ahead_box""]",0,2,2,85,1,recordingstudio4.jpg,ruralroad2.jpg,sandDunes_desert_outdoor3.jpg,rooftop3.jpg
Image_List_2,,,,,,,,,,,,,,,,44458,2020-11-23_15h59.01.059,lingCatScenes,2020.1.3,MacIntel,60,"[1680,939]",,,"[""trial_sharp_left_box"",""trial_sharp_right_box""]",,,,,,,,,,,,driveway4.jpg,space,6.166005,"[-0.5889160676251332,0.5850597377529286]","[-0.3239857894036209,-0.2967543596911608]","[1,1]","[0,0]","[0,0]","[3.0631199999988894,5.479755000000296]","[""trial_sharp_left_box"",""trial_sharp_right_box""]",0,3,3,37,1,dining_car.jpg,dinosaur4.jpg,driveway7.jpg,citystreet9.jpg
Image_List_2,,,,,,,,,,,,,,,,44458,2020-11-23_15h59.01.059,lingCatScenes,2020.1.3,MacIntel,60,"[1680,939]",,,"[""trial_sharp_right_box"",""trial_ahead_box"",""trial_slight_right_box""]",,,,,,,,,,,,church8.jpg,space,7.80126,"[0.5951020034611288,0.019626930244941426,0.20198515708200213]","[-0.30961295260915866,-0.3187233759318424,-0.3245057907348243]","[1,1,1]","[0,0,0]","[0,0,0]","[5.6142750000000206,6.797855000004347,7.58118500000262]","[""trial_sharp_right_box"",""trial_ahead_box"",""trial_slight_right_box""]",0,4,4,23,1,bus_shelter.jpg,carmechanic4.jpeg,cemetery3.jpg,bleachers6.jpg
Image_List_2,,,,,,,,,,,,,,,,44458,2020-11-23_15h59.01.059,lingCatScenes,2020.1.3,MacIntel,60,"[1680,939]",,,"[""trial_ahead_box"",""trial_slight_right_box""]",,,,,,,,,,,,desertvegetation6.jpg,space,3.932385,"[0.003989450212992545,0.2366006056975506,0.18801168130990414]","[-0.2922948282747604,-0.2902522630457934,-0.2933015508519702]","[1,1,1]","[0,0,0]","[0,0,0]","[2.4632700000000796,3.046199999997043,3.6303649999973686]","[""trial_ahead_box"",""trial_slight_right_box""]",0,5,5,31,1,cubicle4.jpg,conference4.jpg,courtroom2.jpg,cabin3.jpg
Image_List_2,,,,,,,,,,,,,,,,44458,2020-11-23_15h59.01.059,lingCatScenes,2020.1.3,MacIntel,60,"[1680,939]",,,"[""trial_ahead_box""]",,,,,,,,,,,,track5.jpg,space,2.71739,"[-0.038946019701810435,0.015387879392971246]","[-0.32640691560170393,-0.31737969249201275]","[1,1]","[0,0]","[0,0]","[1.4810050000013462,2.081510000003391]","[""trial_ahead_box""]",0,6,6,89,1,ruralroad7.jpg,ShowJumping7.jpg,staircase7.jpg,sculpturegarden3.jpg
Image_List_2,,,,,,,,,,,,,,,,44458,2020-11-23_15h59.01.059,lingCatScenes,2020.1.3,MacIntel,60,"[1680,939]",,,"[""trial_sharp_left_box"",""trial_left_box"",""trial_slight_left_box"",""trial_ahead_box"",""trial_slight_right_box"",""trial_right_box"",""trial_sharp_right_box""]",,,,,,,,,,,,playground6.jpg,space,10.58208,"[-0.583191892971246,-0.4550802050053248,-0.3726911940894569,-0.39922374201277955,-0.2318540335463259,-0.20592884717784876,-0.0026041666666666665,0.2159253527689031,0.4260558107028754,0.4019901490947817,0.6015541799787008]","[-0.300847810170394,-0.3022913338658147,-0.3068839856230032,-0.3212152223109691,-0.32175186368477104,-0.30333133652822153,-0.2926733892438765,-0.29457451411075614,-0.30085197018104365,-0.29561867678381254,-0.2971953208200213]","[1,1,1,1,1,1,1,1,1,1,1]","[0,0,0,0,0,0,0,0,0,0,0]","[0,0,0,0,0,0,0,0,0,0,0]","[2.4628799999992452,2.996135000001118,3.530529999996247,4.763885000000187,5.229549999996266,5.846704999996405,6.563344999995138,7.230159999999273,8.245539999996367,9.013644999999087,10.14641999999742]","[""trial_sharp_left_box"",""trial_left_box"",""trial_slight_left_box"",""trial_ahead_box"",""trial_slight_right_box"",""trial_right_box"",""trial_sharp_right_box""]",0,7,7,75,1,pantry5.jpg,operatingroom4.jpg,park.jpg,lockerroom.jpg
Image_List_2,,,,,,,,,,,,,,,,44458,2020-11-23_15h59.01.059,lingCatScenes,2020.1.3,MacIntel,60,"[1680,939]",,,"[""trial_slight_left_box""]",,,,,,,,,,,,breakroom5.jpg,space,2.84874,[-0.18995024627263046],[-0.3061851038338658],[1],[0],[0],[2.4804399999991347],"[""trial_slight_left_box""]",0,8,8,14,1,ballroom1.jpg,bistrooutdoor5.jpg,botanicalGarden5.jpg,ballroom3.jpg
Image_List_2,,,,,,,,,,,,,,,,44458,2020-11-23_15h59.01.059,lingCatScenes,2020.1.3,MacIntel,60,"[1680,939]",,,"[""trial_ahead_box""]",,,,,,,,,,,,barbershop3.jpg,space,1.4331,[-0.018187566560170395],[-0.29766540202342917],[1],[0],[0],[1.198275000002468],"[""trial_ahead_box""]",0,9,9,10,1,backstage2.jpg,ballroom4.jpg,basketballcourt3.jpg,ATM4.jpg
Image_List_2,,,,,,,,,,,,,,,,44458,2020-11-23_15h59.01.059,lingCatScenes,2020.1.3,MacIntel,60,"[1680,939]",,,"[""trial_ahead_box""]",,,,,,,,,,,,apartmentBuilding1.jpg,space,1.69927,[0.009360023961661341],[-0.31606096911608095],[1],[0],[0],[1.4807900000014342],"[""trial_ahead_box""]",0,10,10,1,1,airportTerminal4.jpg,applestore1.jpg,airportTerminal3.jpg,airportTerminal2.jpg
Image_List_2,,,,,,,,,,,,,,,,44458,2020-11-23_15h59.01.059,lingCatScenes,2020.1.3,MacIntel,60,"[1680,939]",,,"[""trial_slight_right_box""]",,,,,,,,,,,,hallway5.jpg,space,1.91753,[0.2173605564430245],[-0.3085479898828541],[1],[0],[0],[1.4463150000011638],"[""trial_slight_right_box""]",0,11,11,51,1,gasstation6.jpg,frontDoor5.jpg,hayfield4.jpg,firestation5.jpg
Image_List_2,,,,,,,,,,,,,,,,44458,2020-11-23_15h59.01.059,lingCatScenes,2020.1.3,MacIntel,60,"[1680,939]",,,"[""trial_ahead_box"",""trial_slight_left_box""]",,,,,,,,,,,,playroom6.jpg,space,5.06741,"[-0.00036192092651757187,0.004838092385516507,-0.21761015708200213,-0.2067691693290735]","[-0.3272888378594249,-0.30619342385516507,-0.3250757121938232,-0.3030484558040469]","[1,1,1,1]","[0,0,0,0]","[0,0,0,0]","[1.9131100000012111,2.879500000002622,3.6466250000011087,4.5975150000012945]","[""trial_ahead_box"",""trial_slight_left_box""]",0,12,12,77,1,parkinggarage2.jpg,pasture9.jpg,park8.jpg,mallindoor6.jpg
Image_List_2,,,,,,,,,,,,,,,,44458,2020-11-23_15h59.01.059,lingCatScenes,2020.1.3,MacIntel,60,"[1680,939]",,,"[""trial_right_box"",""trial_sharp_right_box""]",,,,,,,,,,,,waitingroom3.jpg,space,14.866955,"[0.41323049787007454,0.5763569954739084]","[-0.2944954739084132,-0.31326544195953143]","[1,1]","[0,0]","[0,0]","[13.079480000000103,14.53018999999756]","[""trial_right_box"",""trial_sharp_right_box""]",0,13,13,94,1,treehouse.jpg,staircase6.jpg,weightroom.jpg,trainStation3.jpg
Image_List_2,,,,,,,,,,,,,,,,44458,2020-11-23_15h59.01.059,lingCatScenes,2020.1.3,MacIntel,60,"[1680,939]",,,"[""trial_ahead_box""]",,,,,,,,,,,,trainStation1.jpg,space,2.1335,[0.0016016041001064962],[-0.294586994142705],[1],[0],[0],[1.8316049999993993],"[""trial_ahead_box""]",0,14,14,90,1,savanna5.jpg,sidewalk1.jpg,stripmall3.jpg,shoestore4.jpg
Image_List_2,,,,,,,,,,,,,,,,44458,2020-11-23_15h59.01.059,lingCatScenes,2020.1.3,MacIntel,60,"[1680,939]",,,"[""trial_ahead_box"",""trial_slight_left_box""]",,,,,,,,,,,,library_aisle8.jpg,space,4.89884,"[0.013187233759318424,-0.21746039669861555]","[-0.30291117545260915,-0.3070046259318424]","[1,1]","[0,0]","[0,0]","[4.095350000003236,4.713040000002366]","[""trial_ahead_box"",""trial_slight_left_box""]",0,15,15,59,1,homegarden7.jpg,highway4.jpg,kindergarten_classroom5.jpg,grocerystore3.jpg
Image_List_2,,,,,,,,,,,,,,,,44458,2020-11-23_15h59.01.059,lingCatScenes,2020.1.3,MacIntel,60,"[1680,939]",,,"[""trial_sharp_left_box"",""trial_sharp_right_box""]",,,,,,,,,,,,bar2.jpg,space,5.949425,"[-0.578416200745474,0.616338857827476]","[-0.31051151490947815,-0.30064812965921195]","[1,1]","[0,0]","[0,0]","[3.7317750000003116,5.030255000005354]","[""trial_sharp_left_box"",""trial_sharp_right_box""]",0,16,16,9,1,auto_showroom3.jpg,ballroom2.jpg,basement5.jpg,arcade2.jpg
Image_List_2,,,,,,,,,,,,,,,,44458,2020-11-23_15h59.01.059,lingCatScenes,2020.1.3,MacIntel,60,"[1680,939]",,,"[""trial_sharp_left_box"",""trial_sharp_right_box""]",,,,,,,,,,,,newsstand7.jpg,space,13.47814,"[-0.6031225039936102,0.6255491214057508,0.5975064896166135]","[-0.29789004259850904,-0.305569422257721,-0.29523179579339726]","[1,1,1]","[0,0,0]","[0,0,0]","[11.512129999995409,12.712565000001518,13.263285000000792]","[""trial_sharp_left_box"",""trial_sharp_right_box""]",0,17,17,65,1,igloo5.jpg,laundromat2.jpeg,labClass7.jpg,homeoffice8.jpg
Image_List_2,,,,,,,,,,,,,,,,44458,2020-11-23_15h59.01.059,lingCatScenes,2020.1.3,MacIntel,60,"[1680,939]",,,"[""trial_slight_left_box"",""trial_slight_right_box""]",,,,,,,,,,,,pavilion.jpg,space,3.916415,"[-0.1796250998402556,0.20671508919062834]","[-0.30499950079872207,-0.2993169262513312]","[1,1]","[0,0]","[0,0]","[2.696069999998258,3.5958549999994602]","[""trial_slight_left_box"",""trial_slight_right_box""]",0,18,18,70,1,lockerroom4.jpg,lockerroom3.jpg,minigolf8.jpg,igloo.jpg
Image_List_2,,,,,,,,,,,,,,,,44458,2020-11-23_15h59.01.059,lingCatScenes,2020.1.3,MacIntel,60,"[1680,939]",,,"[""trial_right_box""]",,,,,,,,,,,,photographer_studio2.jpg,space,3.01689,[0.40479399627263046],[-0.308136148828541],[1],[0],[0],[2.728515000002403],"[""trial_right_box""]",0,19,19,73,1,musicStore3.jpg,nursery.jpg,nursery4.jpg,library_aisle9.jpg
Image_List_2,,,,,,,,,,,,,,,,44458,2020-11-23_15h59.01.059,lingCatScenes,2020.1.3,MacIntel,60,"[1680,939]",,,"[""trial_left_box"",""trial_right_box""]",,,,,,,,,,,,diningroom5.jpg,space,5.06428,"[-0.39826277955271566,0.39002595846645366]","[-0.29321003061767836,-0.3116596778487753]","[1,1]","[0,0]","[0,0]","[3.230955000006361,4.180305000001908]","[""trial_left_box"",""trial_right_box""]",0,20,20,34,1,deck4.jpg,courthouse4.jpg,diner11.jpg,campusquad1.jpg
Image_List_2,,,,,,,,,,,,,,,,44458,2020-11-23_15h59.01.059,lingCatScenes,2020.1.3,MacIntel,60,"[1680,939]",,,"[""trial_ahead_box"",""trial_left_box""]",,,,,,,,,,,,playroom4.jpg,space,4.33465,"[0.0005241613418530351,-0.3879334731096912]","[-0.3204830604366347,-0.30112237087326943]","[1,1]","[0,0]","[0,0]","[1.8304750000025933,4.013964999998393]","[""trial_ahead_box"",""trial_left_box""]",0,21,21,76,1,parkinggarage.jpg,parkinggarage3.jpg,park2.jpg,lookout4.jpg
Image_List_2,,,,,,,,,,,,,,,,44458,2020-11-23_15h59.01.059,lingCatScenes,2020.1.3,MacIntel,60,"[1680,939]",,,"[""trial_ahead_box"",""trial_slight_left_box""]",,,,,,,,,,,,forestpath10.jpg,space,3.332985,"[0.010462426783812567,-0.16535210330138445,-0.20708117012779553]","[-0.3193182574547391,-0.30860623003194887,-0.3046250998402556]","[1,1,1]","[0,0,0]","[0,0,0]","[1.797099999996135,2.6470750000009957,3.1638949999979786]","[""trial_ahead_box"",""trial_slight_left_box""]",0,22,22,43,1,exerciseequipment5.jpg,dugout2.jpg,foodcourt.jpg,diningroom3.jpg
Image_List_2,,,,,,,,,,,,,,,,44458,2020-11-23_15h59.01.059,lingCatScenes,2020.1.3,MacIntel,60,"[1680,939]",,,"[""trial_ahead_box""]",,,,,,,,,,,,lightingstore3.jpg,space,1.26302,[-0.023657980564430244],[-0.2979274826943557],[1],[0],[0],[1.0125499999992371],"[""trial_ahead_box""]",0,23,23,60,1,hometheater2.jpg,homegarage.jpg,kindergarten_classroom6.jpg,hallway.jpg
Image_List_2,,,,,,,,,,,,,,,,44458,2020-11-23_15h59.01.059,lingCatScenes,2020.1.3,MacIntel,60,"[1680,939]",,,"[""trial_ahead_box"",""trial_left_box"",""trial_right_box""]",,,,,,,,,,,,campsite6.jpg,space,5.36695,"[-0.02134085463258786,-0.3900592385516507,-0.3677199813631523,-0.4167789869542066,0.3986080604366347]","[-0.30101837060702874,-0.2703840521831736,-0.28800169728434505,-0.31330288205537804,-0.2855764110756124]","[1,1,1,1,1]","[0,0,0,0,0]","[0,0,0,0,0]","[1.7462999999988824,2.696529999993686,3.396134999995297,3.963569999999777,4.980529999993564]","[""trial_ahead_box"",""trial_left_box"",""trial_right_box""]",0,24,24,17,1,bikerack1.jpg,breakroom4.jpg,carmechanic.jpg,baseball6.jpg
Image_List_2,,,,,,,,,,,,,,,,44458,2020-11-23_15h59.01.059,lingCatScenes,2020.1.3,MacIntel,60,"[1680,939]",,,"[""trial_slight_left_box""]",,,,,,,,,,,,diner12.jpg,space,2.317385,[-0.2162789536741214],[-0.3166350505857295],[1],[0],[0],[1.6805099999982076],"[""trial_slight_left_box""]",0,25,25,32,1,dancestudio6.jpg,constructionSite2.jpg,dentist4.jpg,cabin4.jpg
Image_List_2,,,,,,,,,,,,,,,,44458,2020-11-23_15h59.01.059,lingCatScenes,2020.1.3,MacIntel,60,"[1680,939]",,,"[""trial_slight_left_box"",""trial_left_box""]",,,,,,,,,,,,stripmall.jpg,space,3.517045,"[-0.16862187167199147,-0.2382521299254526,-0.20933173588924386,-0.3671875,-0.3850838658146965]","[-0.29123402555910544,-0.27867911341853036,-0.2919745074547391,-0.2857220114483493,-0.3045169395633653]","[1,1,1,1,1]","[0,0,0,0,0]","[0,0,0,0,0]","[1.4806350000001203,2.031080000000884,2.396475000001601,2.813710000002402,3.2976150000033613]","[""trial_slight_left_box"",""trial_left_box""]",0,26,26,86,1,restaurant14.jpg,ruralroad3.jpg,sandDunes_desert_outdoor8.jpg,rooftop4.jpg
Image_List_2,,,,,,,,,,,,,,,,44458,2020-11-23_15h59.01.059,lingCatScenes,2020.1.3,MacIntel,60,"[1680,939]",,,"[""trial_ahead_box""]",,,,,,,,,,,,banquetHall6.jpg,space,1.282285,[-0.014772197816826411],[-0.2923405883919063],[1],[0],[0],[0.8466750000008005],"[""trial_ahead_box""]",0,27,27,8,1,attic3.jpg,balconyIN.jpg,bar.jpg,applestore4.jpg
Image_List_2,,,,,,,,,,,,,,,,44458,2020-11-23_15h59.01.059,lingCatScenes,2020.1.3,MacIntel,60,"[1680,939]",,,"[""trial_slight_right_box"",""trial_right_box""]",,,,,,,,,,,,homeoffice.jpg,space,3.23318,"[0.20509684504792333,0.39263012513312034]","[-0.3124708799254526,-0.30379309771033014]","[1,1]","[0,0]","[0,0]","[0.9141999999992549,3.0315350000018952]","[""trial_slight_right_box"",""trial_right_box""]",0,28,28,53,1,gazebo3.jpg,frontLawn3.jpg,homegarage3.jpg,fountain.jpg
Image_List_2,,,,,,,,,,,,,,,,44458,2020-11-23_15h59.01.059,lingCatScenes,2020.1.3,MacIntel,60,"[1680,939]",,,"[""trial_ahead_box""]",,,,,,,,,,,,metroInside4.jpg,space,1.61633,[0.01898628860489883],[-0.2982186834398296],[1],[0],[0],[1.3467149999995627],"[""trial_ahead_box""]",0,29,29,61,1,HorseRaceTrack.jpg,homegarden6.jpg,kindergarten_classroom7.jpg,hayfield6.jpg
Image_List_2,,,,,,,,,,,,,,,,44458,2020-11-23_15h59.01.059,lingCatScenes,2020.1.3,MacIntel,60,"[1680,939]",,,"[""trial_slight_left_box""]",,,,,,,,,,,,frontFoyer7.jpg,space,6.35076,"[-0.17940045926517573,0.03886281948881789]","[-0.30226221379126733,-0.289798821884984]","[1,1]","[0,0]","[0,0]","[4.946489999994924,5.763629999994123]","[""trial_slight_left_box""]",0,30,30,45,1,fittingroom2.jpg,factory1.jpg,forestpath4.jpg,dock4.jpg
Image_List_2,,,,,,,,,,,,,,,,44458,2020-11-23_15h59.01.059,lingCatScenes,2020.1.3,MacIntel,60,"[1680,939]",,,"[""trial_slight_left_box""]",,,,,,,,,,,,banquetHall4.jpg,space,1.967095,[-0.19761298588924386],[-0.3077409478168264],[1],[0],[0],[1.8128100000030827],"[""trial_slight_left_box""]",0,31,31,7,1,attic2.jpg,backstage1.jpg,baggageClaim3.jpg,applestore2.jpg
Image_List_2,,,,,,,,,,,,,,,,44458,2020-11-23_15h59.01.059,lingCatScenes,2020.1.3,MacIntel,60,"[1680,939]",,,"[""trial_ahead_box"",""trial_slight_right_box"",""trial_right_box""]",,,,,,,,,,,,poolhall1.jpg,space,3.017255,"[0.011090588391906284,0.21782647763578275,0.41176617412140576]","[-0.3018670127795527,-0.3029860556443025,-0.29453291400425985]","[1,1,1]","[0,0,0]","[0,0,0]","[1.3631299999976818,2.163715000002412,2.8625350000000935]","[""trial_ahead_box"",""trial_slight_right_box"",""trial_right_box""]",0,32,32,78,1,parkinglot3.jpg,pier5.jpg,pavilion3.jpg,observatory1.jpg
Image_List_2,,,,,,,,,,,,,,,,44458,2020-11-23_15h59.01.059,lingCatScenes,2020.1.3,MacIntel,60,"[1680,939]",,,"[""trial_slight_right_box"",""trial_right_box"",""trial_slight_left_box""]",,,,,,,,,,,,golfcourse6.jpg,space,3.10036,"[0.1837310303514377,0.39525925186368477,-0.20741397097976572]","[-0.30254093450479236,-0.3001073282747604,-0.2799063165601704]","[1,1,1]","[0,0,0]","[0,0,0]","[1.4803350000001956,2.0463400000007823,2.913730000000214]","[""trial_slight_right_box"",""trial_right_box"",""trial_slight_left_box""]",0,33,33,48,1,frontDoor2.jpg,fittingroom5.jpg,golfcourse7.jpg,fabricstore2.jpg
Image_List_2,,,,,,,,,,,,,,,,44458,2020-11-23_15h59.01.059,lingCatScenes,2020.1.3,MacIntel,60,"[1680,939]",,,"[""trial_ahead_box"",""trial_slight_right_box""]",,,,,,,,,,,,conference3.jpg,space,1.982735,"[0.005387213791267305,0.19089456869009586]","[-0.3010142105963791,-0.3169969715122471]","[1,1]","[0,0]","[0,0]","[1.0294800000045825,1.7794550000036224]","[""trial_ahead_box"",""trial_slight_right_box""]",0,34,34,25,1,campsite7.jpg,church3.jpg,checkoutcounter2.jpg,botanicalGarden4.jpg
Image_List_2,,,,,,,,,,,,,,,,44458,2020-11-23_15h59.01.059,lingCatScenes,2020.1.3,MacIntel,60,"[1680,939]",,,"[""trial_ahead_box""]",,,,,,,,,,,,casino1.jpg,space,1.596015,[0.012488351970181043],[-0.3040302183173589],[1],[0],[0],[1.1474200000012615],"[""trial_ahead_box""]",0,35,35,18,1,bleachers5.jpg,brewery4.jpg,castle2.jpg,basement6.jpg
Image_List_2,,,,,,,,,,,,,,,,44458,2020-11-23_15h59.01.059,lingCatScenes,2020.1.3,MacIntel,60,"[1680,939]",,,"[""trial_slight_right_box""]",,,,,,,,,,,,hardwarestore1.jpg,space,2.667605,"[0.1940728168264111,0.1940728168264111,0.1940728168264111]","[-0.3186484957401491,-0.3186484957401491,-0.3186484957401491]","[1,1,1]","[0,0,0]","[0,0,0]","[1.5468400000025895,1.9639549999992596,2.463465000000838]","[""trial_slight_right_box"",""trial_slight_right_box"",""trial_slight_right_box""]",0,36,36,52,1,gasstation7.jpg,frontFoyer6.jpg,highway.jpg,forestpath2.jpg
Image_List_2,,,,,,,,,,,,,,,,44458,2020-11-23_15h59.01.059,lingCatScenes,2020.1.3,MacIntel,60,"[1680,939]",,,"[""trial_ahead_box"",""trial_slight_right_box"",""trial_slight_left_box""]",,,,,,,,,,,,bambooforest.jpg,space,3.91942,"[0.0009692824813631523,0.20164819621938232,-0.19993843184238552]","[-0.2949697151224707,-0.28352968583599575,-0.3088475106496273]","[1,1,1]","[0,0,0]","[0,0,0]","[1.564635000002454,2.963074999999776,3.7637800000012476]","[""trial_ahead_box"",""trial_slight_right_box"",""trial_slight_left_box""]",0,37,37,5,1,artStudio3.jpg,auto_showroom4.jpg,attic4.jpg,amusement3.jpg
Image_List_2,,,,,,,,,,,,,,,,44458,2020-11-23_15h59.01.059,lingCatScenes,2020.1.3,MacIntel,60,"[1680,939]",,,"[""trial_ahead_box"",""trial_sharp_left_box"",""trial_sharp_right_box""]",,,,,,,,,,,,minigolf.jpg,space,4.283715,"[-0.0012563232161874334,-0.5908088724707136,0.6211478301384451]","[-0.3129992012779553,-0.30353517705005323,-0.28939114084132056]","[1,1,1]","[0,0,0]","[0,0,0]","[1.6146100000044044,2.6968450000059647,3.9301650000053314]","[""trial_ahead_box"",""trial_sharp_left_box"",""trial_sharp_right_box""]",0,38,38,62,1,hotellobby2.jpg,horsebarn8.jpg,lab3.jpg,hayfield7.jpg
Image_List_2,,,,,,,,,,,,,,,,44458,2020-11-23_15h59.01.059,lingCatScenes,2020.1.3,MacIntel,60,"[1680,939]",,,"[""trial_sharp_right_box""]",,,,,,,,,,,,pavilion5.jpg,space,10.850265,"[0.6086511581469649,0.478917066027689,0.3722959930777423,0.3689555045260916]","[-0.30436301916932906,-0.3079988684771033,-0.29700396033013843,-0.3096587127263046]","[1,1,1,1]","[0,0,0,0]","[0,0,0,0]","[3.780530000003864,5.946490000002086,7.229035000004046,8.678984999998761]","[""trial_sharp_right_box""]",0,39,39,71,1,metroInside2.jpg,metroInside3.jpg,museum3.jpg,jewelrystore.jpg
Image_List_2,,,,,,,,,,,,,,,,44458,2020-11-23_15h59.01.059,lingCatScenes,2020.1.3,MacIntel,60,"[1680,939]",,,"[""trial_ahead_box""]",,,,,,,,,,,,greenhouse5.jpg,space,3.09911,[0.015025958466453673],[-0.3009684504792332],[1],[0],[0],[2.014194999996107],"[""trial_ahead_box""]",0,40,40,49,1,frontDoor3.jpg,flowershop3.jpg,greenhouse.jpg,farm2.jpg
Image_List_2,,,,,,,,,,,,,,,,44458,2020-11-23_15h59.01.059,lingCatScenes,2020.1.3,MacIntel,60,"[1680,939]",,,"[""trial_left_box"",""trial_sharp_left_box""]",,,,,,,,,,,,farm3.jpg,space,6.200425,"[0.2300693889776358,-0.37446335862619806,-0.4661250332800852,-0.38054945420660274,-0.580970447284345]","[-0.2958516373801917,-0.284731928913738,-0.3148462460063898,-0.2974407614483493,-0.31378960330138445]","[1,1,1,1,1]","[0,0,0,0,0]","[0,0,0,0,0]","[2.5135799999989104,3.597979999998529,4.264469999994617,5.080349999996656,5.9640199999994365]","[""trial_left_box"",""trial_sharp_left_box""]",0,41,41,41,1,dugout4.jpg,drymountains3.jpg,fabricstore1.jpg,dentist2.jpg
Image_List_2,,,,,,,,,,,,,,,,44458,2020-11-23_15h59.01.059,lingCatScenes,2020.1.3,MacIntel,60,"[1680,939]",,,"[""trial_right_box"",""trial_sharp_right_box""]",,,,,,,,,,,,gasstation8.jpg,space,2.801935,"[0.4066784810969116,0.6239475173056444]","[-0.30125965122470716,-0.3202043397231097]","[1,1]","[0,0]","[0,0]","[1.9625100000047269,2.5130200000056675]","[""trial_right_box"",""trial_sharp_right_box""]",0,42,42,47,1,frontDoor.jpg,firestation4.jpg,fountain7.jpg,elevatorOutside2.jpg
Image_List_2,,,,,,,,,,,,,,,,44458,2020-11-23_15h59.01.059,lingCatScenes,2020.1.3,MacIntel,60,"[1680,939]",,,"[""trial_ahead_box""]",,,,,,,,,,,,warehouse2.jpg,space,1.117725,[0.006880657614483493],[-0.29276490947816824],[1],[0],[0],[0.9460249999976895],"[""trial_ahead_box""]",0,43,43,95,1,waitingroom2.jpg,stripmall6.jpg,weightroom4.jpg,tvstudio3.jpg
Image_List_2,,,,,,,,,,,,,,,,44458,2020-11-23_15h59.01.059,lingCatScenes,2020.1.3,MacIntel,60,"[1680,939]",,,"[""trial_ahead_box"",""trial_slight_right_box""]",,,,,,,,,,,,sidewalk2.jpg,space,1.68326,"[0.006880657614483493,0.20583316693290735]","[-0.29276490947816824,-0.30583566293929715]","[1,1]","[0,0]","[0,0]","[0.8138050000053454,1.4638950000006616]","[""trial_ahead_box"",""trial_slight_right_box""]",0,44,44,84,1,readingroom5.jpg,restaurant13.jpg,sandDunes_desert_outdoor.jpg,rooftop2.jpg
Image_List_2,,,,,,,,,,,,,,,,44458,2020-11-23_15h59.01.059,lingCatScenes,2020.1.3,MacIntel,60,"[1680,939]",,,"[""trial_slight_left_box""]",,,,,,,,,,,,jail1.jpg,space,2.383375,[-0.18587343583599575],[-0.30727918663471776],[1],[0],[0],[2.113189999996507],"[""trial_slight_left_box""]",0,45,45,57,1,hayfield5.jpg,hallway4.jpg,hut5.jpg,gazebo.jpg
Image_List_2,,,,,,,,,,,,,,,,44458,2020-11-23_15h59.01.059,lingCatScenes,2020.1.3,MacIntel,60,"[1680,939]",,,[],,,,,,,,,,,,dormroom9.jpg,space,2.13443,[0.2259509784345048],[-0.30140109158679446],[1],[0],[0],[1.8619350000009263],[],0,46,46,36,1,diner14.jpg,dining_car3.jpg,doctor1.jpg,checkoutcounter9.jpg
Image_List_2,,,,,,,,,,,,,,,,44458,2020-11-23_15h59.01.059,lingCatScenes,2020.1.3,MacIntel,60,"[1680,939]",,,"[""trial_ahead_box""]",,,,,,,,,,,,firestation3.jpg,space,2.582905,[0.023986621405750797],[-0.28231080271565495],[1],[0],[0],[2.39658000000054],"[""trial_ahead_box""]",0,47,47,42,1,exerciseequipment3.jpg,drymountains6.jpg,farm4.jpg,desertvegetation2.jpg
Image_List_2,,,,,,,,,,,,,,,,44458,2020-11-23_15h59.01.059,lingCatScenes,2020.1.3,MacIntel,60,"[1680,939]",,,[],,,,,,,,,,,,warehouseoutside1.jpg,space,0.616335,[],[],[],[],[],[],[],0,48,48,96,1,warehouse4.jpg,tenniscourt3.jpg,windmill1.jpg,warehouse1.jpg
Image_List_2,,,,,,,,,,,,,,,,44458,2020-11-23_15h59.01.059,lingCatScenes,2020.1.3,MacIntel,60,"[1680,939]",,,"[""trial_slight_left_box"",""trial_left_box"",""trial_right_box""]",,,,,,,,,,,,playground10.jpg,space,4.299775,"[-0.2014152356230032,-0.393649327742279,0.39080388045793396]","[-0.31484208599574015,-0.3029319755058573,-0.28827625798722045]","[1,1,1]","[0,0,0]","[0,0,0]","[2.612685000000056,3.0806400000001304,4.080054999998538]","[""trial_slight_left_box"",""trial_left_box"",""trial_right_box""]",0,49,49,74,1,newsstand2.jpg,observatory4.jpeg,operatingroom1.jpg,lightingstore2.jpg
Image_List_2,,,,,,,,,,,,,,,,44458,2020-11-23_15h59.01.059,lingCatScenes,2020.1.3,MacIntel,60,"[1680,939]",,,"[""trial_ahead_box""]",,,,,,,,,,,,cornfield4.jpg,space,1.567955,[0.01749700479233227],[-0.2834007255058573],[1],[0],[0],[1.2147299999995766],"[""trial_ahead_box""]",0,50,50,26,1,campusquad2.jpg,church4.jpg,churchInside3.jpg,botanicalGarden7.jpg
Image_List_2,,,,,,,,,,,,,,,,44458,2020-11-23_15h59.01.059,lingCatScenes,2020.1.3,MacIntel,60,"[1680,939]",,,"[""trial_slight_right_box"",""trial_right_box""]",,,,,,,,,,,,trainStation5.jpg,space,2.682845,"[0.21509335063897764,0.418705071884984]","[-0.29349707135250264,-0.2964007587859425]","[1,1]","[0,0]","[0,0]","[1.596790000003125,2.279650000003926]","[""trial_slight_right_box"",""trial_right_box""]",0,51,51,91,1,shoestore2.jpg,skatepark5.jpg,ticket_counter6.jpg,sidewalk3.jpg
Image_List_2,,,,,,,,,,,,,,,,44458,2020-11-23_15h59.01.059,lingCatScenes,2020.1.3,MacIntel,60,"[1680,939]",,,"[""trial_ahead_box""]",,,,,,,,,,,,pharmacy4.jpg,space,2.266045,[0.003635849307774228],[-0.2842535276890309],[1],[0],[0],[2.0139649999981657],"[""trial_ahead_box""]",0,52,52,72,1,museum5.jpg,musicStore1.jpg,museum4.jpg,kindergarten_classroom.jpg
Image_List_2,,,,,,,,,,,,,,,,44458,2020-11-23_15h59.01.059,lingCatScenes,2020.1.3,MacIntel,60,"[1680,939]",,,"[""trial_slight_right_box"",""trial_right_box""]",,,,,,,,,,,,church6.jpg,space,2.267325,"[0.18990032614483493,0.39064996006389774]","[-0.296629559371672,-0.3003527689030884]","[1,1]","[0,0]","[0,0]","[1.1304699999963077,2.031380000000354]","[""trial_slight_right_box"",""trial_right_box""]",0,53,53,22,1,bowlingalley5.jpg,cargo5.jpg,cemetery.jpg,bistrooutdoor6.jpg
Image_List_2,,,,,,,,,,,,,,,,44458,2020-11-23_15h59.01.059,lingCatScenes,2020.1.3,MacIntel,60,"[1680,939]",,,"[""trial_slight_left_box"",""trial_left_box"",""trial_right_box""]",,,,,,,,,,,,bedroom6.jpg,space,10.181915,"[-0.20644884850905218,-0.33791766506922255,-0.38326594116080936,0.40900808706070285]","[-0.29001930244941426,-0.3009892505324814,-0.30547374201277955,-0.31205071884984026]","[1,1,1,1]","[0,0,0,0]","[0,0,0,0]","[7.245860000002608,7.896385000000009,8.395785000000615,9.813320000001113]","[""trial_slight_left_box"",""trial_left_box"",""trial_right_box""]",0,54,54,12,1,baggageClaim4.jpg,bambooforest5.jpg,bleachers7.jpg,backyard5.jpg
Image_List_2,,,,,,,,,,,,,,,,44458,2020-11-23_15h59.01.059,lingCatScenes,2020.1.3,MacIntel,60,"[1680,939]",,,"[""trial_slight_left_box"",""trial_left_box""]",,,,,,,,,,,,office3.jpg,space,4.08304,"[-0.20646132854100108,-0.39185636315228967]","[-0.30410093849840253,-0.3015009318423855]","[1,1]","[0,0]","[0,0]","[2.5634750000026543,3.1471500000043306]","[""trial_slight_left_box"",""trial_left_box""]",0,55,55,66,1,library_aisle10.jpg,laundromat3.jpg,liquorstore.jpg,horsebarn9.jpg
Image_List_2,,,,,,,,,,,,,,,,44458,2020-11-23_15h59.01.059,lingCatScenes,2020.1.3,MacIntel,60,"[1680,939]",,,"[""trial_left_box"",""trial_sharp_left_box"",""trial_ahead_box""]",,,,,,,,,,,,volleyballcourt4.jpg,space,4.699615,"[-0.4155559438232162,-0.5863743011182109,-0.0029494475505857294]","[-0.2964340388711395,-0.2817700013312034,-0.3041383785942492]","[1,1,1]","[0,0,0]","[0,0,0]","[2.314044999999055,2.912624999997206,4.330985000000396]","[""trial_left_box"",""trial_sharp_left_box"",""trial_ahead_box""]",0,56,56,93,1,tollbooth8.jpg,staircase4.jpg,warehouseoutside2.jpg,tenniscourt.jpg
Image_List_2,,,,,,,,,,,,,,,,44458,2020-11-23_15h59.01.059,lingCatScenes,2020.1.3,MacIntel,60,"[1680,939]",,,"[""trial_ahead_box"",""trial_right_box""]",,,,,,,,,,,,cafeteria5.jpg,space,4.449275,"[0.027227269701810438,-0.0079955404685836,0.37494591986155484,0.4022522297657082]","[-0.3006938897763578,-0.2943706735889244,-0.2923405883919063,-0.3111521565495208]","[1,1,1,1]","[0,0,0,0]","[0,0,0,0]","[1.5618050000048243,2.4462350000031847,3.212125000005699,3.8276600000027656]","[""trial_ahead_box"",""trial_right_box""]",0,57,57,15,1,bambooforest4.jpg,bleachers8.jpg,cabinIndoors.jpg,bar8.jpg
Image_List_2,,,,,,,,,,,,,,,,44458,2020-11-23_15h59.01.059,lingCatScenes,2020.1.3,MacIntel,60,"[1680,939]",,,"[""trial_slight_left_box"",""trial_left_box""]",,,,,,,,,,,,sculpturegarden1.jpg,space,3.844825,"[-0.18802416134185304,-0.42630957135250264,-0.394319089456869]","[-0.2868160942492013,-0.32021681975505856,-0.31408496405750796]","[1,1,1]","[0,0,0]","[0,0,0]","[2.462370000001215,3.0980699999998933,3.596700000001988]","[""trial_slight_left_box"",""trial_left_box""]",0,58,58,83,1,readingroom1.jpg,promenadeDeck6.jpg,restaurant8.jpg,readingroom2.jpg
Image_List_2,,,,,,,,,,,,,,,,44458,2020-11-23_15h59.01.059,lingCatScenes,2020.1.3,MacIntel,60,"[1680,939]",,,"[""trial_slight_left_box"",""trial_sharp_left_box""]",,,,,,,,,,,,cafeteria6.jpg,space,2.74847,"[-0.2198940029286475,-0.58660726171459]","[-0.29016490282215124,-0.278716553514377]","[1,1]","[0,0]","[0,0]","[1.3788550000024316,2.5286100000010947]","[""trial_slight_left_box"",""trial_sharp_left_box""]",0,59,59,16,1,basement.jpg,breakroom2.jpg,campusquad4.jpg,barbershop2.jpg
Image_List_2,,,,,,,,,,,,,,,,44458,2020-11-23_15h59.01.059,lingCatScenes,2020.1.3,MacIntel,60,"[1680,939]",,,"[""trial_sharp_left_box"",""trial_sharp_right_box"",""trial_right_box""]",,,,,,,,,,,,racecarcourse2.jpg,space,5.949485,"[-0.5739109092119276,-0.586395101171459,0.594552882055378,0.4276241347177849,0.39559205271565495]","[-0.31813681443024494,-0.30917199148029817,-0.3055569422257721,-0.3007978900425985,-0.3061185436634718]","[1,1,1,1,1]","[0,0,0,0,0]","[0,0,0,0,0]","[1.7134900000020252,2.5968349999967586,3.979370000001154,4.9127299999966,5.7469199999978855]","[""trial_sharp_left_box"",""trial_sharp_right_box"",""trial_right_box""]",0,60,60,80,1,pavilion2.jpg,porch.jpg,poolhall5.jpg,parkinggarage4.jpg
Image_List_2,,,,,,,,,,,,,,,,44458,2020-11-23_15h59.01.059,lingCatScenes,2020.1.3,MacIntel,60,"[1680,939]",,,"[""trial_ahead_box""]",,,,,,,,,,,,cemetery6.jpg,space,5.683115,[0.0008985623003194888],[-0.28776873668796593],[1],[0],[0],[5.497665000002598],"[""trial_ahead_box""]",0,61,61,21,1,botanicalGarden6.jpg,campusquad3.jpg,cave5.jpg,beach1.jpeg
Image_List_2,,,,,,,,,,,,,,,,44458,2020-11-23_15h59.01.059,lingCatScenes,2020.1.3,MacIntel,60,"[1680,939]",,,[],,,,,,,,,,,,casino3.jpg,space,2.215895,[],[],[],[],[],[],[],0,62,62,19,1,boardwalk2.jpg,cafeteria1.jpg,castle4.jpg,basketballcourt.jpg
Image_List_2,,,,,,,,,,,,,,,,44458,2020-11-23_15h59.01.059,lingCatScenes,2020.1.3,MacIntel,60,"[1680,939]",,,"[""trial_sharp_left_box""]",,,,,,,,,,,,ruralroad5.jpg,space,3.11693,[-0.5869733426517572],[-0.3066011048988285],[1],[0],[0],[2.5617249999994556],"[""trial_sharp_left_box""]",0,63,63,81,1,promenadeDeck.jpg,promenadeDeck2.jpg,rainforest5.jpg,pasture8.jpg
Image_List_2,,,,,,,,,,,,,,,,44458,2020-11-23_15h59.01.059,lingCatScenes,2020.1.3,MacIntel,60,"[1680,939]",,,"[""trial_left_box"",""trial_sharp_left_box""]",,,,,,,,,,,,cliff3.jpg,space,8.466615,"[-0.4072775226304579,-0.5972111288604899]","[-0.310457434771033,-0.30406765841320554]","[1,1]","[0,0]","[0,0]","[3.6806849999993574,7.797194999999078]","[""trial_left_box"",""trial_sharp_left_box""]",0,64,64,24,1,campsite.jpg,cave6.jpg,cemetery5.jpg,boardwalk.jpg
Image_List_2,,,,,,,,,,,,,,,,44458,2020-11-23_15h59.01.059,lingCatScenes,2020.1.3,MacIntel,60,"[1680,939]",,,"[""trial_right_box""]",,,,,,,,,,,,frontFoyer4.jpg,space,2.200205,[0.40352519302449413],[-0.3110980764110756],[1],[0],[0],[1.9134200000042938],"[""trial_right_box""]",0,65,65,44,1,firestation2.jpg,elevatorOutside1.jpg,foodcourt6.jpg,dock2.jpg
Image_List_2,,,,,,,,,,,,,,,,44458,2020-11-23_15h59.01.059,lingCatScenes,2020.1.3,MacIntel,60,"[1680,939]",,,"[""trial_left_box"",""trial_sharp_right_box""]",,,,,,,,,,,,newsstand5.jpg,space,3.50016,"[-0.41507754259850904,0.6171250998402555]","[-0.31645617012779553,-0.3085646299254526]","[1,1]","[0,0]","[0,0]","[1.9473500000021886,3.1644400000005817]","[""trial_left_box"",""trial_sharp_right_box""]",0,66,66,64,1,igloo2.jpg,jewelrystore8.jpg,lab5.jpg,homegarage2.jpg
Image_List_2,,,,,,,,,,,,,,,,44458,2020-11-23_15h59.01.059,lingCatScenes,2020.1.3,MacIntel,60,"[1680,939]",,,"[""trial_sharp_right_box"",""trial_right_box""]",,,,,,,,,,,,lab1.jpg,space,3.634115,"[0.5848267771565495,0.40204006922257723]","[-0.29430411341853036,-0.30074380990415334]","[1,1]","[0,0]","[0,0]","[2.0804199999981847,3.381020000000717]","[""trial_sharp_right_box"",""trial_right_box""]",0,67,67,58,1,highway7.jpg,hedgemaze1.jpg,igloo4.jpg,grocerystore2.jpg
Image_List_2,,,,,,,,,,,,,,,,44458,2020-11-23_15h59.01.059,lingCatScenes,2020.1.3,MacIntel,60,"[1680,939]",,,[],,,,,,,,,,,,desertvegetation3.jpg,space,1.366745,[],[],[],[],[],[],[],0,68,68,30,1,courthouse1.jpg,clothingstore2.jpg,copyroom2.jpg,bus_shelter3.jpg
Image_List_2,,,,,,,,,,,,,,,,44458,2020-11-23_15h59.01.059,lingCatScenes,2020.1.3,MacIntel,60,"[1680,939]",,,"[""trial_ahead_box"",""trial_slight_right_box""]",,,,,,,,,,,,diningroom1.jpg,space,4.91616,"[-0.011281948881789138,0.22023512380191693]","[-0.30535726171459,-0.302823815228967]","[1,1]","[0,0]","[0,0]","[3.9128350000027012,4.664040000003297]","[""trial_ahead_box"",""trial_slight_right_box""]",0,69,69,33,1,deck1.jpg,courthouse2.jpg,diner10.jpg,cabinIndoors5.jpg
Image_List_2,,,,,,,,,,,,,,,,44458,2020-11-23_15h59.01.059,lingCatScenes,2020.1.3,MacIntel,60,"[1680,939]",,,"[""trial_ahead_box""]",,,,,,,,,,,,frontLawn5.jpg,space,1.63245,"[0.03702409478168264,0.021349174653887113]","[-0.30102253061767836,-0.30102253061767836]","[1,1]","[0,0]","[0,0]","[0.9637849999999162,1.379864999995334]","[""trial_ahead_box""]",0,70,70,46,1,flowershop.jpg,farmersmarket4.jpg,fountain4.jpg,dormroom6.jpg
Image_List_2,,,,,,,,,,,,,,,,44458,2020-11-23_15h59.01.059,lingCatScenes,2020.1.3,MacIntel,60,"[1680,939]",,,"[""trial_sharp_left_box"",""trial_left_box"",""trial_slight_left_box"",""trial_ahead_box"",""trial_slight_right_box"",""trial_right_box"",""trial_sharp_right_box""]",,,,,,,,,,,,farm1.jpg,space,8.73447,"[-0.5755000332800851,-0.39473093051118213,-0.14867462060702874,-0.18772048056443025,-0.03839689829605964,0.013212193823216187,0.20909461528221512,0.40975272896698617,0.5816485290202343,0.587867744941427]","[-0.28629609291799785,-0.28162024094781685,-0.2852144901490948,-0.29088042465388714,-0.29169994675186367,-0.30183789270500533,-0.310669595314164,-0.30385549787007454,-0.3276382787539936,-0.302823815228967]","[1,1,1,1,1,1,1,1,1,1]","[0,0,0,0,0,0,0,0,0,0]","[0,0,0,0,0,0,0,0,0,0]","[2.963880000003087,3.4629050000004327,4.362880000000587,5.080310000005056,5.6143500000036966,6.11349999999959,6.929585000005318,7.530865000000745,8.079864999999813,8.480525000006537]","[""trial_sharp_left_box"",""trial_left_box"",""trial_slight_left_box"",""trial_ahead_box"",""trial_slight_right_box"",""trial_right_box"",""trial_sharp_right_box""]",0,71,71,40,1,drycleaners4.jpg,drymountains.jpg,dugout1.jpg,clothingstore3.jpg
Image_List_2,,,,,,,,,,,,,,,,44458,2020-11-23_15h59.01.059,lingCatScenes,2020.1.3,MacIntel,60,"[1680,939]",,,"[""trial_ahead_box"",""trial_slight_right_box""]",,,,,,,,,,,,dancestudio5.jpg,space,2.777905,"[0.019252529286474973,0.21242678381256655]","[-0.29736588125665603,-0.31307408146964855]","[1,1]","[0,0]","[0,0]","[1.9147099999972852,2.513639999997281]","[""trial_ahead_box"",""trial_slight_right_box""]",0,72,72,28,1,churchInside1.jpg,citystreet10.jpg,clothingstore5.jpg,bridalboutique2.jpg
Image_List_2,,,,,,,,,,,,,,,,44458,2020-11-23_15h59.01.059,lingCatScenes,2020.1.3,MacIntel,60,"[1680,939]",,,[],,,,,,,,,,,,horsebarn11.jpg,space,1.931085,[-0.37488351970181044],[-0.2975905218317359],[1],[0],[0],[1.6956849999990027],[],0,73,73,54,1,greenhouse2.jpg,gazebo2.jpg,homegarage4.jpg,frontFoyer.jpg
Image_List_2,,,,,,,,,,,,,,,,44458,2020-11-23_15h59.01.059,lingCatScenes,2020.1.3,MacIntel,60,"[1680,939]",,,"[""trial_slight_right_box""]",,,,,,,,,,,,basketballcourt4.jpg,space,50.29845,[0.19625266240681577],[-0.2840205670926518],[1],[0],[0],[48.6299549999967],"[""trial_slight_right_box""]",0,74,74,11,1,backyard2.jpg,bambooforest3.jpg,baywindow5.jpg,backyard1.jpg
Image_List_2,,,,,,,,,,,,,,,,44458,2020-11-23_15h59.01.059,lingCatScenes,2020.1.3,MacIntel,60,"[1680,939]",,,"[""trial_slight_right_box"",""trial_right_box""]",,,,,,,,,,,,hut3.jpg,space,2.86219,"[0.20067475372736954,0.43157198482428116,0.38216769834930775]","[-0.32064114084132056,-0.3048580604366347,-0.2879184970713525]","[1,1,1]","[0,0,0]","[0,0,0]","[1.4795799999992596,2.0469200000005685,2.6129599999985658]","[""trial_slight_right_box"",""trial_right_box""]",0,75,75,56,1,grocerystore5.jpg,golfcourse10.jpg,hut1.jpg,gasstation2.jpg
Image_List_2,,,,,,,,,,,,,,,,44458,2020-11-23_15h59.01.059,lingCatScenes,2020.1.3,MacIntel,60,"[1680,939]",,,"[""trial_ahead_box""]",,,,,,,,,,,,wineVineyard8.jpg,space,1.68323,[-0.010017305644302449],[-0.2883053780617678],[1],[0],[0],[1.213219999997932],"[""trial_ahead_box""]",0,76,76,98,1,weightroom5.jpg,warehouse3.jpg,winebarrel4.jpg,winebarrel2.jpg
Image_List_2,,,,,,,,,,,,,,,,44458,2020-11-23_15h59.01.059,lingCatScenes,2020.1.3,MacIntel,60,"[1680,939]",,,"[""trial_slight_right_box"",""trial_right_box""]",,,,,,,,,,,,poolhall2.jpeg,space,3.816225,"[0.19849074813631523,0.38684771033013843]","[-0.3020833333333333,-0.310211994142705]","[1,1]","[0,0]","[0,0]","[2.681255000003148,3.5307150000007823]","[""trial_slight_right_box"",""trial_right_box""]",0,77,77,79,1,pasture.jpg,playground9.jpg,pier2.jpg,observatory2.jpg
Image_List_2,,,,,,,,,,,,,,,,44458,2020-11-23_15h59.01.059,lingCatScenes,2020.1.3,MacIntel,60,"[1680,939]",,,"[""trial_sharp_left_box"",""trial_left_box"",""trial_sharp_right_box""]",,,,,,,,,,,,courtroom3.jpg,space,6.649885,"[-0.5979848908413206,-0.3861987486687966,0.6351296259318424,0.592031915601704]","[-0.284877529286475,-0.2905892239084132,-0.3124833599574015,-0.3026574148029819]","[1,1,1,1]","[0,0,0,0]","[0,0,0,0]","[2.4805950000009034,4.996675000002142,6.014709999995716,6.497084999995195]","[""trial_sharp_left_box"",""trial_left_box"",""trial_sharp_right_box""]",0,78,78,27,1,castle3.jpg,churchInside4.jpg,closet.jpg,brewery2.jpg
Image_List_2,,,,,,,,,,,,,,,,44458,2020-11-23_15h59.01.059,lingCatScenes,2020.1.3,MacIntel,60,"[1680,939]",,,"[""trial_ahead_box"",""trial_slight_right_box"",""trial_right_box""]",,,,,,,,,,,,volleyballcourt.jpg,space,2.717265,"[0.015221478966986156,0.18183406549520767,0.4119408945686901]","[-0.2911841054313099,-0.29131306576144833,-0.30488718051118213]","[1,1,1]","[0,0,0]","[0,0,0]","[1.3475900000050842,1.8472499999990077,2.5479350000024397]","[""trial_ahead_box"",""trial_slight_right_box"",""trial_right_box""]",0,79,79,92,1,staircase.jpg,skatepark7.jpg,tvstudio2.jpg,soccerfield2.jpg
Image_List_2,,,,,,,,,,,,,,,,44458,2020-11-23_15h59.01.059,lingCatScenes,2020.1.3,MacIntel,60,"[1680,939]",,,"[""trial_slight_left_box""]",,,,,,,,,,,,eyeglassstore9.jpg,space,3.43375,[-0.18013262113951012],[-0.31003311368477104],[1],[0],[0],[1.7809500000003027],"[""trial_slight_left_box""]",0,80,80,39,1,driveway6.jpg,drycleaners6.jpg,drymountains5.jpg,cliff5.jpg
Image_List_2,,,,,,,,,,,,,,,,44458,2020-11-23_15h59.01.059,lingCatScenes,2020.1.3,MacIntel,60,"[1680,939]",,,"[""trial_left_box""]",,,,,,,,,,,,wineVineyard2.jpg,space,3.93404,[-0.40485223642172524],[-0.2904810636315229],[1],[0],[0],[3.3973850000036236],"[""trial_left_box""]",0,81,81,97,1,warehouseoutside4.jpg,waitingroom4.jpg,winebarrel3.jpg,warehouseoutside3.jpg
Image_List_2,,,,,,,,,,,,,,,,44458,2020-11-23_15h59.01.059,lingCatScenes,2020.1.3,MacIntel,60,"[1680,939]",,,"[""trial_right_box"",""trial_slight_right_box""]",,,,,,,,,,,,bowlingalley3.jpg,space,4.499235,"[0.3972144568690096,0.20968117678381257]","[-0.288783779286475,-0.283392405484558]","[1,1]","[0,0]","[0,0]","[3.3805799999972805,4.346044999998412]","[""trial_right_box"",""trial_slight_right_box""]",0,82,82,13,1,balconyIN2.jpg,beach2.jpg,boardwalk4.jpg,backyard6.jpg
Image_List_2,,,,,,,,,,,,,,,,44458,2020-11-23_15h59.01.059,lingCatScenes,2020.1.3,MacIntel,60,"[1680,939]",,,"[""trial_ahead_box""]",,,,,,,,,,,,dock3.jpg,space,1.333035,[-0.0013644834930777424],[-0.29682091986155484],[1],[0],[0],[1.163389999994365],"[""trial_ahead_box""]",0,83,83,35,1,deck5.jpg,cubicle7.jpg,dining_car6.jpg,carmechanic2.jpg
Image_List_2,,,,,,,,,,,,,,,,44458,2020-11-23_15h59.01.059,lingCatScenes,2020.1.3,MacIntel,60,"[1680,939]",,,"[""trial_left_box"",""trial_right_box""]",,,,,,,,,,,,banquetHall2.jpg,space,8.58369,"[-0.4241214057507987,0.3922016440362087]","[-0.30308173588924386,-0.30650958466453676]","[1,1]","[0,0]","[0,0]","[4.297944999998435,5.815119999999524]","[""trial_left_box"",""trial_right_box""]",0,84,84,6,1,ATM1.jpg,auto_showroom5.jpg,baggageClaim1.jpg,apartmentBuilding3.jpg
Image_List_2,,,,,,,,,,,,,,,,44458,2020-11-23_15h59.01.059,lingCatScenes,2020.1.3,MacIntel,60,"[1680,939]",,,"[""trial_slight_right_box"",""trial_right_box""]",,,,,,,,,,,,cave.jpg,space,6.08359,"[0.2213749667199148,0.413916899627263]","[-0.2912589856230032,-0.3072043064430245]","[1,1]","[0,0]","[0,0]","[4.962404999998398,5.629379999998491]","[""trial_slight_right_box"",""trial_right_box""]",0,85,85,20,1,boardwalk6.jpg,campsite3.jpg,cave4.jpg,basketballcourt7.jpg
Image_List_2,,,,,,,,,,,,,,,,44458,2020-11-23_15h59.01.059,lingCatScenes,2020.1.3,MacIntel,60,"[1680,939]",,,"[""trial_slight_left_box"",""trial_left_box""]",,,,,,,,,,,,museum6.jpg,space,2.317875,"[-0.19366929579339723,-0.3948515708200213]","[-0.2889751397763578,-0.29897164536741216]","[1,1]","[0,0]","[0,0]","[1.5628999999972848,2.1787199999962468]","[""trial_slight_left_box"",""trial_left_box""]",0,86,86,63,1,hut2.jpg,hotelRoom2.jpg,lab4.jpg,highway2.jpg
Image_List_2,,,,,,,,,,,,,,,,44458,2020-11-23_15h59.01.059,lingCatScenes,2020.1.3,MacIntel,60,"[1680,939]",,,"[""trial_sharp_right_box""]",,,,,,,,,,,,yogastudio4.jpg,space,2.333935,[0.607902356230032],[-0.3044004592651757],[1],[0],[0],[2.0149650000020074],"[""trial_sharp_right_box""]",0,87,87,99,1,wineVineyard9.jpg,windmill2.jpg,wrestlingring7.jpg,yogastudio1.jpg
Image_List_2,,,,,,,,,,,,,,,,44458,2020-11-23_15h59.01.059,lingCatScenes,2020.1.3,MacIntel,60,"[1680,939]",,,"[""trial_sharp_left_box"",""trial_sharp_right_box""]",,,,,,,,,,,,park7.jpg,space,7.194775,"[-0.6155900559105432,0.6170002995207667,0.6035010649627263]","[-0.31278288072417465,-0.3349765375399361,-0.3097918330670926]","[1,1,1]","[0,0,0]","[0,0,0]","[4.898045000001844,6.364314999998896,6.797200000000885]","[""trial_sharp_left_box"",""trial_sharp_right_box""]",0,88,88,67,1,library_aisle3.jpg,laundromat4.jpg,liquorstore2.jpg,hospitalroom2.jpg
Image_List_2,,,,,,,,,,,,,,,,44458,2020-11-23_15h59.01.059,lingCatScenes,2020.1.3,MacIntel,60,"[1680,939]",,,"[""trial_right_box"",""trial_sharp_right_box""]",,,,,,,,,,,,baggageClaim2.jpg,space,3.34966,"[0.400267904685836,0.5932507987220448]","[-0.31441776490947815,-0.30200845314164004]","[1,1]","[0,0]","[0,0]","[2.1464500000001863,2.929259999997271]","[""trial_right_box"",""trial_sharp_right_box""]",0,89,89,4,1,artStudio1.jpg,auto_showroom1.jpg,appleorchard3.jpg,alley4.jpg
Image_List_2,,,,,,,,,,,,,,,,44458,2020-11-23_15h59.01.059,lingCatScenes,2020.1.3,MacIntel,60,"[1680,939]",,,"[""trial_slight_right_box"",""trial_right_box""]",,,,,,,,,,,,alley2.jpg,space,3.65033,"[0.22443257454739085,0.41722410809371674]","[-0.30514094116080936,-0.31257488019169327]","[1,1]","[0,0]","[0,0]","[2.8800050000062356,3.463820000004489]","[""trial_slight_right_box"",""trial_right_box""]",0,90,90,0,1,airplanecabin1.jpg,appleorchard4.jpg,airplanecabin5.jpg,airplanecabin3.jpg
Image_List_2,,,,,,,,,,,,,,,,44458,2020-11-23_15h59.01.059,lingCatScenes,2020.1.3,MacIntel,60,"[1680,939]",,,"[""trial_ahead_box""]",,,,,,,,,,,,sandDunes_desert_outdoor9.jpg,space,2.748555,[-0.013137313631522896],[-0.2943290734824281],[1],[0],[0],[1.6788349999987986],"[""trial_ahead_box""]",0,91,91,82,1,publicrestroom2.jpg,promenadeDeck3.jpg,readingroom4.jpg,postoffice4.jpg
Image_List_2,,,,,,,,,,,,,,,,44458,2020-11-23_15h59.01.059,lingCatScenes,2020.1.3,MacIntel,60,"[1680,939]",,,"[""trial_slight_right_box"",""trial_ahead_box""]",,,,,,,,,,,,track.jpg,space,3.062125,"[0.2151183107028754,-0.004101770500532481]","[-0.3188190561767838,-0.31689713125665603]","[1,1]","[0,0]","[0,0]","[1.4801999999980353,1.9624999999941792]","[""trial_slight_right_box"",""trial_ahead_box""]",0,92,92,88,1,rooftop1.jpg,sculpturegarden4.jpg,soccerfield.jpg,sandbox.jpg
Image_List_2,,,,,,,,,,,,,,,,44458,2020-11-23_15h59.01.059,lingCatScenes,2020.1.3,MacIntel,60,"[1680,939]",,,"[""trial_sharp_left_box"",""trial_sharp_right_box"",""trial_left_box""]",,,,,,,,,,,,grocerystore6.jpg,space,6.285245,"[-0.63336994142705,-0.5846811767838126,0.6018703407880724,-0.40166566826411076]","[-0.27083749334398294,-0.3018503727369542,-0.3038471778487753,-0.31307408146964855]","[1,1,1,1]","[0,0,0,0]","[0,0,0,0]","[2.2129899999999907,2.813060000000405,4.396375000003786,5.979195000000004]","[""trial_sharp_left_box"",""trial_sharp_right_box"",""trial_left_box""]",0,93,93,50,1,frontLawn4.jpg,forestpath6.jpg,hallway2.jpg,fireplace4.jpg
Image_List_2,,,,,,,,,,,,,,,,44458,2020-11-23_15h59.01.059,lingCatScenes,2020.1.3,MacIntel,60,"[1680,939]",,,"[""trial_ahead_box"",""trial_slight_right_box""]",,,,,,,,,,,,elevatorOutside4.jpg,space,4.750425,"[0.03857577875399361,0.029864716453674122,0.0004950412673056443,0.19262929313099042]","[-0.2830055244941427,-0.28489000931842384,-0.2880266573482428,-0.28850505857294995]","[1,1,1,1]","[0,0,0,0]","[0,0,0,0]","[3.1467200000042794,3.564225000001784,3.963710000003516,4.580890000004615]","[""trial_ahead_box"",""trial_slight_right_box""]",0,94,94,38,1,dining_car2.jpg,dock1.jpg,driveway8.jpg,classroom1.jpg
Image_List_2,,,,,,,,,,,,,,,,44458,2020-11-23_15h59.01.059,lingCatScenes,2020.1.3,MacIntel,60,"[1680,939]",,,"[""trial_slight_right_box"",""trial_right_box"",""trial_ahead_box"",""trial_sharp_left_box""]",,,,,,,,,,,,arcade1.jpg,space,6.934415,"[0.17282348242811502,0.18314862886048988,0.4085796059637913,0.003432008785942492,-0.5982760915867945]","[-0.31266224041533547,-0.3070046259318424,-0.28957834132055377,-0.2982228434504792,-0.29432491347177847]","[1,1,1,1,1]","[0,0,0,0,0]","[0,0,0,0,0]","[2.180615000004991,2.7633300000018153,3.579745000002845,4.529705000000945,6.7474599999989096]","[""trial_slight_right_box"",""trial_right_box"",""trial_ahead_box"",""trial_sharp_left_box""]",0,95,95,2,1,alley1.jpg,applestore6.jpg,apartmentBuilding4.jpg,airportTerminal6.jpg
Image_List_2,,,,,,,,,,,,,,,,44458,2020-11-23_15h59.01.059,lingCatScenes,2020.1.3,MacIntel,60,"[1680,939]",,,"[""trial_ahead_box"",""trial_slight_right_box""]",,,,,,,,,,,,hotelRoom3.jpg,space,3.749195,"[0.029282314962726305,0.000711361821086262,0.19365681576144836]","[-0.3056110223642173,-0.31592784877529284,-0.30559854233226835]","[1,1,1]","[0,0,0]","[0,0,0]","[2.0135200000003124,2.6970499999951016,3.4977349999969647]","[""trial_ahead_box"",""trial_slight_right_box""]",0,96,96,55,1,greenmountains.jpg,gazebo5.jpg,hotelRoom7.jpg,frontLawn2.jpg
Image_List_2,,,,,,,,,,,,,,,,44458,2020-11-23_15h59.01.059,lingCatScenes,2020.1.3,MacIntel,60,"[1680,939]",,,"[""trial_ahead_box""]",,,,,,,,,,,,theater2.jpg,space,1.13378,[0.007891540202342917],[-0.31891889643237487],[1],[0],[0],[0.8983299999963492],"[""trial_ahead_box""]",0,97,97,87,1,restaurantkitchen2.jpg,savanna.jpg,sculpturegarden2.jpg,RVinside2.jpg
Image_List_2,,,,,,,,,,,,,,,,44458,2020-11-23_15h59.01.059,lingCatScenes,2020.1.3,MacIntel,60,"[1680,939]",,,"[""trial_ahead_box""]",,,,,,,,,,,,parkinglot.jpg,space,1.20005,[0.007891540202342917],[-0.31891889643237487],[1],[0],[0],[1.0127750000027618],"[""trial_ahead_box""]",0,98,98,68,1,liquorstore7.jpg,lightingstore4.jpg,lockerroom2.jpg,hospitalroom3.jpg
Image_List_2,,,,,,,,,,,,,,,,44458,2020-11-23_15h59.01.059,lingCatScenes,2020.1.3,MacIntel,60,"[1680,939]",,,"[""trial_ahead_box""]",,,,,,,,,,,,parkinglot2.jpg,space,2.368975,[-0.0115357095314164],[-0.3049620607028754],[1],[0],[0],[1.6142200000033426],"[""trial_ahead_box""]",0,99,99,69,1,liquorstore8.jpg,livingroom.jpg,metroInside1.jpg,icecream2.jpg
