image_list,key_resp_intructions.keys,key_resp_intructions.rt,key_resp_intructions_3.keys,key_resp_intructions_3.rt,PracticeComplete_2.keys,PracticeComplete_2.rt,PracticeComplete_3.keys,PracticeComplete_3.rt,demo_trials.thisRepN,demo_trials.thisTrialN,demo_trials.thisN,demo_trials.thisIndex,demo_trials.ran,demo_images,path_images,participant,date,expName,psychopyVersion,OS,frameRate,windowSize,practice_complete.keys,practice_complete.rt,boxes_checked,PracticeComplete.keys,PracticeComplete.rt,practice_trials.thisRepN,practice_trials.thisTrialN,practice_trials.thisN,practice_trials.thisIndex,practice_trials.ran,practice_images,feedback_images,key_resp_intructions_2.keys,key_resp_intructions_2.rt,Image_List_2,trial_complete.keys,trial_complete.rt,trial_mouse.x,trial_mouse.y,trial_mouse.leftButton,trial_mouse.midButton,trial_mouse.rightButton,trial_mouse.time,trial_mouse.clicked_name,trials.thisRepN,trials.thisTrialN,trials.thisN,trials.thisIndex,trials.ran,Image_List_1,Image_List_3,Image_List_4,Image_List_5,key_resp.keys,key_resp.rt
Image_List_2,space,5.194,space,2.142,space,4.42,space,0.988,0,0,0,4,1,left.jpg,left_path.jpg,44469,2020-11-10_23h55.15.152,lingCatScenes,2020.1.3,MacIntel,60,,,,,,,,,,,,,,,,,,,,,,,,,,,,,,,,,,,,
Image_List_2,,,,,space,0.924,space,1.012,0,1,1,0,1,ahead.jpg,ahead_path.jpg,44469,2020-11-10_23h55.15.152,lingCatScenes,2020.1.3,MacIntel,60,,,,,,,,,,,,,,,,,,,,,,,,,,,,,,,,,,,,
Image_List_2,,,,,space,0.58,space,0.623,0,2,2,1,1,ahead_left.jpg,ahead_left_path.jpg,44469,2020-11-10_23h55.15.152,lingCatScenes,2020.1.3,MacIntel,60,,,,,,,,,,,,,,,,,,,,,,,,,,,,,,,,,,,,
Image_List_2,,,,,space,0.854,space,0.809,0,3,3,3,1,ahead_right_left.jpg,ahead_right_left_path.jpg,44469,2020-11-10_23h55.15.152,lingCatScenes,2020.1.3,MacIntel,60,,,,,,,,,,,,,,,,,,,,,,,,,,,,,,,,,,,,
Image_List_2,,,,,space,0.735,space,0.748,0,4,4,6,1,right_left.jpg,right_left_path.jpg,44469,2020-11-10_23h55.15.152,lingCatScenes,2020.1.3,MacIntel,60,,,,,,,,,,,,,,,,,,,,,,,,,,,,,,,,,,,,
Image_List_2,,,,,space,0.746,space,0.858,0,5,5,2,1,ahead_right.jpg,ahead_right_path.jpg,44469,2020-11-10_23h55.15.152,lingCatScenes,2020.1.3,MacIntel,60,,,,,,,,,,,,,,,,,,,,,,,,,,,,,,,,,,,,
Image_List_2,,,,,space,0.738,space,38.373,0,6,6,5,1,right.jpg,right_path.jpg,44469,2020-11-10_23h55.15.152,lingCatScenes,2020.1.3,MacIntel,60,,,,,,,,,,,,,,,,,,,,,,,,,,,,,,,,,,,,
Image_List_2,,,,,,,,,,,,,,,,44469,2020-11-10_23h55.15.152,lingCatScenes,2020.1.3,MacIntel,60,"[1280,800]",space,1.353,[],space,0.683,0,0,0,0,1,ahead_2.jpg,ahead_2_path.jpg,,,,,,,,,,,,,,,,,,,,,,,
Image_List_2,,,,,,,,,,,,,,,,44469,2020-11-10_23h55.15.152,lingCatScenes,2020.1.3,MacIntel,60,"[1280,800]",space,0.819,[],space,0.686,0,1,1,4,1,left_2.jpg,left_2_path.jpg,,,,,,,,,,,,,,,,,,,,,,,
Image_List_2,,,,,,,,,,,,,,,,44469,2020-11-10_23h55.15.152,lingCatScenes,2020.1.3,MacIntel,60,"[1280,800]",space,0.69,[],space,0.983,0,2,2,1,1,ahead_left_2.jpg,ahead_left_2_path.jpg,,,,,,,,,,,,,,,,,,,,,,,
Image_List_2,,,,,,,,,,,,,,,,44469,2020-11-10_23h55.15.152,lingCatScenes,2020.1.3,MacIntel,60,"[1280,800]",space,5.532,[],space,0.627,0,3,3,5,1,right_2.jpg,right_2_path.jpg,,,,,,,,,,,,,,,,,,,,,,,
Image_List_2,,,,,,,,,,,,,,,,44469,2020-11-10_23h55.15.152,lingCatScenes,2020.1.3,MacIntel,60,"[1280,800]",space,1.038,[],space,0.559,0,4,4,3,1,ahead_right_left_2.jpg,ahead_right_left_2_path.jpg,,,,,,,,,,,,,,,,,,,,,,,
Image_List_2,,,,,,,,,,,,,,,,44469,2020-11-10_23h55.15.152,lingCatScenes,2020.1.3,MacIntel,60,"[1280,800]",space,0.572,[],space,0.506,0,5,5,2,1,ahead_right_2.jpg,ahead_right_2_path.jpg,,,,,,,,,,,,,,,,,,,,,,,
Image_List_2,,,,,,,,,,,,,,,,44469,2020-11-10_23h55.15.152,lingCatScenes,2020.1.3,MacIntel,60,"[1280,800]",space,0.469,[],space,0.505,0,6,6,6,1,right_left_2.jpg,right_left_2_path.jpg,,,,,,,,,,,,,,,,,,,,,,,
Image_List_2,,,,,,,,,,,,,,,,44469,2020-11-10_23h55.15.152,lingCatScenes,2020.1.3,MacIntel,60,"[1280,800]",,,[],,,,,,,,,,space,1.323,volleyballcourt.jpg,space,0.63,[],[],[],[],[],[],[],0,0,0,92,1,staircase.jpg,skatepark7.jpg,tvstudio2.jpg,soccerfield2.jpg,,
Image_List_2,,,,,,,,,,,,,,,,44469,2020-11-10_23h55.15.152,lingCatScenes,2020.1.3,MacIntel,60,"[1280,800]",,,[],,,,,,,,,,,,warehouse2.jpg,space,0.51,[],[],[],[],[],[],[],0,1,1,95,1,waitingroom2.jpg,stripmall6.jpg,weightroom4.jpg,tvstudio3.jpg,,
Image_List_2,,,,,,,,,,,,,,,,44469,2020-11-10_23h55.15.152,lingCatScenes,2020.1.3,MacIntel,60,"[1280,800]",,,[],,,,,,,,,,,,minigolf.jpg,space,0.456,[],[],[],[],[],[],[],0,2,2,62,1,hotellobby2.jpg,horsebarn8.jpg,lab3.jpg,hayfield7.jpg,,
Image_List_2,,,,,,,,,,,,,,,,44469,2020-11-10_23h55.15.152,lingCatScenes,2020.1.3,MacIntel,60,"[1280,800]",,,[],,,,,,,,,,,,bowlingalley3.jpg,space,0.509,[],[],[],[],[],[],[],0,3,3,13,1,balconyIN2.jpg,beach2.jpg,boardwalk4.jpg,backyard6.jpg,,
Image_List_2,,,,,,,,,,,,,,,,44469,2020-11-10_23h55.15.152,lingCatScenes,2020.1.3,MacIntel,60,"[1280,800]",,,[],,,,,,,,,,,,attic1.jpg,space,0.45,[],[],[],[],[],[],[],0,4,4,3,1,apartmentBuilding2.jpg,aquarium1.jpg,appleorchard2.jpg,alley3.jpg,,
Image_List_2,,,,,,,,,,,,,,,,44469,2020-11-10_23h55.15.152,lingCatScenes,2020.1.3,MacIntel,60,"[1280,800]",,,[],,,,,,,,,,,,horsebarn11.jpg,space,0.512,[],[],[],[],[],[],[],0,5,5,54,1,greenhouse2.jpg,gazebo2.jpg,homegarage4.jpg,frontFoyer.jpg,,
Image_List_2,,,,,,,,,,,,,,,,44469,2020-11-10_23h55.15.152,lingCatScenes,2020.1.3,MacIntel,60,"[1280,800]",,,[],,,,,,,,,,,,arcade1.jpg,space,0.508,[],[],[],[],[],[],[],0,6,6,2,1,alley1.jpg,applestore6.jpg,apartmentBuilding4.jpg,airportTerminal6.jpg,,
Image_List_2,,,,,,,,,,,,,,,,44469,2020-11-10_23h55.15.152,lingCatScenes,2020.1.3,MacIntel,60,"[1280,800]",,,[],,,,,,,,,,,,cliff3.jpg,space,0.564,[],[],[],[],[],[],[],0,7,7,24,1,campsite.jpg,cave6.jpg,cemetery5.jpg,boardwalk.jpg,,
Image_List_2,,,,,,,,,,,,,,,,44469,2020-11-10_23h55.15.152,lingCatScenes,2020.1.3,MacIntel,60,"[1280,800]",,,[],,,,,,,,,,,,ruralroad5.jpg,space,0.446,[],[],[],[],[],[],[],0,8,8,81,1,promenadeDeck.jpg,promenadeDeck2.jpg,rainforest5.jpg,pasture8.jpg,,
Image_List_2,,,,,,,,,,,,,,,,44469,2020-11-10_23h55.15.152,lingCatScenes,2020.1.3,MacIntel,60,"[1280,800]",,,[],,,,,,,,,,,,cornfield4.jpg,space,0.504,[],[],[],[],[],[],[],0,9,9,26,1,campusquad2.jpg,church4.jpg,churchInside3.jpg,botanicalGarden7.jpg,,
Image_List_2,,,,,,,,,,,,,,,,44469,2020-11-10_23h55.15.152,lingCatScenes,2020.1.3,MacIntel,60,"[1280,800]",,,[],,,,,,,,,,,,wineVineyard8.jpg,space,0.463,[],[],[],[],[],[],[],0,10,10,98,1,weightroom5.jpg,warehouse3.jpg,winebarrel4.jpg,winebarrel2.jpg,,
Image_List_2,,,,,,,,,,,,,,,,44469,2020-11-10_23h55.15.152,lingCatScenes,2020.1.3,MacIntel,60,"[1280,800]",,,[],,,,,,,,,,,,basketballcourt4.jpg,space,0.403,[],[],[],[],[],[],[],0,11,11,11,1,backyard2.jpg,bambooforest3.jpg,baywindow5.jpg,backyard1.jpg,,
Image_List_2,,,,,,,,,,,,,,,,44469,2020-11-10_23h55.15.152,lingCatScenes,2020.1.3,MacIntel,60,"[1280,800]",,,[],,,,,,,,,,,,playroom6.jpg,space,0.453,[],[],[],[],[],[],[],0,12,12,77,1,parkinggarage2.jpg,pasture9.jpg,park8.jpg,mallindoor6.jpg,,
Image_List_2,,,,,,,,,,,,,,,,44469,2020-11-10_23h55.15.152,lingCatScenes,2020.1.3,MacIntel,60,"[1280,800]",,,[],,,,,,,,,,,,barbershop3.jpg,space,0.51,[],[],[],[],[],[],[],0,13,13,10,1,backstage2.jpg,ballroom4.jpg,basketballcourt3.jpg,ATM4.jpg,,
Image_List_2,,,,,,,,,,,,,,,,44469,2020-11-10_23h55.15.152,lingCatScenes,2020.1.3,MacIntel,60,"[1280,800]",,,[],,,,,,,,,,,,theater2.jpg,space,3.124,[],[],[],[],[],[],[],0,14,14,87,1,restaurantkitchen2.jpg,savanna.jpg,sculpturegarden2.jpg,RVinside2.jpg,,
Image_List_2,,,,,,,,,,,,,,,,44469,2020-11-10_23h55.15.152,lingCatScenes,2020.1.3,MacIntel,60,"[1280,800]",,,[],,,,,,,,,,,,metroInside4.jpg,space,0.451,[],[],[],[],[],[],[],0,15,15,61,1,HorseRaceTrack.jpg,homegarden6.jpg,kindergarten_classroom7.jpg,hayfield6.jpg,,
Image_List_2,,,,,,,,,,,,,,,,44469,2020-11-10_23h55.15.152,lingCatScenes,2020.1.3,MacIntel,60,"[1280,800]",,,[],,,,,,,,,,,,pavilion5.jpg,space,0.163,[],[],[],[],[],[],[],0,16,16,71,1,metroInside2.jpg,metroInside3.jpg,museum3.jpg,jewelrystore.jpg,,
Image_List_2,,,,,,,,,,,,,,,,44469,2020-11-10_23h55.15.152,lingCatScenes,2020.1.3,MacIntel,60,"[1280,800]",,,[],,,,,,,,,,,,poolhall1.jpg,space,0.219,[],[],[],[],[],[],[],0,17,17,78,1,parkinglot3.jpg,pier5.jpg,pavilion3.jpg,observatory1.jpg,,
Image_List_2,,,,,,,,,,,,,,,,44469,2020-11-10_23h55.15.152,lingCatScenes,2020.1.3,MacIntel,60,"[1280,800]",,,[],,,,,,,,,,,,gasstation8.jpg,space,0.103,[],[],[],[],[],[],[],0,18,18,47,1,frontDoor.jpg,firestation4.jpg,fountain7.jpg,elevatorOutside2.jpg,,
Image_List_2,,,,,,,,,,,,,,,,44469,2020-11-10_23h55.15.152,lingCatScenes,2020.1.3,MacIntel,60,"[1280,800]",,,[],,,,,,,,,,,,playroom4.jpg,space,0.165,[],[],[],[],[],[],[],0,19,19,76,1,parkinggarage.jpg,parkinggarage3.jpg,park2.jpg,lookout4.jpg,,
Image_List_2,,,,,,,,,,,,,,,,44469,2020-11-10_23h55.15.152,lingCatScenes,2020.1.3,MacIntel,60,"[1280,800]",,,[],,,,,,,,,,,,trainStation5.jpg,space,0.156,[],[],[],[],[],[],[],0,20,20,91,1,shoestore2.jpg,skatepark5.jpg,ticket_counter6.jpg,sidewalk3.jpg,,
Image_List_2,,,,,,,,,,,,,,,,44469,2020-11-10_23h55.15.152,lingCatScenes,2020.1.3,MacIntel,60,"[1280,800]",,,[],,,,,,,,,,,,hut3.jpg,space,0.104,[],[],[],[],[],[],[],0,21,21,56,1,grocerystore5.jpg,golfcourse10.jpg,hut1.jpg,gasstation2.jpg,,
Image_List_2,,,,,,,,,,,,,,,,44469,2020-11-10_23h55.15.152,lingCatScenes,2020.1.3,MacIntel,60,"[1280,800]",,,[],,,,,,,,,,,,pavilion.jpg,space,0.221,[],[],[],[],[],[],[],0,22,22,70,1,lockerroom4.jpg,lockerroom3.jpg,minigolf8.jpg,igloo.jpg,,
Image_List_2,,,,,,,,,,,,,,,,44469,2020-11-10_23h55.15.152,lingCatScenes,2020.1.3,MacIntel,60,"[1280,800]",,,[],,,,,,,,,,,,courtroom3.jpg,space,0.105,[],[],[],[],[],[],[],0,23,23,27,1,castle3.jpg,churchInside4.jpg,closet.jpg,brewery2.jpg,,
Image_List_2,,,,,,,,,,,,,,,,44469,2020-11-10_23h55.15.152,lingCatScenes,2020.1.3,MacIntel,60,"[1280,800]",,,[],,,,,,,,,,,,deck2.jpg,space,0.161,[],[],[],[],[],[],[],0,24,24,29,1,cornfield2.jpg,cliff2.jpg,constructionSite4.jpg,bridalboutique3.jpg,,
Image_List_2,,,,,,,,,,,,,,,,44469,2020-11-10_23h55.15.152,lingCatScenes,2020.1.3,MacIntel,60,"[1280,800]",,,[],,,,,,,,,,,,frontFoyer7.jpg,space,0.162,[],[],[],[],[],[],[],0,25,25,45,1,fittingroom2.jpg,factory1.jpg,forestpath4.jpg,dock4.jpg,,
Image_List_2,,,,,,,,,,,,,,,,44469,2020-11-10_23h55.15.152,lingCatScenes,2020.1.3,MacIntel,60,"[1280,800]",,,[],,,,,,,,,,,,volleyballcourt4.jpg,space,0.044,[],[],[],[],[],[],[],0,26,26,93,1,tollbooth8.jpg,staircase4.jpg,warehouseoutside2.jpg,tenniscourt.jpg,,
Image_List_2,,,,,,,,,,,,,,,,44469,2020-11-10_23h55.15.152,lingCatScenes,2020.1.3,MacIntel,60,"[1280,800]",,,[],,,,,,,,,,,,park7.jpg,space,0.173,[],[],[],[],[],[],[],0,27,27,67,1,library_aisle3.jpg,laundromat4.jpg,liquorstore2.jpg,hospitalroom2.jpg,,
Image_List_2,,,,,,,,,,,,,,,,44469,2020-11-10_23h55.15.152,lingCatScenes,2020.1.3,MacIntel,60,"[1280,800]",,,[],,,,,,,,,,,,eyeglassstore9.jpg,space,0.159,[],[],[],[],[],[],[],0,28,28,39,1,driveway6.jpg,drycleaners6.jpg,drymountains5.jpg,cliff5.jpg,,
Image_List_2,,,,,,,,,,,,,,,,44469,2020-11-10_23h55.15.152,lingCatScenes,2020.1.3,MacIntel,60,"[1280,800]",,,[],,,,,,,,,,,,forestpath10.jpg,space,0.16,[],[],[],[],[],[],[],0,29,29,43,1,exerciseequipment5.jpg,dugout2.jpg,foodcourt.jpg,diningroom3.jpg,,
Image_List_2,,,,,,,,,,,,,,,,44469,2020-11-10_23h55.15.152,lingCatScenes,2020.1.3,MacIntel,60,"[1280,800]",,,[],,,,,,,,,,,,hallway5.jpg,space,0.156,[],[],[],[],[],[],[],0,30,30,51,1,gasstation6.jpg,frontDoor5.jpg,hayfield4.jpg,firestation5.jpg,,
Image_List_2,,,,,,,,,,,,,,,,44469,2020-11-10_23h55.15.152,lingCatScenes,2020.1.3,MacIntel,60,"[1280,800]",,,[],,,,,,,,,,,,sandDunes_desert_outdoor9.jpg,space,0.099,[],[],[],[],[],[],[],0,31,31,82,1,publicrestroom2.jpg,promenadeDeck3.jpg,readingroom4.jpg,postoffice4.jpg,,
Image_List_2,,,,,,,,,,,,,,,,44469,2020-11-10_23h55.15.152,lingCatScenes,2020.1.3,MacIntel,60,"[1280,800]",,,[],,,,,,,,,,,,track5.jpg,space,0.102,[],[],[],[],[],[],[],0,32,32,89,1,ruralroad7.jpg,ShowJumping7.jpg,staircase7.jpg,sculpturegarden3.jpg,,
Image_List_2,,,,,,,,,,,,,,,,44469,2020-11-10_23h55.15.152,lingCatScenes,2020.1.3,MacIntel,60,"[1280,800]",,,[],,,,,,,,,,,,sidewalk2.jpg,space,1.835,[],[],[],[],[],[],[],0,33,33,84,1,readingroom5.jpg,restaurant13.jpg,sandDunes_desert_outdoor.jpg,rooftop2.jpg,,
Image_List_2,,,,,,,,,,,,,,,,44469,2020-11-10_23h55.15.152,lingCatScenes,2020.1.3,MacIntel,60,"[1280,800]",,,[],,,,,,,,,,,,diner12.jpg,space,0.453,[],[],[],[],[],[],[],0,34,34,32,1,dancestudio6.jpg,constructionSite2.jpg,dentist4.jpg,cabin4.jpg,,
Image_List_2,,,,,,,,,,,,,,,,44469,2020-11-10_23h55.15.152,lingCatScenes,2020.1.3,MacIntel,60,"[1280,800]",,,[],,,,,,,,,,,,playground10.jpg,space,0.219,[],[],[],[],[],[],[],0,35,35,74,1,newsstand2.jpg,observatory4.jpeg,operatingroom1.jpg,lightingstore2.jpg,,
Image_List_2,,,,,,,,,,,,,,,,44469,2020-11-10_23h55.15.152,lingCatScenes,2020.1.3,MacIntel,60,"[1280,800]",,,[],,,,,,,,,,,,bar2.jpg,space,0.105,[],[],[],[],[],[],[],0,36,36,9,1,auto_showroom3.jpg,ballroom2.jpg,basement5.jpg,arcade2.jpg,,
Image_List_2,,,,,,,,,,,,,,,,44469,2020-11-10_23h55.15.152,lingCatScenes,2020.1.3,MacIntel,60,"[1280,800]",,,[],,,,,,,,,,,,conference3.jpg,space,0.156,[],[],[],[],[],[],[],0,37,37,25,1,campsite7.jpg,church3.jpg,checkoutcounter2.jpg,botanicalGarden4.jpg,,
Image_List_2,,,,,,,,,,,,,,,,44469,2020-11-10_23h55.15.152,lingCatScenes,2020.1.3,MacIntel,60,"[1280,800]",,,[],,,,,,,,,,,,frontLawn5.jpg,space,0.162,[],[],[],[],[],[],[],0,38,38,46,1,flowershop.jpg,farmersmarket4.jpg,fountain4.jpg,dormroom6.jpg,,
Image_List_2,,,,,,,,,,,,,,,,44469,2020-11-10_23h55.15.152,lingCatScenes,2020.1.3,MacIntel,60,"[1280,800]",,,[],,,,,,,,,,,,driveway4.jpg,space,0.159,[],[],[],[],[],[],[],0,39,39,37,1,dining_car.jpg,dinosaur4.jpg,driveway7.jpg,citystreet9.jpg,,
Image_List_2,,,,,,,,,,,,,,,,44469,2020-11-10_23h55.15.152,lingCatScenes,2020.1.3,MacIntel,60,"[1280,800]",,,[],,,,,,,,,,,,farm3.jpg,space,0.102,[],[],[],[],[],[],[],0,40,40,41,1,dugout4.jpg,drymountains3.jpg,fabricstore1.jpg,dentist2.jpg,,
Image_List_2,,,,,,,,,,,,,,,,44469,2020-11-10_23h55.15.152,lingCatScenes,2020.1.3,MacIntel,60,"[1280,800]",,,[],,,,,,,,,,,,dormroom9.jpg,space,0.109,[],[],[],[],[],[],[],0,41,41,36,1,diner14.jpg,dining_car3.jpg,doctor1.jpg,checkoutcounter9.jpg,,
Image_List_2,,,,,,,,,,,,,,,,44469,2020-11-10_23h55.15.152,lingCatScenes,2020.1.3,MacIntel,60,"[1280,800]",,,[],,,,,,,,,,,,yogastudio4.jpg,space,0.102,[],[],[],[],[],[],[],0,42,42,99,1,wineVineyard9.jpg,windmill2.jpg,wrestlingring7.jpg,yogastudio1.jpg,,
Image_List_2,,,,,,,,,,,,,,,,44469,2020-11-10_23h55.15.152,lingCatScenes,2020.1.3,MacIntel,60,"[1280,800]",,,[],,,,,,,,,,,,frontFoyer4.jpg,space,0.161,[],[],[],[],[],[],[],0,43,43,44,1,firestation2.jpg,elevatorOutside1.jpg,foodcourt6.jpg,dock2.jpg,,
Image_List_2,,,,,,,,,,,,,,,,44469,2020-11-10_23h55.15.152,lingCatScenes,2020.1.3,MacIntel,60,"[1280,800]",,,[],,,,,,,,,,,,dancestudio5.jpg,space,0.113,[],[],[],[],[],[],[],0,44,44,28,1,churchInside1.jpg,citystreet10.jpg,clothingstore5.jpg,bridalboutique2.jpg,,
Image_List_2,,,,,,,,,,,,,,,,44469,2020-11-10_23h55.15.152,lingCatScenes,2020.1.3,MacIntel,60,"[1280,800]",,,[],,,,,,,,,,,,parkinglot.jpg,space,0.158,[],[],[],[],[],[],[],0,45,45,68,1,liquorstore7.jpg,lightingstore4.jpg,lockerroom2.jpg,hospitalroom3.jpg,,
Image_List_2,,,,,,,,,,,,,,,,44469,2020-11-10_23h55.15.152,lingCatScenes,2020.1.3,MacIntel,60,"[1280,800]",,,[],,,,,,,,,,,,newsstand7.jpg,space,0.157,[],[],[],[],[],[],[],0,46,46,65,1,igloo5.jpg,laundromat2.jpeg,labClass7.jpg,homeoffice8.jpg,,
Image_List_2,,,,,,,,,,,,,,,,44469,2020-11-10_23h55.15.152,lingCatScenes,2020.1.3,MacIntel,60,"[1280,800]",,,[],,,,,,,,,,,,cafeteria5.jpg,space,0.16,[],[],[],[],[],[],[],0,47,47,15,1,bambooforest4.jpg,bleachers8.jpg,cabinIndoors.jpg,bar8.jpg,,
Image_List_2,,,,,,,,,,,,,,,,44469,2020-11-10_23h55.15.152,lingCatScenes,2020.1.3,MacIntel,60,"[1280,800]",,,[],,,,,,,,,,,,lightingstore3.jpg,space,0.045,[],[],[],[],[],[],[],0,48,48,60,1,hometheater2.jpg,homegarage.jpg,kindergarten_classroom6.jpg,hallway.jpg,,
Image_List_2,,,,,,,,,,,,,,,,44469,2020-11-10_23h55.15.152,lingCatScenes,2020.1.3,MacIntel,60,"[1280,800]",,,[],,,,,,,,,,,,church6.jpg,space,0.219,[],[],[],[],[],[],[],0,49,49,22,1,bowlingalley5.jpg,cargo5.jpg,cemetery.jpg,bistrooutdoor6.jpg,,
Image_List_2,,,,,,,,,,,,,,,,44469,2020-11-10_23h55.15.152,lingCatScenes,2020.1.3,MacIntel,60,"[1280,800]",,,[],,,,,,,,,,,,farm1.jpg,space,0.107,[],[],[],[],[],[],[],0,50,50,40,1,drycleaners4.jpg,drymountains.jpg,dugout1.jpg,clothingstore3.jpg,,
Image_List_2,,,,,,,,,,,,,,,,44469,2020-11-10_23h55.15.152,lingCatScenes,2020.1.3,MacIntel,60,"[1280,800]",,,[],,,,,,,,,,,,track.jpg,space,0.101,[],[],[],[],[],[],[],0,51,51,88,1,rooftop1.jpg,sculpturegarden4.jpg,soccerfield.jpg,sandbox.jpg,,
Image_List_2,,,,,,,,,,,,,,,,44469,2020-11-10_23h55.15.152,lingCatScenes,2020.1.3,MacIntel,60,"[1280,800]",,,[],,,,,,,,,,,,playground6.jpg,space,0.163,[],[],[],[],[],[],[],0,52,52,75,1,pantry5.jpg,operatingroom4.jpg,park.jpg,lockerroom.jpg,,
Image_List_2,,,,,,,,,,,,,,,,44469,2020-11-10_23h55.15.152,lingCatScenes,2020.1.3,MacIntel,60,"[1280,800]",,,[],,,,,,,,,,,,racecarcourse2.jpg,space,0.159,[],[],[],[],[],[],[],0,53,53,80,1,pavilion2.jpg,porch.jpg,poolhall5.jpg,parkinggarage4.jpg,,
Image_List_2,,,,,,,,,,,,,,,,44469,2020-11-10_23h55.15.152,lingCatScenes,2020.1.3,MacIntel,60,"[1280,800]",,,[],,,,,,,,,,,,warehouseoutside1.jpg,space,0.103,[],[],[],[],[],[],[],0,54,54,96,1,warehouse4.jpg,tenniscourt3.jpg,windmill1.jpg,warehouse1.jpg,,
Image_List_2,,,,,,,,,,,,,,,,44469,2020-11-10_23h55.15.152,lingCatScenes,2020.1.3,MacIntel,60,"[1280,800]",,,[],,,,,,,,,,,,trainStation1.jpg,space,0.162,[],[],[],[],[],[],[],0,55,55,90,1,savanna5.jpg,sidewalk1.jpg,stripmall3.jpg,shoestore4.jpg,,
Image_List_2,,,,,,,,,,,,,,,,44469,2020-11-10_23h55.15.152,lingCatScenes,2020.1.3,MacIntel,60,"[1280,800]",,,[],,,,,,,,,,,,banquetHall6.jpg,space,0.161,[],[],[],[],[],[],[],0,56,56,8,1,attic3.jpg,balconyIN.jpg,bar.jpg,applestore4.jpg,,
Image_List_2,,,,,,,,,,,,,,,,44469,2020-11-10_23h55.15.152,lingCatScenes,2020.1.3,MacIntel,60,"[1280,800]",,,[],,,,,,,,,,,,lab1.jpg,space,0.108,[],[],[],[],[],[],[],0,57,57,58,1,highway7.jpg,hedgemaze1.jpg,igloo4.jpg,grocerystore2.jpg,,
Image_List_2,,,,,,,,,,,,,,,,44469,2020-11-10_23h55.15.152,lingCatScenes,2020.1.3,MacIntel,60,"[1280,800]",,,[],,,,,,,,,,,,hardwarestore1.jpg,space,0.157,[],[],[],[],[],[],[],0,58,58,52,1,gasstation7.jpg,frontFoyer6.jpg,highway.jpg,forestpath2.jpg,,
Image_List_2,,,,,,,,,,,,,,,,44469,2020-11-10_23h55.15.152,lingCatScenes,2020.1.3,MacIntel,60,"[1280,800]",,,[],,,,,,,,,,,,bambooforest.jpg,space,0.159,[],[],[],[],[],[],[],0,59,59,5,1,artStudio3.jpg,auto_showroom4.jpg,attic4.jpg,amusement3.jpg,,
Image_List_2,,,,,,,,,,,,,,,,44469,2020-11-10_23h55.15.152,lingCatScenes,2020.1.3,MacIntel,60,"[1280,800]",,,[],,,,,,,,,,,,apartmentBuilding1.jpg,space,0.103,[],[],[],[],[],[],[],0,60,60,1,1,airportTerminal4.jpg,applestore1.jpg,airportTerminal3.jpg,airportTerminal2.jpg,,
Image_List_2,,,,,,,,,,,,,,,,44469,2020-11-10_23h55.15.152,lingCatScenes,2020.1.3,MacIntel,60,"[1280,800]",,,[],,,,,,,,,,,,banquetHall2.jpg,space,0.162,[],[],[],[],[],[],[],0,61,61,6,1,ATM1.jpg,auto_showroom5.jpg,baggageClaim1.jpg,apartmentBuilding3.jpg,,
Image_List_2,,,,,,,,,,,,,,,,44469,2020-11-10_23h55.15.152,lingCatScenes,2020.1.3,MacIntel,60,"[1280,800]",,,[],,,,,,,,,,,,diningroom5.jpg,space,0.111,[],[],[],[],[],[],[],0,62,62,34,1,deck4.jpg,courthouse4.jpg,diner11.jpg,campusquad1.jpg,,
Image_List_2,,,,,,,,,,,,,,,,44469,2020-11-10_23h55.15.152,lingCatScenes,2020.1.3,MacIntel,60,"[1280,800]",,,[],,,,,,,,,,,,cemetery6.jpg,space,0.159,[],[],[],[],[],[],[],0,63,63,21,1,botanicalGarden6.jpg,campusquad3.jpg,cave5.jpg,beach1.jpeg,,
Image_List_2,,,,,,,,,,,,,,,,44469,2020-11-10_23h55.15.152,lingCatScenes,2020.1.3,MacIntel,60,"[1280,800]",,,[],,,,,,,,,,,,bedroom6.jpg,space,0.16,[],[],[],[],[],[],[],0,64,64,12,1,baggageClaim4.jpg,bambooforest5.jpg,bleachers7.jpg,backyard5.jpg,,
Image_List_2,,,,,,,,,,,,,,,,44469,2020-11-10_23h55.15.152,lingCatScenes,2020.1.3,MacIntel,60,"[1280,800]",,,[],,,,,,,,,,,,museum6.jpg,space,0.159,[],[],[],[],[],[],[],0,65,65,63,1,hut2.jpg,hotelRoom2.jpg,lab4.jpg,highway2.jpg,,
Image_List_2,,,,,,,,,,,,,,,,44469,2020-11-10_23h55.15.152,lingCatScenes,2020.1.3,MacIntel,60,"[1280,800]",,,[],,,,,,,,,,,,photographer_studio2.jpg,space,0.171,[],[],[],[],[],[],[],0,66,66,73,1,musicStore3.jpg,nursery.jpg,nursery4.jpg,library_aisle9.jpg,,
Image_List_2,,,,,,,,,,,,,,,,44469,2020-11-10_23h55.15.152,lingCatScenes,2020.1.3,MacIntel,60,"[1280,800]",,,[],,,,,,,,,,,,wineVineyard2.jpg,space,0.107,[],[],[],[],[],[],[],0,67,67,97,1,warehouseoutside4.jpg,waitingroom4.jpg,winebarrel3.jpg,warehouseoutside3.jpg,,
Image_List_2,,,,,,,,,,,,,,,,44469,2020-11-10_23h55.15.152,lingCatScenes,2020.1.3,MacIntel,60,"[1280,800]",,,[],,,,,,,,,,,,homeoffice.jpg,space,0.157,[],[],[],[],[],[],[],0,68,68,53,1,gazebo3.jpg,frontLawn3.jpg,homegarage3.jpg,fountain.jpg,,
Image_List_2,,,,,,,,,,,,,,,,44469,2020-11-10_23h55.15.152,lingCatScenes,2020.1.3,MacIntel,60,"[1280,800]",,,[],,,,,,,,,,,,casino3.jpg,space,0.217,[],[],[],[],[],[],[],0,69,69,19,1,boardwalk2.jpg,cafeteria1.jpg,castle4.jpg,basketballcourt.jpg,,
Image_List_2,,,,,,,,,,,,,,,,44469,2020-11-10_23h55.15.152,lingCatScenes,2020.1.3,MacIntel,60,"[1280,800]",,,[],,,,,,,,,,,,grocerystore6.jpg,space,0.109,[],[],[],[],[],[],[],0,70,70,50,1,frontLawn4.jpg,forestpath6.jpg,hallway2.jpg,fireplace4.jpg,,
Image_List_2,,,,,,,,,,,,,,,,44469,2020-11-10_23h55.15.152,lingCatScenes,2020.1.3,MacIntel,60,"[1280,800]",,,[],,,,,,,,,,,,casino1.jpg,space,0.166,[],[],[],[],[],[],[],0,71,71,18,1,bleachers5.jpg,brewery4.jpg,castle2.jpg,basement6.jpg,,
Image_List_2,,,,,,,,,,,,,,,,44469,2020-11-10_23h55.15.152,lingCatScenes,2020.1.3,MacIntel,60,"[1280,800]",,,[],,,,,,,,,,,,firestation3.jpg,space,0.158,[],[],[],[],[],[],[],0,72,72,42,1,exerciseequipment3.jpg,drymountains6.jpg,farm4.jpg,desertvegetation2.jpg,,
Image_List_2,,,,,,,,,,,,,,,,44469,2020-11-10_23h55.15.152,lingCatScenes,2020.1.3,MacIntel,60,"[1280,800]",,,[],,,,,,,,,,,,greenhouse5.jpg,space,0.157,[],[],[],[],[],[],[],0,73,73,49,1,frontDoor3.jpg,flowershop3.jpg,greenhouse.jpg,farm2.jpg,,
Image_List_2,,,,,,,,,,,,,,,,44469,2020-11-10_23h55.15.152,lingCatScenes,2020.1.3,MacIntel,60,"[1280,800]",,,[],,,,,,,,,,,,newsstand5.jpg,space,0.103,[],[],[],[],[],[],[],0,74,74,64,1,igloo2.jpg,jewelrystore8.jpg,lab5.jpg,homegarage2.jpg,,
Image_List_2,,,,,,,,,,,,,,,,44469,2020-11-10_23h55.15.152,lingCatScenes,2020.1.3,MacIntel,60,"[1280,800]",,,[],,,,,,,,,,,,cafeteria6.jpg,space,0.193,[],[],[],[],[],[],[],0,75,75,16,1,basement.jpg,breakroom2.jpg,campusquad4.jpg,barbershop2.jpg,,
Image_List_2,,,,,,,,,,,,,,,,44469,2020-11-10_23h55.15.152,lingCatScenes,2020.1.3,MacIntel,60,"[1280,800]",,,[],,,,,,,,,,,,waitingroom3.jpg,space,0.102,[],[],[],[],[],[],[],0,76,76,94,1,treehouse.jpg,staircase6.jpg,weightroom.jpg,trainStation3.jpg,,
Image_List_2,,,,,,,,,,,,,,,,44469,2020-11-10_23h55.15.152,lingCatScenes,2020.1.3,MacIntel,60,"[1280,800]",,,[],,,,,,,,,,,,parkinglot2.jpg,space,0.224,[],[],[],[],[],[],[],0,77,77,69,1,liquorstore8.jpg,livingroom.jpg,metroInside1.jpg,icecream2.jpg,,
Image_List_2,,,,,,,,,,,,,,,,44469,2020-11-10_23h55.15.152,lingCatScenes,2020.1.3,MacIntel,60,"[1280,800]",,,[],,,,,,,,,,,,breakroom5.jpg,space,0.161,[],[],[],[],[],[],[],0,78,78,14,1,ballroom1.jpg,bistrooutdoor5.jpg,botanicalGarden5.jpg,ballroom3.jpg,,
Image_List_2,,,,,,,,,,,,,,,,44469,2020-11-10_23h55.15.152,lingCatScenes,2020.1.3,MacIntel,60,"[1280,800]",,,[],,,,,,,,,,,,campsite6.jpg,space,0.044,[],[],[],[],[],[],[],0,79,79,17,1,bikerack1.jpg,breakroom4.jpg,carmechanic.jpg,baseball6.jpg,,
Image_List_2,,,,,,,,,,,,,,,,44469,2020-11-10_23h55.15.152,lingCatScenes,2020.1.3,MacIntel,60,"[1280,800]",,,[],,,,,,,,,,,,golfcourse6.jpg,space,0.221,[],[],[],[],[],[],[],0,80,80,48,1,frontDoor2.jpg,fittingroom5.jpg,golfcourse7.jpg,fabricstore2.jpg,,
Image_List_2,,,,,,,,,,,,,,,,44469,2020-11-10_23h55.15.152,lingCatScenes,2020.1.3,MacIntel,60,"[1280,800]",,,[],,,,,,,,,,,,alley2.jpg,space,0.103,[],[],[],[],[],[],[],0,81,81,0,1,airplanecabin1.jpg,appleorchard4.jpg,airplanecabin5.jpg,airplanecabin3.jpg,,
Image_List_2,,,,,,,,,,,,,,,,44469,2020-11-10_23h55.15.152,lingCatScenes,2020.1.3,MacIntel,60,"[1280,800]",,,[],,,,,,,,,,,,stripmall.jpg,space,0.169,[],[],[],[],[],[],[],0,82,82,86,1,restaurant14.jpg,ruralroad3.jpg,sandDunes_desert_outdoor8.jpg,rooftop4.jpg,,
Image_List_2,,,,,,,,,,,,,,,,44469,2020-11-10_23h55.15.152,lingCatScenes,2020.1.3,MacIntel,60,"[1280,800]",,,[],,,,,,,,,,,,pharmacy4.jpg,space,0.163,[],[],[],[],[],[],[],0,83,83,72,1,museum5.jpg,musicStore1.jpg,museum4.jpg,kindergarten_classroom.jpg,,
Image_List_2,,,,,,,,,,,,,,,,44469,2020-11-10_23h55.15.152,lingCatScenes,2020.1.3,MacIntel,60,"[1280,800]",,,[],,,,,,,,,,,,hotelRoom3.jpg,space,0.223,[],[],[],[],[],[],[],0,84,84,55,1,greenmountains.jpg,gazebo5.jpg,hotelRoom7.jpg,frontLawn2.jpg,,
Image_List_2,,,,,,,,,,,,,,,,44469,2020-11-10_23h55.15.152,lingCatScenes,2020.1.3,MacIntel,60,"[1280,800]",,,[],,,,,,,,,,,,jail1.jpg,space,0.103,[],[],[],[],[],[],[],0,85,85,57,1,hayfield5.jpg,hallway4.jpg,hut5.jpg,gazebo.jpg,,
Image_List_2,,,,,,,,,,,,,,,,44469,2020-11-10_23h55.15.152,lingCatScenes,2020.1.3,MacIntel,60,"[1280,800]",,,[],,,,,,,,,,,,banquetHall4.jpg,space,0.163,[],[],[],[],[],[],[],0,86,86,7,1,attic2.jpg,backstage1.jpg,baggageClaim3.jpg,applestore2.jpg,,
Image_List_2,,,,,,,,,,,,,,,,44469,2020-11-10_23h55.15.152,lingCatScenes,2020.1.3,MacIntel,60,"[1280,800]",,,[],,,,,,,,,,,,poolhall2.jpeg,space,0.16,[],[],[],[],[],[],[],0,87,87,79,1,pasture.jpg,playground9.jpg,pier2.jpg,observatory2.jpg,,
Image_List_2,,,,,,,,,,,,,,,,44469,2020-11-10_23h55.15.152,lingCatScenes,2020.1.3,MacIntel,60,"[1280,800]",,,[],,,,,,,,,,,,cave.jpg,space,0.161,[],[],[],[],[],[],[],0,88,88,20,1,boardwalk6.jpg,campsite3.jpg,cave4.jpg,basketballcourt7.jpg,,
Image_List_2,,,,,,,,,,,,,,,,44469,2020-11-10_23h55.15.152,lingCatScenes,2020.1.3,MacIntel,60,"[1280,800]",,,[],,,,,,,,,,,,sidewalk5.jpg,space,0.16,[],[],[],[],[],[],[],0,89,89,85,1,recordingstudio4.jpg,ruralroad2.jpg,sandDunes_desert_outdoor3.jpg,rooftop3.jpg,,
Image_List_2,,,,,,,,,,,,,,,,44469,2020-11-10_23h55.15.152,lingCatScenes,2020.1.3,MacIntel,60,"[1280,800]",,,[],,,,,,,,,,,,elevatorOutside4.jpg,space,0.16,[],[],[],[],[],[],[],0,90,90,38,1,dining_car2.jpg,dock1.jpg,driveway8.jpg,classroom1.jpg,,
Image_List_2,,,,,,,,,,,,,,,,44469,2020-11-10_23h55.15.152,lingCatScenes,2020.1.3,MacIntel,60,"[1280,800]",,,[],,,,,,,,,,,,church8.jpg,space,0.165,[],[],[],[],[],[],[],0,91,91,23,1,bus_shelter.jpg,carmechanic4.jpeg,cemetery3.jpg,bleachers6.jpg,,
Image_List_2,,,,,,,,,,,,,,,,44469,2020-11-10_23h55.15.152,lingCatScenes,2020.1.3,MacIntel,60,"[1280,800]",,,[],,,,,,,,,,,,library_aisle8.jpg,space,0.161,[],[],[],[],[],[],[],0,92,92,59,1,homegarden7.jpg,highway4.jpg,kindergarten_classroom5.jpg,grocerystore3.jpg,,
Image_List_2,,,,,,,,,,,,,,,,44469,2020-11-10_23h55.15.152,lingCatScenes,2020.1.3,MacIntel,60,"[1280,800]",,,[],,,,,,,,,,,,dock3.jpg,space,0.162,[],[],[],[],[],[],[],0,93,93,35,1,deck5.jpg,cubicle7.jpg,dining_car6.jpg,carmechanic2.jpg,,
Image_List_2,,,,,,,,,,,,,,,,44469,2020-11-10_23h55.15.152,lingCatScenes,2020.1.3,MacIntel,60,"[1280,800]",,,[],,,,,,,,,,,,office3.jpg,space,0.156,[],[],[],[],[],[],[],0,94,94,66,1,library_aisle10.jpg,laundromat3.jpg,liquorstore.jpg,horsebarn9.jpg,,
Image_List_2,,,,,,,,,,,,,,,,44469,2020-11-10_23h55.15.152,lingCatScenes,2020.1.3,MacIntel,60,"[1280,800]",,,[],,,,,,,,,,,,baggageClaim2.jpg,space,0.171,[],[],[],[],[],[],[],0,95,95,4,1,artStudio1.jpg,auto_showroom1.jpg,appleorchard3.jpg,alley4.jpg,,
Image_List_2,,,,,,,,,,,,,,,,44469,2020-11-10_23h55.15.152,lingCatScenes,2020.1.3,MacIntel,60,"[1280,800]",,,[],,,,,,,,,,,,desertvegetation3.jpg,space,0.164,[],[],[],[],[],[],[],0,96,96,30,1,courthouse1.jpg,clothingstore2.jpg,copyroom2.jpg,bus_shelter3.jpg,,
Image_List_2,,,,,,,,,,,,,,,,44469,2020-11-10_23h55.15.152,lingCatScenes,2020.1.3,MacIntel,60,"[1280,800]",,,[],,,,,,,,,,,,diningroom1.jpg,space,0.164,[],[],[],[],[],[],[],0,97,97,33,1,deck1.jpg,courthouse2.jpg,diner10.jpg,cabinIndoors5.jpg,,
Image_List_2,,,,,,,,,,,,,,,,44469,2020-11-10_23h55.15.152,lingCatScenes,2020.1.3,MacIntel,60,"[1280,800]",,,[],,,,,,,,,,,,desertvegetation6.jpg,space,0.163,[],[],[],[],[],[],[],0,98,98,31,1,cubicle4.jpg,conference4.jpg,courtroom2.jpg,cabin3.jpg,,
Image_List_2,,,,,,,,,,,,,,,,44469,2020-11-10_23h55.15.152,lingCatScenes,2020.1.3,MacIntel,60,"[1280,800]",,,[],,,,,,,,,,,,sculpturegarden1.jpg,space,0.163,[],[],[],[],[],[],[],0,99,99,83,1,readingroom1.jpg,promenadeDeck6.jpg,restaurant8.jpg,readingroom2.jpg,,
Image_List_2,,,,,,,,,,,,,,,,44469,2020-11-10_23h55.15.152,lingCatScenes,2020.1.3,MacIntel,60,,,,,,,,,,,,,,,,,,,,,,,,,,,,,,,,,,,space,0.16
