image_list,key_resp_intructions.keys,key_resp_intructions.rt,key_resp_intructions_3.keys,key_resp_intructions_3.rt,PracticeComplete_2.keys,PracticeComplete_2.rt,PracticeComplete_3.keys,PracticeComplete_3.rt,demo_trials.thisRepN,demo_trials.thisTrialN,demo_trials.thisN,demo_trials.thisIndex,demo_trials.ran,demo_images,path_images,participant,date,expName,psychopyVersion,OS,frameRate,windowSize,practice_complete.keys,practice_complete.rt,boxes_checked,PracticeComplete.keys,PracticeComplete.rt,practice_trials.thisRepN,practice_trials.thisTrialN,practice_trials.thisN,practice_trials.thisIndex,practice_trials.ran,practice_images,feedback_images,key_resp_intructions_2.keys,key_resp_intructions_2.rt,Image_List_4,trial_complete.keys,trial_complete.rt,trial_mouse.x,trial_mouse.y,trial_mouse.leftButton,trial_mouse.midButton,trial_mouse.rightButton,trial_mouse.time,trial_mouse.clicked_name,trials.thisRepN,trials.thisTrialN,trials.thisN,trials.thisIndex,trials.ran,Image_List_1,Image_List_2,Image_List_3,Image_List_5,key_resp.keys,key_resp.rt
Image_List_4,space,9.67628,space,8.939895,space,15.99012,space,1.61998,0,0,0,6,1,right_left.jpg,right_left_path.jpg,44464,2020-11-23_14h47.36.746,lingCatScenes,2020.1.3,Win32,60,,,,,,,,,,,,,,,,,,,,,,,,,,,,,,,,,,,,
Image_List_4,,,,,space,6.84597,space,3.61399,0,1,1,5,1,right.jpg,right_path.jpg,44464,2020-11-23_14h47.36.746,lingCatScenes,2020.1.3,Win32,60,,,,,,,,,,,,,,,,,,,,,,,,,,,,,,,,,,,,
Image_List_4,,,,,space,5.4636,space,5.1805,0,2,2,3,1,ahead_right_left.jpg,ahead_right_left_path.jpg,44464,2020-11-23_14h47.36.746,lingCatScenes,2020.1.3,Win32,60,,,,,,,,,,,,,,,,,,,,,,,,,,,,,,,,,,,,
Image_List_4,,,,,space,2.38999,space,1.73286,0,3,3,0,1,ahead.jpg,ahead_path.jpg,44464,2020-11-23_14h47.36.746,lingCatScenes,2020.1.3,Win32,60,,,,,,,,,,,,,,,,,,,,,,,,,,,,,,,,,,,,
Image_List_4,,,,,space,4.180155,space,4.13241,0,4,4,2,1,ahead_right.jpg,ahead_right_path.jpg,44464,2020-11-23_14h47.36.746,lingCatScenes,2020.1.3,Win32,60,,,,,,,,,,,,,,,,,,,,,,,,,,,,,,,,,,,,
Image_List_4,,,,,space,3.864795,space,3.62761,0,5,5,1,1,ahead_left.jpg,ahead_left_path.jpg,44464,2020-11-23_14h47.36.746,lingCatScenes,2020.1.3,Win32,60,,,,,,,,,,,,,,,,,,,,,,,,,,,,,,,,,,,,
Image_List_4,,,,,space,2.625955,space,4.266,0,6,6,4,1,left.jpg,left_path.jpg,44464,2020-11-23_14h47.36.746,lingCatScenes,2020.1.3,Win32,60,,,,,,,,,,,,,,,,,,,,,,,,,,,,,,,,,,,,
Image_List_4,,,,,,,,,,,,,,,,44464,2020-11-23_14h47.36.746,lingCatScenes,2020.1.3,Win32,60,"[1536,864]",space,17.517295,"[""ahead_box"",""sharp_right_box""]",space,3.87219,0,0,0,1,1,ahead_left_2.jpg,ahead_left_2_path.jpg,,,,,,,,,,,,,,,,,,,,,,,
Image_List_4,,,,,,,,,,,,,,,,44464,2020-11-23_14h47.36.746,lingCatScenes,2020.1.3,Win32,60,"[1536,864]",space,8.187565,"[""sharp_right_box"",""ahead_box""]",space,1.763975,0,1,1,2,1,ahead_right_2.jpg,ahead_right_2_path.jpg,,,,,,,,,,,,,,,,,,,,,,,
Image_List_4,,,,,,,,,,,,,,,,44464,2020-11-23_14h47.36.746,lingCatScenes,2020.1.3,Win32,60,"[1536,864]",space,11.740405,"[""slight_left_box"",""slight_right_box""]",space,7.913815,0,2,2,6,1,right_left_2.jpg,right_left_2_path.jpg,,,,,,,,,,,,,,,,,,,,,,,
Image_List_4,,,,,,,,,,,,,,,,44464,2020-11-23_14h47.36.746,lingCatScenes,2020.1.3,Win32,60,"[1536,864]",space,5.70213,"[""left_box""]",space,1.16178,0,3,3,4,1,left_2.jpg,left_2_path.jpg,,,,,,,,,,,,,,,,,,,,,,,
Image_List_4,,,,,,,,,,,,,,,,44464,2020-11-23_14h47.36.746,lingCatScenes,2020.1.3,Win32,60,"[1536,864]",space,7.516275,"[""sharp_right_box""]",space,1.51279,0,4,4,5,1,right_2.jpg,right_2_path.jpg,,,,,,,,,,,,,,,,,,,,,,,
Image_List_4,,,,,,,,,,,,,,,,44464,2020-11-23_14h47.36.746,lingCatScenes,2020.1.3,Win32,60,"[1536,864]",space,8.091095,"[""sharp_left_box"",""ahead_box"",""slight_right_box"",""right_box""]",space,2.51255,0,5,5,3,1,ahead_right_left_2.jpg,ahead_right_left_2_path.jpg,,,,,,,,,,,,,,,,,,,,,,,
Image_List_4,,,,,,,,,,,,,,,,44464,2020-11-23_14h47.36.746,lingCatScenes,2020.1.3,Win32,60,"[1536,864]",space,4.14941,"[""ahead_box""]",space,0.87113,0,6,6,0,1,ahead_2.jpg,ahead_2_path.jpg,,,,,,,,,,,,,,,,,,,,,,,
Image_List_4,,,,,,,,,,,,,,,,44464,2020-11-23_14h47.36.746,lingCatScenes,2020.1.3,Win32,60,"[1536,864]",,,"[""trial_slight_right_box"",""trial_left_box""]",,,,,,,,,,space,6.127275,tvstudio2.jpg,space,6.86407,"[0.19537038652709238,-0.40462962241360434]","[-0.2898148265839727,-0.30277784625413323]","[1,1]","[0,0]","[0,0]","[3.072760000010021,4.772615000023507]","[""trial_slight_right_box"",""trial_left_box""]",0,0,0,92,1,staircase.jpg,volleyballcourt.jpg,skatepark7.jpg,soccerfield2.jpg,,
Image_List_4,,,,,,,,,,,,,,,,44464,2020-11-23_14h47.36.746,lingCatScenes,2020.1.3,Win32,60,"[1536,864]",,,"[""trial_sharp_left_box""]",,,,,,,,,,,,airplanecabin5.jpg,space,5.188205,[-0.5981481438157735],[-0.31018519725788524],[1],[0],[0],[2.891300000017509],"[""trial_sharp_left_box""]",0,1,1,0,1,airplanecabin1.jpg,alley2.jpg,appleorchard4.jpg,airplanecabin3.jpg,,
Image_List_4,,,,,,,,,,,,,,,,44464,2020-11-23_14h47.36.746,lingCatScenes,2020.1.3,Win32,60,"[1536,864]",,,"[""trial_sharp_right_box"",""trial_left_box""]",,,,,,,,,,,,lockerroom2.jpg,space,4.000495,"[0.5935185406081103,-0.41111110399166745]","[-0.30648149349899206,-0.29814821655551677]","[1,1]","[0,0]","[0,0]","[2.141875000030268,3.041785000008531]","[""trial_sharp_right_box"",""trial_left_box""]",0,2,2,68,1,liquorstore7.jpg,parkinglot.jpg,lightingstore4.jpg,hospitalroom3.jpg,,
Image_List_4,,,,,,,,,,,,,,,,44464,2020-11-23_14h47.36.746,lingCatScenes,2020.1.3,Win32,60,"[1536,864]",,,"[""trial_left_box"",""trial_sharp_right_box""]",,,,,,,,,,,,wrestlingring7.jpg,space,7.04893,"[-0.4203703351318832,0.6287038393456643,0.5962964314553489]","[-0.31111112319760853,-0.2972222341017591,-0.29074075252369597]","[1,1,1]","[0,0,0]","[0,0,0]","[4.275424999999814,5.20890500000678,6.442385000002105]","[""trial_left_box"",""trial_sharp_right_box""]",0,3,3,99,1,wineVineyard9.jpg,yogastudio4.jpg,windmill2.jpg,yogastudio1.jpg,,
Image_List_4,,,,,,,,,,,,,,,,44464,2020-11-23_14h47.36.746,lingCatScenes,2020.1.3,Win32,60,"[1536,864]",,,"[""trial_right_box"",""trial_sharp_left_box""]",,,,,,,,,,,,lab3.jpg,space,4.904095,"[0.3953703895073246,-0.5898148103582638]","[-0.3055555675592687,-0.30833334537843865]","[1,1]","[0,0]","[0,0]","[3.4766449999879114,4.409849999996368]","[""trial_right_box"",""trial_sharp_left_box""]",0,4,4,62,1,hotellobby2.jpg,minigolf.jpg,horsebarn8.jpg,hayfield7.jpg,,
Image_List_4,,,,,,,,,,,,,,,,44464,2020-11-23_14h47.36.746,lingCatScenes,2020.1.3,Win32,60,"[1536,864]",,,"[""trial_right_box""]",,,,,,,,,,,,restaurant8.jpg,space,3.004285,[0.39166668574843144],[-0.2851851968853562],[1],[0],[0],[1.7921150000183843],"[""trial_right_box""]",0,5,5,83,1,readingroom1.jpg,sculpturegarden1.jpg,promenadeDeck6.jpg,readingroom2.jpg,,
Image_List_4,,,,,,,,,,,,,,,,44464,2020-11-23_14h47.36.746,lingCatScenes,2020.1.3,Win32,60,"[1536,864]",,,"[""trial_sharp_right_box""]",,,,,,,,,,,,hayfield4.jpg,space,7.01262,"[0.5648148364766881,0.580555577451984]","[-0.2879629747045261,-0.29907408598120566]","[1,1]","[0,0]","[0,0]","[5.82560999999987,6.2256649999762885]","[""trial_sharp_right_box""]",0,6,6,51,1,gasstation6.jpg,hallway5.jpg,frontDoor5.jpg,firestation5.jpg,,
Image_List_4,,,,,,,,,,,,,,,,44464,2020-11-23_14h47.36.746,lingCatScenes,2020.1.3,Win32,60,"[1536,864]",,,"[""trial_slight_right_box""]",,,,,,,,,,,,appleorchard3.jpg,space,3.244545,[0.20185186810515546],[-0.31018519725788524],[1],[0],[0],[2.2441799999796785],"[""trial_slight_right_box""]",0,7,7,4,1,artStudio1.jpg,baggageClaim2.jpg,auto_showroom1.jpg,alley4.jpg,,
Image_List_4,,,,,,,,,,,,,,,,44464,2020-11-23_14h47.36.746,lingCatScenes,2020.1.3,Win32,60,"[1536,864]",,,"[""trial_sharp_right_box"",""trial_ahead_box"",""trial_slight_left_box"",""trial_left_box"",""trial_sharp_left_box""]",,,,,,,,,,,,campusquad4.jpg,space,13.823815,"[0.011111181036190592,0.5944444665478336,-0.023148135247605818,-0.21851850852922158,-0.3907407333177549,-0.5453703369945283,-0.6129629588513462]","[-0.2564815492679684,-0.29814821655551677,-0.2953703822223125,-0.31018519725788524,-0.2944444562825892,-0.2842593274596673,-0.30648149349899206]","[1,1,1,1,1,1,1]","[0,0,0,0,0,0,0]","[0,0,0,0,0,0,0]","[5.5262300000176765,10.809560000023339,11.39286500000162,11.742880000034347,12.059349999995902,12.3422750000027,12.726224999991246]","[""trial_sharp_right_box"",""trial_ahead_box"",""trial_slight_left_box"",""trial_left_box"",""trial_sharp_left_box""]",0,8,8,16,1,basement.jpg,cafeteria6.jpg,breakroom2.jpg,barbershop2.jpg,,
Image_List_4,,,,,,,,,,,,,,,,44464,2020-11-23_14h47.36.746,lingCatScenes,2020.1.3,Win32,60,"[1536,864]",,,"[""trial_left_box""]",,,,,,,,,,,,sandDunes_desert_outdoor3.jpg,space,4.92511,[-0.41296295587111403],[-0.30740747595274975],[1],[0],[0],[3.57125499995891],"[""trial_left_box""]",0,9,9,85,1,recordingstudio4.jpg,sidewalk5.jpg,ruralroad2.jpg,rooftop3.jpg,,
Image_List_4,,,,,,,,,,,,,,,,44464,2020-11-23_14h47.36.746,lingCatScenes,2020.1.3,Win32,60,"[1536,864]",,,"[""trial_sharp_left_box""]",,,,,,,,,,,,hotelRoom7.jpg,space,2.724015,[-0.6055555513335599],[-0.30370371567982213],[1],[0],[0],[1.6580149999936111],"[""trial_sharp_left_box""]",0,10,10,55,1,greenmountains.jpg,hotelRoom3.jpg,gazebo5.jpg,frontLawn2.jpg,,
Image_List_4,,,,,,,,,,,,,,,,44464,2020-11-23_14h47.36.746,lingCatScenes,2020.1.3,Win32,60,"[1536,864]",,,"[""trial_right_box""]",,,,,,,,,,,,foodcourt.jpg,space,2.88041,"[0.43981483461404286,0.3944444635676013,0.3953703895073246]","[-0.2879629747045261,-0.26481482621144364,-0.2898148265839727]","[1,1,1]","[0,0,0]","[0,0,0]","[1.5897099999710917,2.039809999987483,2.422794999962207]","[""trial_right_box""]",0,11,11,43,1,exerciseequipment5.jpg,forestpath10.jpg,dugout2.jpg,diningroom3.jpg,,
Image_List_4,,,,,,,,,,,,,,,,44464,2020-11-23_14h47.36.746,lingCatScenes,2020.1.3,Win32,60,"[1536,864]",,,"[""trial_left_box"",""trial_slight_right_box"",""trial_right_box""]",,,,,,,,,,,,museum3.jpg,space,5.10214,"[-0.41388888181083733,-0.012962949910649547,0.007407420763262996,0.2175926090804515,0.38148150041147516]","[-0.30000001192092896,-0.30370371567982213,-0.30648149349899206,-0.3055555675592687,-0.29259260440314255]","[1,1,1,1,1]","[0,0,0,0,0]","[0,0,0,0,0]","[1.5945950000314042,2.6279799999902025,3.695624999993015,4.194590000028256,4.761625000042841]","[""trial_left_box"",""trial_ahead_box"",""trial_ahead_box"",""trial_slight_right_box"",""trial_right_box""]",0,12,12,71,1,metroInside2.jpg,pavilion5.jpg,metroInside3.jpg,jewelrystore.jpg,,
Image_List_4,,,,,,,,,,,,,,,,44464,2020-11-23_14h47.36.746,lingCatScenes,2020.1.3,Win32,60,"[1536,864]",,,"[""trial_right_box""]",,,,,,,,,,,,sandDunes_desert_outdoor.jpg,space,4.45019,"[0.3574074259786694,0.38240742635119845]","[-0.2861111228250795,-0.2898148265839727]","[1,1]","[0,0]","[0,0]","[3.117295000003651,3.6509400000213645]","[""trial_right_box""]",0,13,13,84,1,readingroom5.jpg,sidewalk2.jpg,restaurant13.jpg,rooftop2.jpg,,
Image_List_4,,,,,,,,,,,,,,,,44464,2020-11-23_14h47.36.746,lingCatScenes,2020.1.3,Win32,60,"[1536,864]",,,"[""trial_ahead_box"",""trial_slight_left_box"",""trial_sharp_right_box""]",,,,,,,,,,,,carmechanic.jpg,space,4.73353,"[-0.013888875850372844,-0.19999998973475563,0.5620370586575182,0.6000000221861733]","[-0.31111112319760853,-0.30740747595274975,-0.31018519725788524,-0.30185186380037554]","[1,1,1,1]","[0,0,0,0]","[0,0,0,0]","[1.6749350000172853,2.175185000000056,4.032125000027008,4.325264999992214]","[""trial_ahead_box"",""trial_slight_left_box"",""trial_sharp_right_box""]",0,14,14,17,1,bikerack1.jpg,campsite6.jpg,breakroom4.jpg,baseball6.jpg,,
Image_List_4,,,,,,,,,,,,,,,,44464,2020-11-23_14h47.36.746,lingCatScenes,2020.1.3,Win32,60,"[1536,864]",,,"[""trial_left_box""]",,,,,,,,,,,,ticket_counter6.jpg,space,2.25809,[-0.3990740667752646],[-0.2888889571582838],[1],[0],[0],[1.5161349999834783],"[""trial_left_box""]",0,15,15,91,1,shoestore2.jpg,trainStation5.jpg,skatepark5.jpg,sidewalk3.jpg,,
Image_List_4,,,,,,,,,,,,,,,,44464,2020-11-23_14h47.36.746,lingCatScenes,2020.1.3,Win32,60,"[1536,864]",,,"[""trial_right_box""]",,,,,,,,,,,,checkoutcounter2.jpg,space,2.181085,[0.41018520454289736],[-0.2879629747045261],[1],[0],[0],[1.7107149999937974],"[""trial_right_box""]",0,16,16,25,1,campsite7.jpg,conference3.jpg,church3.jpg,botanicalGarden4.jpg,,
Image_List_4,,,,,,,,,,,,,,,,44464,2020-11-23_14h47.36.746,lingCatScenes,2020.1.3,Win32,60,"[1536,864]",,,"[""trial_ahead_box"",""trial_sharp_right_box""]",,,,,,,,,,,,hut1.jpg,space,4.86899,"[-0.00462961645313987,0.5712963180547511,0.5898148368492171]","[-0.2935185868569003,-0.2824074190661863,-0.2824074190661863]","[1,1,1]","[0,0,0]","[0,0,0]","[1.4257199999992736,2.575714999984484,3.2093600000371225]","[""trial_ahead_box"",""trial_sharp_right_box""]",0,17,17,56,1,grocerystore5.jpg,hut3.jpg,golfcourse10.jpg,gasstation2.jpg,,
Image_List_4,,,,,,,,,,,,,,,,44464,2020-11-23_14h47.36.746,lingCatScenes,2020.1.3,Win32,60,"[1536,864]",,,"[""trial_sharp_left_box"",""trial_sharp_right_box""]",,,,,,,,,,,,fountain7.jpg,space,5.184985,"[-0.6129629588513462,0.5694444661753045,0.5833333552711539]","[-0.3148148269565017,-0.2851851968853562,-0.29166667846341926]","[1,1,1]","[0,0,0]","[0,0,0]","[2.792315000027884,4.042505000019446,4.425715000019409]","[""trial_sharp_left_box"",""trial_sharp_right_box""]",0,18,18,47,1,frontDoor.jpg,gasstation8.jpg,firestation4.jpg,elevatorOutside2.jpg,,
Image_List_4,,,,,,,,,,,,,,,,44464,2020-11-23_14h47.36.746,lingCatScenes,2020.1.3,Win32,60,"[1536,864]",,,"[""trial_slight_right_box"",""trial_sharp_right_box""]",,,,,,,,,,,,closet.jpg,space,4.27836,"[0.19814816434626226,0.5962964314553489]","[-0.2879629747045261,-0.29814821655551677]","[1,1]","[0,0]","[0,0]","[2.195000000006985,3.5286249999771826]","[""trial_slight_right_box"",""trial_sharp_right_box""]",0,19,19,27,1,castle3.jpg,courtroom3.jpg,churchInside4.jpg,brewery2.jpg,,
Image_List_4,,,,,,,,,,,,,,,,44464,2020-11-23_14h47.36.746,lingCatScenes,2020.1.3,Win32,60,"[1536,864]",,,"[""trial_ahead_box""]",,,,,,,,,,,,weightroom4.jpg,space,5.42405,"[0.02314816173855905,0.004629642944093104]","[-0.32777779011262786,-0.30370371567982213]","[1,1]","[0,0]","[0,0]","[4.708894999988843,5.1084350000019185]","[""trial_ahead_box""]",0,20,20,95,1,waitingroom2.jpg,warehouse2.jpg,stripmall6.jpg,tvstudio3.jpg,,
Image_List_4,,,,,,,,,,,,,,,,44464,2020-11-23_14h47.36.746,lingCatScenes,2020.1.3,Win32,60,"[1536,864]",,,"[""trial_right_box"",""trial_sharp_left_box""]",,,,,,,,,,,,sculpturegarden2.jpg,space,3.63701,"[0.3953703895073246,-0.5824073745834603]","[-0.29814821655551677,-0.30000001192092896]","[1,1]","[0,0]","[0,0]","[1.7106849999981932,2.9948099999455735]","[""trial_right_box"",""trial_sharp_left_box""]",0,21,21,87,1,restaurantkitchen2.jpg,theater2.jpg,savanna.jpg,RVinside2.jpg,,
Image_List_4,,,,,,,,,,,,,,,,44464,2020-11-23_14h47.36.746,lingCatScenes,2020.1.3,Win32,60,"[1536,864]",,,"[""trial_slight_right_box""]",,,,,,,,,,,,rainforest5.jpg,space,3.004745,[0.2175926090804515],[-0.3185185307153949],[1],[0],[0],[2.253915000008419],"[""trial_slight_right_box""]",0,22,22,81,1,promenadeDeck.jpg,ruralroad5.jpg,promenadeDeck2.jpg,pasture8.jpg,,
Image_List_4,,,,,,,,,,,,,,,,44464,2020-11-23_14h47.36.746,lingCatScenes,2020.1.3,Win32,60,"[1536,864]",,,"[""trial_left_box"",""trial_sharp_left_box"",""trial_slight_left_box"",""trial_ahead_box"",""trial_slight_right_box"",""trial_right_box"",""trial_sharp_right_box""]",,,,,,,,,,,,basketballcourt3.jpg,space,8.12301,"[-0.5703703656240746,-0.4194444374491771,-0.6222222182485793,-0.18425924875945957,-0.01851850554898933,0.20185186810515546,0.3944444635676013,0.5888889109094938]","[-0.3055555675592687,-0.2972222341017591,-0.30092593786065225,-0.2833333450059096,-0.3046296416195454,-0.3046296416195454,-0.30000001192092896,-0.2944444562825892]","[1,1,1,1,1,1,1,1]","[0,0,0,0,0,0,0,0]","[0,0,0,0,0,0,0,0]","[3.2372899999609217,3.7706250000046566,4.2536249999538995,5.104189999983646,5.6038799999514595,6.137649999989662,6.6708599999547005,7.5371199999935925]","[""trial_left_box"",""trial_sharp_left_box"",""trial_slight_left_box"",""trial_ahead_box"",""trial_slight_right_box"",""trial_right_box"",""trial_sharp_right_box""]",0,23,23,10,1,backstage2.jpg,barbershop3.jpg,ballroom4.jpg,ATM4.jpg,,
Image_List_4,,,,,,,,,,,,,,,,44464,2020-11-23_14h47.36.746,lingCatScenes,2020.1.3,Win32,60,"[1536,864]",,,"[""trial_right_box"",""trial_sharp_left_box""]",,,,,,,,,,,,lab4.jpg,space,3.632425,"[0.40925927860317407,-0.5907407362979872]","[-0.30000001192092896,-0.30277784625413323]","[1,1]","[0,0]","[0,0]","[1.5380399999557994,2.6758499999996275]","[""trial_right_box"",""trial_sharp_left_box""]",0,24,24,63,1,hut2.jpg,museum6.jpg,hotelRoom2.jpg,highway2.jpg,,
Image_List_4,,,,,,,,,,,,,,,,44464,2020-11-23_14h47.36.746,lingCatScenes,2020.1.3,Win32,60,"[1536,864]",,,"[""trial_sharp_right_box""]",,,,,,,,,,,,cemetery5.jpg,space,4.852955,[0.592592614668387],[-0.29814821655551677],[1],[0],[0],[4.408334999985527],"[""trial_sharp_right_box""]",0,25,25,24,1,campsite.jpg,cliff3.jpg,cave6.jpg,boardwalk.jpg,,
Image_List_4,,,,,,,,,,,,,,,,44464,2020-11-23_14h47.36.746,lingCatScenes,2020.1.3,Win32,60,"[1536,864]",,,"[""trial_right_box""]",,,,,,,,,,,,clothingstore5.jpg,space,2.466085,[0.4083333526634508],[-0.30648149349899206],[1],[0],[0],[1.9082000000053085],"[""trial_right_box""]",0,26,26,28,1,churchInside1.jpg,dancestudio5.jpg,citystreet10.jpg,bridalboutique2.jpg,,
Image_List_4,,,,,,,,,,,,,,,,44464,2020-11-23_14h47.36.746,lingCatScenes,2020.1.3,Win32,60,"[1536,864]",,,"[""trial_slight_left_box""]",,,,,,,,,,,,kindergarten_classroom7.jpg,space,4.71571,"[0.4083333526634508,0.42500013260653896,-0.21574067419601728]","[-0.325000012293458,-0.30000001192092896,-0.31018519725788524]","[1,1,1]","[0,0,0]","[0,0,0]","[2.259345000027679,3.226699999999255,4.142970000044443]","[""trial_slight_left_box""]",0,27,27,61,1,HorseRaceTrack.jpg,metroInside4.jpg,homegarden6.jpg,hayfield6.jpg,,
Image_List_4,,,,,,,,,,,,,,,,44464,2020-11-23_14h47.36.746,lingCatScenes,2020.1.3,Win32,60,"[1536,864]",,,"[""trial_ahead_box""]",,,,,,,,,,,,fabricstore1.jpg,space,1.94439,[-0.012036967456891843],[-0.2962963081620358],[1],[0],[0],[1.4804700000095181],"[""trial_ahead_box""]",0,28,28,41,1,dugout4.jpg,farm3.jpg,drymountains3.jpg,dentist2.jpg,,
Image_List_4,,,,,,,,,,,,,,,,44464,2020-11-23_14h47.36.746,lingCatScenes,2020.1.3,Win32,60,"[1536,864]",,,"[""trial_sharp_right_box""]",,,,,,,,,,,,nursery4.jpg,space,3.7232,"[0.40925927860317407,0.4074074267237275,0.5722222439944744,0.5861111330903239]","[-0.2861111228250795,-0.29907408598120566,-0.2972222341017591,-0.2888889571582838]","[1,1,1,1]","[0,0,0,0]","[0,0,0,0]","[1.4544499999610707,2.504384999978356,2.8711250000051223,3.2379450000007637]","[""trial_right_box"",""trial_right_box"",""trial_sharp_right_box""]",0,29,29,73,1,musicStore3.jpg,photographer_studio2.jpg,nursery.jpg,library_aisle9.jpg,,
Image_List_4,,,,,,,,,,,,,,,,44464,2020-11-23_14h47.36.746,lingCatScenes,2020.1.3,Win32,60,"[1536,864]",,,"[""trial_left_box""]",,,,,,,,,,,,bar.jpg,space,4.535955,[-0.3777777701616287],[-0.3120371056513662],[1],[0],[0],[3.839815000013914],"[""trial_left_box""]",0,30,30,8,1,attic3.jpg,banquetHall6.jpg,balconyIN.jpg,applestore4.jpg,,
Image_List_4,,,,,,,,,,,,,,,,44464,2020-11-23_14h47.36.746,lingCatScenes,2020.1.3,Win32,60,"[1536,864]",,,"[""trial_left_box""]",,,,,,,,,,,,driveway7.jpg,space,3.769985,[-0.4203703351318832],[-0.30648149349899206],[1],[0],[0],[1.840840000018943],"[""trial_left_box""]",0,31,31,37,1,dining_car.jpg,driveway4.jpg,dinosaur4.jpg,citystreet9.jpg,,
Image_List_4,,,,,,,,,,,,,,,,44464,2020-11-23_14h47.36.746,lingCatScenes,2020.1.3,Win32,60,"[1536,864]",,,"[""trial_slight_left_box"",""trial_right_box""]",,,,,,,,,,,,weightroom.jpg,space,3.617555,"[-0.19351850815669255,0.38796309501760706]","[-0.30370371567982213,-0.30925927131816194]","[1,1]","[0,0]","[0,0]","[1.9577200000057928,3.0078750000102445]","[""trial_slight_left_box"",""trial_right_box""]",0,32,32,94,1,treehouse.jpg,waitingroom3.jpg,staircase6.jpg,trainStation3.jpg,,
Image_List_4,,,,,,,,,,,,,,,,44464,2020-11-23_14h47.36.746,lingCatScenes,2020.1.3,Win32,60,"[1536,864]",,,"[""trial_left_box"",""trial_sharp_right_box""]",,,,,,,,,,,,minigolf8.jpg,space,4.493545,"[-0.43055554872585666,-0.4194444374491771,0.6231481706792558]","[-0.2861111228250795,-0.2842593274596673,-0.30000001192092896]","[1,1,1]","[0,0,0]","[0,0,0]","[2.1416199999512173,2.659109999949578,3.7259499999927357]","[""trial_left_box"",""trial_sharp_right_box""]",0,33,33,70,1,lockerroom4.jpg,pavilion.jpg,lockerroom3.jpg,igloo.jpg,,
Image_List_4,,,,,,,,,,,,,,,,44464,2020-11-23_14h47.36.746,lingCatScenes,2020.1.3,Win32,60,"[1536,864]",,,"[""trial_ahead_box""]",,,,,,,,,,,,forestpath4.jpg,space,1.83367,[-0.006481468332586465],[-0.2851851968853562],[1],[0],[0],[1.4248099999967963],"[""trial_ahead_box""]",0,34,34,45,1,fittingroom2.jpg,frontFoyer7.jpg,factory1.jpg,dock4.jpg,,
Image_List_4,,,,,,,,,,,,,,,,44464,2020-11-23_14h47.36.746,lingCatScenes,2020.1.3,Win32,60,"[1536,864]",,,"[""trial_right_box"",""trial_slight_right_box"",""trial_ahead_box""]",,,,,,,,,,,,stripmall3.jpg,space,7.57905,"[0.3796296485320286,0.2166666831407282,0.03796297677413181,-0.012962949910649547]","[-0.29814821655551677,-0.2768518634278465,-0.29074075252369597,-0.29259260440314255]","[1,1,1,1]","[0,0,0,0]","[0,0,0,0]","[6.390700000047218,6.723970000050031,7.107130000018515,7.3742050000000745]","[""trial_right_box"",""trial_slight_right_box"",""trial_ahead_box""]",0,35,35,90,1,savanna5.jpg,trainStation1.jpg,sidewalk1.jpg,shoestore4.jpg,,
Image_List_4,,,,,,,,,,,,,,,,44464,2020-11-23_14h47.36.746,lingCatScenes,2020.1.3,Win32,60,"[1536,864]",,,"[""trial_sharp_left_box""]",,,,,,,,,,,,baggageClaim1.jpg,space,2.986305,[-0.60277777351439],[-0.30277784625413323],[1],[0],[0],[2.0747599999886006],"[""trial_sharp_left_box""]",0,36,36,6,1,ATM1.jpg,banquetHall2.jpg,auto_showroom5.jpg,apartmentBuilding3.jpg,,
Image_List_4,,,,,,,,,,,,,,,,44464,2020-11-23_14h47.36.746,lingCatScenes,2020.1.3,Win32,60,"[1536,864]",,,"[""trial_sharp_right_box"",""trial_sharp_left_box""]",,,,,,,,,,,,apartmentBuilding4.jpg,space,4.8399,"[0.5833333552711539,-0.5787036990815843]","[-0.2962963081620358,-0.29907408598120566]","[1,1]","[0,0]","[0,0]","[3.706980000017211,4.524269999994431]","[""trial_sharp_right_box"",""trial_sharp_left_box""]",0,37,37,2,1,alley1.jpg,arcade1.jpg,applestore6.jpg,airportTerminal6.jpg,,
Image_List_4,,,,,,,,,,,,,,,,44464,2020-11-23_14h47.36.746,lingCatScenes,2020.1.3,Win32,60,"[1536,864]",,,"[""trial_sharp_right_box"",""trial_left_box""]",,,,,,,,,,,,constructionSite4.jpg,space,4.362355,"[0.611111133462853,-0.3833333257999685]","[-0.3046296416195454,-0.30185186380037554]","[1,1]","[0,0]","[0,0]","[2.2039849999709986,3.4372999999905005]","[""trial_sharp_right_box"",""trial_left_box""]",0,38,38,29,1,cornfield2.jpg,deck2.jpg,cliff2.jpg,bridalboutique3.jpg,,
Image_List_4,,,,,,,,,,,,,,,,44464,2020-11-23_14h47.36.746,lingCatScenes,2020.1.3,Win32,60,"[1536,864]",,,"[""trial_slight_left_box"",""trial_sharp_right_box""]",,,,,,,,,,,,greenhouse.jpg,space,4.56125,"[-0.2138888788306051,0.5731482829622665,0.5787037255725375]","[-0.2944444562825892,-0.29166667846341926,-0.29259260440314255]","[1,1,1]","[0,0,0]","[0,0,0]","[2.509449999954086,3.676294999953825,4.076139999961015]","[""trial_slight_left_box"",""trial_sharp_right_box""]",0,39,39,49,1,frontDoor3.jpg,greenhouse5.jpg,flowershop3.jpg,farm2.jpg,,
Image_List_4,,,,,,,,,,,,,,,,44464,2020-11-23_14h47.36.746,lingCatScenes,2020.1.3,Win32,60,"[1536,864]",,,"[""trial_right_box""]",,,,,,,,,,,,park.jpg,space,3.18236,[0.3888889079292615],[-0.29907408598120566],[1],[0],[0],[2.726555000001099],"[""trial_right_box""]",0,40,40,75,1,pantry5.jpg,playground6.jpg,operatingroom4.jpg,lockerroom.jpg,,
Image_List_4,,,,,,,,,,,,,,,,44464,2020-11-23_14h47.36.746,lingCatScenes,2020.1.3,Win32,60,"[1536,864]",,,"[""trial_ahead_box"",""trial_sharp_right_box"",""trial_sharp_left_box""]",,,,,,,,,,,,operatingroom1.jpg,space,6.020735,"[0.0018519216389576184,0.549074095501392,0.5629629845972415,0.5796296515122608,-0.5981481438157735]","[-0.30000001192092896,-0.30000001192092896,-0.2962963081620358,-0.30092593786065225,-0.3203703825948415]","[1,1,1,1,1]","[0,0,0,0,0]","[0,0,0,0,0]","[1.862200000032317,3.212370000022929,3.5955100000137463,4.0625899999868125,5.562280000012834]","[""trial_ahead_box"",""trial_sharp_right_box"",""trial_sharp_left_box""]",0,41,41,74,1,newsstand2.jpg,playground10.jpg,observatory4.jpeg,lightingstore2.jpg,,
Image_List_4,,,,,,,,,,,,,,,,44464,2020-11-23_14h47.36.746,lingCatScenes,2020.1.3,Win32,60,"[1536,864]",,,"[""trial_right_box""]",,,,,,,,,,,,baywindow5.jpg,space,2.11967,[0.3907407598087081],[-0.31666673534998274],[1],[0],[0],[1.7934349999995902],"[""trial_right_box""]",0,42,42,11,1,backyard2.jpg,basketballcourt4.jpg,bambooforest3.jpg,backyard1.jpg,,
Image_List_4,,,,,,,,,,,,,,,,44464,2020-11-23_14h47.36.746,lingCatScenes,2020.1.3,Win32,60,"[1536,864]",,,"[""trial_slight_left_box""]",,,,,,,,,,,,basement5.jpg,space,1.993275,[-0.2129629528908818],[-0.29814821655551677],[1],[0],[0],[1.4751899999682792],"[""trial_slight_left_box""]",0,43,43,9,1,auto_showroom3.jpg,bar2.jpg,ballroom2.jpg,arcade2.jpg,,
Image_List_4,,,,,,,,,,,,,,,,44464,2020-11-23_14h47.36.746,lingCatScenes,2020.1.3,Win32,60,"[1536,864]",,,"[""trial_right_box"",""trial_sharp_right_box"",""trial_left_box""]",,,,,,,,,,,,airportTerminal3.jpg,space,7.928455,"[0.406481613812073,0.608333355643683,-0.39444443707664806]","[-0.30185186380037554,-0.31018519725788524,-0.30833334537843865]","[1,1,1]","[0,0,0]","[0,0,0]","[4.615814999968279,5.2655699999886565,7.383124999993015]","[""trial_right_box"",""trial_sharp_right_box"",""trial_left_box""]",0,44,44,1,1,airportTerminal4.jpg,apartmentBuilding1.jpg,applestore1.jpg,airportTerminal2.jpg,,
Image_List_4,,,,,,,,,,,,,,,,44464,2020-11-23_14h47.36.746,lingCatScenes,2020.1.3,Win32,60,"[1536,864]",,,"[""trial_ahead_box"",""trial_sharp_right_box""]",,,,,,,,,,,,metroInside1.jpg,space,5.62109,"[-0.006481468332586465,0.0018519216389576184,0.617592615040916]","[-0.32685186417290457,-0.30000001192092896,-0.3046296416195454]","[1,1,1]","[0,0,0]","[0,0,0]","[1.8265400000382215,2.459690000046976,3.643170000053942]","[""trial_ahead_box"",""trial_sharp_right_box""]",0,45,45,69,1,liquorstore8.jpg,parkinglot2.jpg,livingroom.jpg,icecream2.jpg,,
Image_List_4,,,,,,,,,,,,,,,,44464,2020-11-23_14h47.36.746,lingCatScenes,2020.1.3,Win32,60,"[1536,864]",,,"[""trial_sharp_right_box"",""trial_sharp_left_box""]",,,,,,,,,,,,botanicalGarden5.jpg,space,6.361845,"[0.59907409624645,-0.5740740693829678,-0.5990740697554968]","[-0.2944444562825892,-0.30000001192092896,-0.30277784625413323]","[1,1,1]","[0,0,0]","[0,0,0]","[3.0095650000148453,4.444009999977425,5.609705000009853]","[""trial_sharp_right_box"",""trial_sharp_left_box""]",0,46,46,14,1,ballroom1.jpg,breakroom5.jpg,bistrooutdoor5.jpg,ballroom3.jpg,,
Image_List_4,,,,,,,,,,,,,,,,44464,2020-11-23_14h47.36.746,lingCatScenes,2020.1.3,Win32,60,"[1536,864]",,,"[""trial_ahead_box"",""trial_slight_left_box""]",,,,,,,,,,,,labClass7.jpg,space,4.302565,"[-0.0055555423928631675,-0.3611111032466094,-0.19629628597586243]","[-0.2953703822223125,-0.2962963081620358,-0.29907408598120566]","[1,1,1]","[0,0,0]","[0,0,0]","[1.359230000001844,2.4261149999802,3.1264099999680184]","[""trial_ahead_box"",""trial_slight_left_box""]",0,47,47,65,1,igloo5.jpg,newsstand7.jpg,laundromat2.jpeg,homeoffice8.jpg,,
Image_List_4,,,,,,,,,,,,,,,,44464,2020-11-23_14h47.36.746,lingCatScenes,2020.1.3,Win32,60,"[1536,864]",,,"[""trial_slight_left_box""]",,,,,,,,,,,,boardwalk4.jpg,space,3.565925,"[-0.019444431488712628,0.008333346702986293,-0.1712962856033334,-0.17962961906084307]","[-0.31666673534998274,-0.2944444562825892,-0.30925927131816194,-0.3055555675592687]","[1,1,1,1]","[0,0,0,0]","[0,0,0,0]","[1.3763049999834038,2.31005999998888,2.7428749999962747,3.076139999961015]","[""trial_ahead_box"",""trial_ahead_box"",""trial_slight_left_box""]",0,48,48,13,1,balconyIN2.jpg,bowlingalley3.jpg,beach2.jpg,backyard6.jpg,,
Image_List_4,,,,,,,,,,,,,,,,44464,2020-11-23_14h47.36.746,lingCatScenes,2020.1.3,Win32,60,"[1536,864]",,,"[""trial_slight_left_box""]",,,,,,,,,,,,pavilion3.jpg,space,3.580055,"[-0.2064814147987843,-0.19999998973475563]","[-0.26388890027172035,-0.2750000680624343]","[1,1]","[0,0]","[0,0]","[1.707425000029616,2.0909799999790266]","[""trial_slight_left_box""]",0,49,49,78,1,parkinglot3.jpg,poolhall1.jpg,pier5.jpg,observatory1.jpg,,
Image_List_4,,,,,,,,,,,,,,,,44464,2020-11-23_14h47.36.746,lingCatScenes,2020.1.3,Win32,60,"[1536,864]",,,"[""trial_ahead_box""]",,,,,,,,,,,,churchInside3.jpg,space,1.4939,[-0.006481468332586465],[-0.2972222341017591],[1],[0],[0],[1.2428549999604002],"[""trial_ahead_box""]",0,50,50,26,1,campusquad2.jpg,cornfield4.jpg,church4.jpg,botanicalGarden7.jpg,,
Image_List_4,,,,,,,,,,,,,,,,44464,2020-11-23_14h47.36.746,lingCatScenes,2020.1.3,Win32,60,"[1536,864]",,,"[""trial_sharp_left_box"",""trial_left_box"",""trial_slight_left_box"",""trial_ahead_box"",""trial_slight_right_box"",""trial_right_box"",""trial_sharp_right_box""]",,,,,,,,,,,,park2.jpg,space,6.281215,"[-0.5962962919363269,-0.3990740667752646,-0.19259252570293484,-0.025925856552741305,0.06944445872472392,0.018518532039942564,0.2231481647187913,0.3981481673264945,0.5861111330903239]","[-0.2861111228250795,-0.2824074190661863,-0.30185186380037554,-0.2888889571582838,-0.29814821655551677,-0.3120371056513662,-0.30648149349899206,-0.2879629747045261,-0.2898148265839727]","[1,1,1,1,1,1,1,1,1]","[0,0,0,0,0,0,0,0,0]","[0,0,0,0,0,0,0,0,0]","[2.242115000030026,2.63728500000434,3.253175000019837,3.6202550000161864,3.953960000013467,4.186990000016522,4.586565000005066,5.2539800000377,5.953895000042394]","[""trial_sharp_left_box"",""trial_left_box"",""trial_slight_left_box"",""trial_ahead_box"",""trial_slight_right_box"",""trial_right_box"",""trial_sharp_right_box""]",0,51,51,76,1,parkinggarage.jpg,playroom4.jpg,parkinggarage3.jpg,lookout4.jpg,,
Image_List_4,,,,,,,,,,,,,,,,44464,2020-11-23_14h47.36.746,lingCatScenes,2020.1.3,Win32,60,"[1536,864]",,,"[""trial_sharp_left_box"",""trial_left_box"",""trial_slight_left_box"",""trial_ahead_box"",""trial_slight_right_box"",""trial_right_box"",""trial_sharp_right_box""]",,,,,,,,,,,,soccerfield.jpg,space,4.98473,"[-0.60277777351439,-0.4157407054332667,-0.22407406416756134,-0.15925924838693054,0.034259329529273026,0.017592606100219267,0.19722223840653896,0.3962963154470479,0.59907409624645]","[-0.2944444562825892,-0.2953703822223125,-0.30092593786065225,-0.30092593786065225,-0.2972222341017591,-0.2879629747045261,-0.2962963081620358,-0.2944444562825892,-0.2842593274596673]","[1,1,1,1,1,1,1,1,1]","[0,0,0,0,0,0,0,0,0]","[0,0,0,0,0,0,0,0,0]","[1.4468449999694712,1.858304999943357,2.2249899999587797,2.457964999950491,2.82441999996081,3.3415749999694526,3.741749999986496,4.179789999965578,4.592594999994617]","[""trial_sharp_left_box"",""trial_left_box"",""trial_slight_left_box"",""trial_ahead_box"",""trial_slight_right_box"",""trial_right_box"",""trial_sharp_right_box""]",0,52,52,88,1,rooftop1.jpg,track.jpg,sculpturegarden4.jpg,sandbox.jpg,,
Image_List_4,,,,,,,,,,,,,,,,44464,2020-11-23_14h47.36.746,lingCatScenes,2020.1.3,Win32,60,"[1536,864]",,,"[""trial_ahead_box"",""trial_sharp_right_box"",""trial_sharp_left_box""]",,,,,,,,,,,,castle2.jpg,space,6.628435,"[0.020370440433423568,-0.4249999648304997,0.3861111301100916,0.5861111330903239,-0.6185185144896861,-0.39259258519720147,0.38518520417036833]","[-0.29166667846341926,-0.30925927131816194,-0.2842593274596673,-0.30277784625413323,-0.2944444562825892,-0.30648149349899206,-0.2944444562825892]","[1,1,1,1,1,1,1]","[0,0,0,0,0,0,0]","[0,0,0,0,0,0,0]","[1.402925000002142,2.5699550000135787,3.4193450000020675,3.985704999999143,4.802919999987353,5.3360699999611825,6.3529449999914505]","[""trial_ahead_box"",""trial_left_box"",""trial_right_box"",""trial_sharp_right_box"",""trial_sharp_left_box"",""trial_left_box"",""trial_right_box""]",0,53,53,18,1,bleachers5.jpg,casino1.jpg,brewery4.jpg,basement6.jpg,,
Image_List_4,,,,,,,,,,,,,,,,44464,2020-11-23_14h47.36.746,lingCatScenes,2020.1.3,Win32,60,"[1536,864]",,,"[""trial_ahead_box""]",,,,,,,,,,,,drymountains5.jpg,space,1.585735,[0.013888902341326078],[-0.30277784625413323],[1],[0],[0],[1.3754199999966659],"[""trial_ahead_box""]",0,54,54,39,1,driveway6.jpg,eyeglassstore9.jpg,drycleaners6.jpg,cliff5.jpg,,
Image_List_4,,,,,,,,,,,,,,,,44464,2020-11-23_14h47.36.746,lingCatScenes,2020.1.3,Win32,60,"[1536,864]",,,"[""trial_left_box""]",,,,,,,,,,,,cave5.jpg,space,1.97032,[-0.39537036301637135],[-0.3046296416195454],[1],[0],[0],[1.6442649999517016],"[""trial_left_box""]",0,55,55,21,1,botanicalGarden6.jpg,cemetery6.jpg,campusquad3.jpg,beach1.jpeg,,
Image_List_4,,,,,,,,,,,,,,,,44464,2020-11-23_14h47.36.746,lingCatScenes,2020.1.3,Win32,60,"[1536,864]",,,"[""trial_ahead_box""]",,,,,,,,,,,,hallway2.jpg,space,1.84581,[0.01574081073480708],[-0.31111112319760853],[1],[0],[0],[1.4878200000384822],"[""trial_ahead_box""]",0,56,56,50,1,frontLawn4.jpg,grocerystore6.jpg,forestpath6.jpg,fireplace4.jpg,,
Image_List_4,,,,,,,,,,,,,,,,44464,2020-11-23_14h47.36.746,lingCatScenes,2020.1.3,Win32,60,"[1536,864]",,,"[""trial_sharp_left_box"",""trial_sharp_right_box""]",,,,,,,,,,,,cabinIndoors.jpg,space,3.66034,"[-0.5990740697554968,0.5935185406081103]","[-0.30370371567982213,-0.2898148265839727]","[1,1]","[0,0]","[0,0]","[1.8229949999949895,3.08968500001356]","[""trial_sharp_left_box"",""trial_sharp_right_box""]",0,57,57,15,1,bambooforest4.jpg,cafeteria5.jpg,bleachers8.jpg,bar8.jpg,,
Image_List_4,,,,,,,,,,,,,,,,44464,2020-11-23_14h47.36.746,lingCatScenes,2020.1.3,Win32,60,"[1536,864]",,,"[""trial_slight_right_box""]",,,,,,,,,,,,doctor1.jpg,space,3.32109,[0.19629631246681567],[-0.2898148265839727],[1],[0],[0],[2.908624999981839],"[""trial_slight_right_box""]",0,58,58,36,1,diner14.jpg,dormroom9.jpg,dining_car3.jpg,checkoutcounter9.jpg,,
Image_List_4,,,,,,,,,,,,,,,,44464,2020-11-23_14h47.36.746,lingCatScenes,2020.1.3,Win32,60,"[1536,864]",,,"[""trial_slight_left_box""]",,,,,,,,,,,,farm4.jpg,space,1.984635,[-0.207407397252542],[-0.30370371567982213],[1],[0],[0],[1.5591899999999441],"[""trial_slight_left_box""]",0,59,59,42,1,exerciseequipment3.jpg,firestation3.jpg,drymountains6.jpg,desertvegetation2.jpg,,
Image_List_4,,,,,,,,,,,,,,,,44464,2020-11-23_14h47.36.746,lingCatScenes,2020.1.3,Win32,60,"[1536,864]",,,"[""trial_slight_left_box""]",,,,,,,,,,,,hut5.jpg,space,3.259875,[-0.17962961906084307],[-0.3046296416195454],[1],[0],[0],[2.225029999972321],"[""trial_slight_left_box""]",0,60,60,57,1,hayfield5.jpg,jail1.jpg,hallway4.jpg,gazebo.jpg,,
Image_List_4,,,,,,,,,,,,,,,,44464,2020-11-23_14h47.36.746,lingCatScenes,2020.1.3,Win32,60,"[1536,864]",,,"[""trial_slight_left_box"",""trial_left_box"",""trial_ahead_box"",""trial_sharp_left_box""]",,,,,,,,,,,,castle4.jpg,space,5.292885,"[-0.17777776718139648,-0.36574073294522585,-0.3898148073780316,-0.609259255092453,0.007407420763262996,-0.609259255092453]","[-0.30925927131816194,-0.3185185307153949,-0.30648149349899206,-0.27129630778950675,-0.29814821655551677,-0.3185185307153949]","[1,1,1,1,1,1]","[0,0,0,0,0,0]","[0,0,0,0,0,0]","[2.355509999964852,2.755384999967646,3.172179999994114,3.38890999997966,4.205059999949299,4.82207999995444]","[""trial_slight_left_box"",""trial_left_box"",""trial_ahead_box"",""trial_sharp_left_box""]",0,61,61,19,1,boardwalk2.jpg,casino3.jpg,cafeteria1.jpg,basketballcourt.jpg,,
Image_List_4,,,,,,,,,,,,,,,,44464,2020-11-23_14h47.36.746,lingCatScenes,2020.1.3,Win32,60,"[1536,864]",,,"[""trial_left_box"",""trial_slight_right_box""]",,,,,,,,,,,,winebarrel4.jpg,space,4.59702,"[-0.4148148077505606,0.22777779441740778,0.21296297938183503]","[-0.29259260440314255,-0.30740747595274975,-0.3203703825948415]","[1,1,1]","[0,0,0]","[0,0,0]","[1.475029999972321,2.8751349999802187,3.5417599999927916]","[""trial_left_box"",""trial_slight_right_box""]",0,62,62,98,1,weightroom5.jpg,wineVineyard8.jpg,warehouse3.jpg,winebarrel2.jpg,,
Image_List_4,,,,,,,,,,,,,,,,44464,2020-11-23_14h47.36.746,lingCatScenes,2020.1.3,Win32,60,"[1536,864]",,,"[""trial_ahead_box""]",,,,,,,,,,,,highway.jpg,space,3.851275,[-0.00833332021203306],[-0.3222222344742881],[1],[0],[0],[2.809575000021141],"[""trial_ahead_box""]",0,63,63,52,1,gasstation7.jpg,hardwarestore1.jpg,frontFoyer6.jpg,forestpath2.jpg,,
Image_List_4,,,,,,,,,,,,,,,,44464,2020-11-23_14h47.36.746,lingCatScenes,2020.1.3,Win32,60,"[1536,864]",,,"[""trial_right_box""]",,,,,,,,,,,,diner11.jpg,space,3.22814,[0.41759261206068377],[-0.3148148269565017],[1],[0],[0],[2.4095649999799207],"[""trial_right_box""]",0,64,64,34,1,deck4.jpg,diningroom5.jpg,courthouse4.jpg,campusquad1.jpg,,
Image_List_4,,,,,,,,,,,,,,,,44464,2020-11-23_14h47.36.746,lingCatScenes,2020.1.3,Win32,60,"[1536,864]",,,"[""trial_left_box""]",,,,,,,,,,,,driveway8.jpg,space,3.472735,[-0.3833333257999685],[-0.2972222341017591],[1],[0],[0],[3.058194999990519],"[""trial_left_box""]",0,65,65,38,1,dining_car2.jpg,elevatorOutside4.jpg,dock1.jpg,classroom1.jpg,,
Image_List_4,,,,,,,,,,,,,,,,44464,2020-11-23_14h47.36.746,lingCatScenes,2020.1.3,Win32,60,"[1536,864]",,,"[""trial_ahead_box""]",,,,,,,,,,,,cemetery3.jpg,space,1.53879,[-0.006481468332586465],[-0.3185185307153949],[1],[0],[0],[1.1924500000313856],"[""trial_ahead_box""]",0,66,66,23,1,bus_shelter.jpg,church8.jpg,carmechanic4.jpeg,bleachers6.jpg,,
Image_List_4,,,,,,,,,,,,,,,,44464,2020-11-23_14h47.36.746,lingCatScenes,2020.1.3,Win32,60,"[1536,864]",,,"[""trial_right_box""]",,,,,,,,,,,,liquorstore2.jpg,space,1.55488,[0.38425927823064504],[-0.27962969776105084],[1],[0],[0],[1.1750400000019],"[""trial_right_box""]",0,67,67,67,1,library_aisle3.jpg,park7.jpg,laundromat4.jpg,hospitalroom2.jpg,,
Image_List_4,,,,,,,,,,,,,,,,44464,2020-11-23_14h47.36.746,lingCatScenes,2020.1.3,Win32,60,"[1536,864]",,,"[""trial_sharp_right_box"",""trial_left_box""]",,,,,,,,,,,,kindergarten_classroom5.jpg,space,5.301905,"[0.6268518744381489,0.6120370594025762,-0.40185184459443446]","[-0.29907408598120566,-0.3055555675592687,-0.30925927131816194]","[1,1,1]","[0,0,0]","[0,0,0]","[2.5914450000273064,3.908095000020694,4.941640000033658]","[""trial_sharp_right_box"",""trial_left_box""]",0,68,68,59,1,homegarden7.jpg,library_aisle8.jpg,highway4.jpg,grocerystore3.jpg,,
Image_List_4,,,,,,,,,,,,,,,,44464,2020-11-23_14h47.36.746,lingCatScenes,2020.1.3,Win32,60,"[1536,864]",,,"[""trial_ahead_box""]",,,,,,,,,,,,courtroom2.jpg,space,1.86211,[1.3245476616753471e-8],[-0.29166667846341926],[1],[0],[0],[1.1086950000026263],"[""trial_ahead_box""]",0,69,69,31,1,cubicle4.jpg,desertvegetation6.jpg,conference4.jpg,cabin3.jpg,,
Image_List_4,,,,,,,,,,,,,,,,44464,2020-11-23_14h47.36.746,lingCatScenes,2020.1.3,Win32,60,"[1536,864]",,,"[""trial_slight_left_box"",""trial_left_box"",""trial_right_box""]",,,,,,,,,,,,windmill1.jpg,space,4.307525,"[-0.19444443409641585,-0.3814814739205219,0.41018520454289736]","[-0.3046296416195454,-0.30740747595274975,-0.2935185868569003]","[1,1,1]","[0,0,0]","[0,0,0]","[1.9091299999854527,2.559320000000298,3.592690000019502]","[""trial_slight_left_box"",""trial_left_box"",""trial_right_box""]",0,70,70,96,1,warehouse4.jpg,warehouseoutside1.jpg,tenniscourt3.jpg,warehouse1.jpg,,
Image_List_4,,,,,,,,,,,,,,,,44464,2020-11-23_14h47.36.746,lingCatScenes,2020.1.3,Win32,60,"[1536,864]",,,"[""trial_slight_left_box""]",,,,,,,,,,,,cemetery.jpg,space,3.021615,[-0.19629628597586243],[-0.31018519725788524],[1],[0],[0],[2.6942099999869242],"[""trial_slight_left_box""]",0,71,71,22,1,bowlingalley5.jpg,church6.jpg,cargo5.jpg,bistrooutdoor6.jpg,,
Image_List_4,,,,,,,,,,,,,,,,44464,2020-11-23_14h47.36.746,lingCatScenes,2020.1.3,Win32,60,"[1536,864]",,,"[""trial_right_box""]",,,,,,,,,,,,copyroom2.jpg,space,2.052035,"[0.42500013260653896,0.41203705642234395]","[-0.30092593786065225,-0.30185186380037554]","[1,1]","[0,0]","[0,0]","[1.276049999985844,1.7761100000352599]","[""trial_right_box""]",0,72,72,30,1,courthouse1.jpg,desertvegetation3.jpg,clothingstore2.jpg,bus_shelter3.jpg,,
Image_List_4,,,,,,,,,,,,,,,,44464,2020-11-23_14h47.36.746,lingCatScenes,2020.1.3,Win32,60,"[1536,864]",,,"[""trial_right_box""]",,,,,,,,,,,,baggageClaim3.jpg,space,4.194135,[0.41851853800040706],[-0.29814821655551677],[1],[0],[0],[2.1568350000306964],"[""trial_right_box""]",0,73,73,7,1,attic2.jpg,banquetHall4.jpg,backstage1.jpg,applestore2.jpg,,
Image_List_4,,,,,,,,,,,,,,,,44464,2020-11-23_14h47.36.746,lingCatScenes,2020.1.3,Win32,60,"[1536,864]",,,"[""trial_slight_left_box"",""trial_left_box""]",,,,,,,,,,,,warehouseoutside2.jpg,space,3.45448,"[-0.19999998973475563,-0.397222214895818]","[-0.3046296416195454,-0.29259260440314255]","[1,1]","[0,0]","[0,0]","[2.1529600000358187,2.602690000028815]","[""trial_slight_left_box"",""trial_left_box""]",0,74,74,93,1,tollbooth8.jpg,volleyballcourt4.jpg,staircase4.jpg,tenniscourt.jpg,,
Image_List_4,,,,,,,,,,,,,,,,44464,2020-11-23_14h47.36.746,lingCatScenes,2020.1.3,Win32,60,"[1536,864]",,,"[""trial_slight_right_box""]",,,,,,,,,,,,diner10.jpg,space,2.74105,[0.1861111271298594],[-0.3046296416195454],[1],[0],[0],[1.8951150000211783],"[""trial_slight_right_box""]",0,75,75,33,1,deck1.jpg,diningroom1.jpg,courthouse2.jpg,cabinIndoors5.jpg,,
Image_List_4,,,,,,,,,,,,,,,,44464,2020-11-23_14h47.36.746,lingCatScenes,2020.1.3,Win32,60,"[1536,864]",,,"[""trial_slight_left_box"",""trial_sharp_left_box""]",,,,,,,,,,,,homegarage4.jpg,space,5.245925,"[-0.2055555453730954,-0.60277777351439]","[-0.3148148269565017,-0.30648149349899206]","[1,1]","[0,0]","[0,0]","[1.9224899999680929,3.338415000005625]","[""trial_slight_left_box"",""trial_sharp_left_box""]",0,76,76,54,1,greenhouse2.jpg,horsebarn11.jpg,gazebo2.jpg,frontFoyer.jpg,,
Image_List_4,,,,,,,,,,,,,,,,44464,2020-11-23_14h47.36.746,lingCatScenes,2020.1.3,Win32,60,"[1536,864]",,,"[""trial_ahead_box"",""trial_slight_left_box"",""trial_slight_right_box""]",,,,,,,,,,,,homegarage3.jpg,space,4.60384,"[0.018518532039942564,-0.2370370273236875,-0.1768518412416732,0.20092594216543216]","[-0.2898148265839727,-0.30833334537843865,-0.30000001192092896,-0.30092593786065225]","[1,1,1,1]","[0,0,0,0]","[0,0,0,0]","[1.729700000025332,2.695010000024922,3.312755000020843,4.128770000010263]","[""trial_ahead_box"",""trial_slight_left_box"",""trial_slight_right_box""]",0,77,77,53,1,gazebo3.jpg,homeoffice.jpg,frontLawn3.jpg,fountain.jpg,,
Image_List_4,,,,,,,,,,,,,,,,44464,2020-11-23_14h47.36.746,lingCatScenes,2020.1.3,Win32,60,"[1536,864]",,,"[""trial_right_box"",""trial_sharp_left_box""]",,,,,,,,,,,,lab5.jpg,space,2.784845,"[0.3861111301100916,-0.5870370042820767]","[-0.30092593786065225,-0.2972222341017591]","[1,1]","[0,0]","[0,0]","[1.2754600000334904,2.4088249999913387]","[""trial_right_box"",""trial_sharp_left_box""]",0,78,78,64,1,igloo2.jpg,newsstand5.jpg,jewelrystore8.jpg,homegarage2.jpg,,
Image_List_4,,,,,,,,,,,,,,,,44464,2020-11-23_14h47.36.746,lingCatScenes,2020.1.3,Win32,60,"[1536,864]",,,"[""trial_right_box""]",,,,,,,,,,,,liquorstore.jpg,space,4.611115,"[0.20092594216543216,0.4314815011565332,0.40277779702511096,0.1842592752504128]","[-0.29166667846341926,-0.29166667846341926,-0.2888889571582838,-0.2888889571582838]","[1,1,1,1]","[0,0,0,0]","[0,0,0,0]","[1.9768400000175461,2.426335000025574,2.72579500003485,3.1101250000065193]","[""trial_slight_right_box"",""trial_right_box"",""trial_slight_right_box""]",0,79,79,66,1,library_aisle10.jpg,office3.jpg,laundromat3.jpg,horsebarn9.jpg,,
Image_List_4,,,,,,,,,,,,,,,,44464,2020-11-23_14h47.36.746,lingCatScenes,2020.1.3,Win32,60,"[1536,864]",,,"[""trial_slight_left_box""]",,,,,,,,,,,,dugout1.jpg,space,3.887045,[-0.2046296194333721],[-0.2898148265839727],[1],[0],[0],[2.8428249999997206],"[""trial_slight_left_box""]",0,80,80,40,1,drycleaners4.jpg,farm1.jpg,drymountains.jpg,clothingstore3.jpg,,
Image_List_4,,,,,,,,,,,,,,,,44464,2020-11-23_14h47.36.746,lingCatScenes,2020.1.3,Win32,60,"[1536,864]",,,"[""trial_sharp_right_box""]",,,,,,,,,,,,golfcourse7.jpg,space,2.85054,[0.5879629849697705],[-0.2861111228250795],[1],[0],[0],[2.3739950000308454],"[""trial_sharp_right_box""]",0,81,81,48,1,frontDoor2.jpg,golfcourse6.jpg,fittingroom5.jpg,fabricstore2.jpg,,
Image_List_4,,,,,,,,,,,,,,,,44464,2020-11-23_14h47.36.746,lingCatScenes,2020.1.3,Win32,60,"[1536,864]",,,"[""trial_ahead_box""]",,,,,,,,,,,,readingroom4.jpg,space,1.42848,[0.017592606100219267],[-0.29074075252369597],[1],[0],[0],[1.2253400000045076],"[""trial_ahead_box""]",0,82,82,82,1,publicrestroom2.jpg,sandDunes_desert_outdoor9.jpg,promenadeDeck3.jpg,postoffice4.jpg,,
Image_List_4,,,,,,,,,,,,,,,,44464,2020-11-23_14h47.36.746,lingCatScenes,2020.1.3,Win32,60,"[1536,864]",,,"[""trial_sharp_left_box""]",,,,,,,,,,,,appleorchard2.jpg,space,2.687695,[-0.5805555509610308],[-0.2888889571582838],[1],[0],[0],[1.9700799999991432],"[""trial_sharp_left_box""]",0,83,83,3,1,apartmentBuilding2.jpg,attic1.jpg,aquarium1.jpg,alley3.jpg,,
Image_List_4,,,,,,,,,,,,,,,,44464,2020-11-23_14h47.36.746,lingCatScenes,2020.1.3,Win32,60,"[1536,864]",,,"[""trial_ahead_box""]",,,,,,,,,,,,pier2.jpg,space,1.68003,[0.014814828281049375],[-0.2972222341017591],[1],[0],[0],[1.3757800000021234],"[""trial_ahead_box""]",0,84,84,79,1,pasture.jpg,poolhall2.jpeg,playground9.jpg,observatory2.jpg,,
Image_List_4,,,,,,,,,,,,,,,,44464,2020-11-23_14h47.36.746,lingCatScenes,2020.1.3,Win32,60,"[1536,864]",,,"[""trial_sharp_right_box"",""trial_sharp_left_box""]",,,,,,,,,,,,fountain4.jpg,space,3.538215,"[0.5907407627889404,-0.5999999956952201]","[-0.2870370487648028,-0.2842593274596673]","[1,1]","[0,0]","[0,0]","[2.4372950000106357,3.303894999960903]","[""trial_sharp_right_box"",""trial_sharp_left_box""]",0,85,85,46,1,flowershop.jpg,frontLawn5.jpg,farmersmarket4.jpg,dormroom6.jpg,,
Image_List_4,,,,,,,,,,,,,,,,44464,2020-11-23_14h47.36.746,lingCatScenes,2020.1.3,Win32,60,"[1536,864]",,,"[""trial_ahead_box""]",,,,,,,,,,,,sandDunes_desert_outdoor8.jpg,space,1.56361,[0.006481551337574105],[-0.2962963081620358],[1],[0],[0],[1.190790000022389],"[""trial_ahead_box""]",0,86,86,86,1,restaurant14.jpg,stripmall.jpg,ruralroad3.jpg,rooftop4.jpg,,
Image_List_4,,,,,,,,,,,,,,,,44464,2020-11-23_14h47.36.746,lingCatScenes,2020.1.3,Win32,60,"[1536,864]",,,"[""trial_slight_left_box""]",,,,,,,,,,,,park8.jpg,space,2.68747,[-0.17870363660708538],[-0.30833334537843865],[1],[0],[0],[1.84220999997342],"[""trial_slight_left_box""]",0,87,87,77,1,parkinggarage2.jpg,playroom6.jpg,pasture9.jpg,mallindoor6.jpg,,
Image_List_4,,,,,,,,,,,,,,,,44464,2020-11-23_14h47.36.746,lingCatScenes,2020.1.3,Win32,60,"[1536,864]",,,"[""trial_slight_right_box""]",,,,,,,,,,,,dining_car6.jpg,space,5.46868,[0.17870371961207301],[-0.30092593786065225],[1],[0],[0],[5.008610000018962],"[""trial_slight_right_box""]",0,88,88,35,1,deck5.jpg,dock3.jpg,cubicle7.jpg,carmechanic2.jpg,,
Image_List_4,,,,,,,,,,,,,,,,44464,2020-11-23_14h47.36.746,lingCatScenes,2020.1.3,Win32,60,"[1536,864]",,,"[""trial_ahead_box""]",,,,,,,,,,,,winebarrel3.jpg,space,1.23052,[0.014814828281049375],[-0.30648149349899206],[1],[0],[0],[0.956975000037346],"[""trial_ahead_box""]",0,89,89,97,1,warehouseoutside4.jpg,wineVineyard2.jpg,waitingroom4.jpg,warehouseoutside3.jpg,,
Image_List_4,,,,,,,,,,,,,,,,44464,2020-11-23_14h47.36.746,lingCatScenes,2020.1.3,Win32,60,"[1536,864]",,,"[""trial_slight_right_box""]",,,,,,,,,,,,kindergarten_classroom6.jpg,space,1.468255,[0.20740742374349525],[-0.30833334537843865],[1],[0],[0],[1.2258450000081211],"[""trial_slight_right_box""]",0,90,90,60,1,hometheater2.jpg,lightingstore3.jpg,homegarage.jpg,hallway.jpg,,
Image_List_4,,,,,,,,,,,,,,,,44464,2020-11-23_14h47.36.746,lingCatScenes,2020.1.3,Win32,60,"[1536,864]",,,"[""trial_sharp_right_box""]",,,,,,,,,,,,dentist4.jpg,space,2.196895,[0.6037037259450665],[-0.2972222341017591],[1],[0],[0],[1.7396399999852292],"[""trial_sharp_right_box""]",0,91,91,32,1,dancestudio6.jpg,diner12.jpg,constructionSite2.jpg,cabin4.jpg,,
Image_List_4,,,,,,,,,,,,,,,,44464,2020-11-23_14h47.36.746,lingCatScenes,2020.1.3,Win32,60,"[1536,864]",,,"[""trial_slight_left_box"",""trial_left_box""]",,,,,,,,,,,,poolhall5.jpg,space,3.03228,"[-0.21203702695115847,-0.36388888106577927,-0.38425925173969183]","[-0.2935185868569003,-0.2879629747045261,-0.2944444562825892]","[1,1,1]","[0,0,0]","[0,0,0]","[1.3099449999863282,1.6599699999787845,1.9427900000009686]","[""trial_slight_left_box"",""trial_left_box""]",0,92,92,80,1,pavilion2.jpg,racecarcourse2.jpg,porch.jpg,parkinggarage4.jpg,,
Image_List_4,,,,,,,,,,,,,,,,44464,2020-11-23_14h47.36.746,lingCatScenes,2020.1.3,Win32,60,"[1536,864]",,,"[""trial_left_box""]",,,,,,,,,,,,bleachers7.jpg,space,2.305515,"[-0.43240740060530325,-0.41018517805194415]","[-0.2953703822223125,-0.2879629747045261]","[1,1]","[0,0]","[0,0]","[1.4422150000464171,1.9084550000261515]","[""trial_left_box""]",0,93,93,12,1,baggageClaim4.jpg,bedroom6.jpg,bambooforest5.jpg,backyard5.jpg,,
Image_List_4,,,,,,,,,,,,,,,,44464,2020-11-23_14h47.36.746,lingCatScenes,2020.1.3,Win32,60,"[1536,864]",,,"[""trial_left_box""]",,,,,,,,,,,,foodcourt6.jpg,space,1.774055,[-0.4064814742930509],[-0.2962963081620358],[1],[0],[0],[1.530109999992419],"[""trial_left_box""]",0,94,94,44,1,firestation2.jpg,frontFoyer4.jpg,elevatorOutside1.jpg,dock2.jpg,,
Image_List_4,,,,,,,,,,,,,,,,44464,2020-11-23_14h47.36.746,lingCatScenes,2020.1.3,Win32,60,"[1536,864]",,,"[""trial_ahead_box""]",,,,,,,,,,,,staircase7.jpg,space,1.69847,[0.010185198582432888],[-0.2972222341017591],[1],[0],[0],[1.3264450000133365],"[""trial_ahead_box""]",0,95,95,89,1,ruralroad7.jpg,track5.jpg,ShowJumping7.jpg,sculpturegarden3.jpg,,
Image_List_4,,,,,,,,,,,,,,,,44464,2020-11-23_14h47.36.746,lingCatScenes,2020.1.3,Win32,60,"[1536,864]",,,"[""trial_slight_right_box"",""trial_right_box""]",,,,,,,,,,,,attic4.jpg,space,2.30881,"[0.20000001622570884,0.3898148338689848]","[-0.2935185868569003,-0.30277784625413323]","[1,1]","[0,0]","[0,0]","[1.3696750000235625,2.0028799999854527]","[""trial_slight_right_box"",""trial_right_box""]",0,96,96,5,1,artStudio3.jpg,bambooforest.jpg,auto_showroom4.jpg,amusement3.jpg,,
Image_List_4,,,,,,,,,,,,,,,,44464,2020-11-23_14h47.36.746,lingCatScenes,2020.1.3,Win32,60,"[1536,864]",,,"[""trial_slight_left_box""]",,,,,,,,,,,,cave4.jpg,space,2.09577,[-0.18796289600431834],[-0.30277784625413323],[1],[0],[0],[1.5726199999917299],"[""trial_slight_left_box""]",0,97,97,20,1,boardwalk6.jpg,cave.jpg,campsite3.jpg,basketballcourt7.jpg,,
Image_List_4,,,,,,,,,,,,,,,,44464,2020-11-23_14h47.36.746,lingCatScenes,2020.1.3,Win32,60,"[1536,864]",,,"[""trial_ahead_box"",""trial_slight_right_box""]",,,,,,,,,,,,igloo4.jpg,space,3.530805,"[-0.00462961645313987,0.19629631246681567]","[-0.31666673534998274,-0.2851851968853562]","[1,1]","[0,0]","[0,0]","[2.5587350000278093,3.142214999999851]","[""trial_ahead_box"",""trial_slight_right_box""]",0,98,98,58,1,highway7.jpg,lab1.jpg,hedgemaze1.jpg,grocerystore2.jpg,,
Image_List_4,,,,,,,,,,,,,,,,44464,2020-11-23_14h47.36.746,lingCatScenes,2020.1.3,Win32,60,"[1536,864]",,,"[""trial_right_box"",""trial_sharp_left_box""]",,,,,,,,,,,,museum4.jpg,space,3.739425,"[0.41203705642234395,-0.5916666339806932]","[-0.3046296416195454,-0.2962963081620358]","[1,1]","[0,0]","[0,0]","[1.5478199999779463,2.6983449999825098]","[""trial_right_box"",""trial_sharp_left_box""]",0,99,99,72,1,museum5.jpg,pharmacy4.jpg,musicStore1.jpg,kindergarten_classroom.jpg,,
Image_List_4,,,,,,,,,,,,,,,,44464,2020-11-23_14h47.36.746,lingCatScenes,2020.1.3,Win32,60,,,,,,,,,,,,,,,,,,,,,,,,,,,,,,,,,,,space,36.273045
