image_list,key_resp_intructions.keys,key_resp_intructions.rt,key_resp_intructions_3.keys,key_resp_intructions_3.rt,PracticeComplete_2.keys,PracticeComplete_2.rt,PracticeComplete_3.keys,PracticeComplete_3.rt,demo_trials.thisRepN,demo_trials.thisTrialN,demo_trials.thisN,demo_trials.thisIndex,demo_trials.ran,demo_images,path_images,participant,date,expName,psychopyVersion,OS,frameRate,windowSize,drawing,numDrawings,drawingSizes,practice_complete.keys,practice_complete.rt,PracticeComplete.keys,PracticeComplete.rt,practice_trials.thisRepN,practice_trials.thisTrialN,practice_trials.thisN,practice_trials.thisIndex,practice_trials.ran,practice_images,feedback_images,key_resp_intructions_2.keys,key_resp_intructions_2.rt,Image_List_5,trial_complete.keys,trial_complete.rt,trials.thisRepN,trials.thisTrialN,trials.thisN,trials.thisIndex,trials.ran,Image_List_1,Image_List_2,Image_List_3,Image_List_4,key_resp.keys,key_resp.rt
Image_List_5,space,7.240525,space,2.050165,space,5.533595,space,2.010665,0,0,0,6,1,right_left.jpg,right_left_path.jpg,44481,2020-11-23_20h37.10.953,analogCatScenes,2020.1.3,Win32,60,,,,,,,,,,,,,,,,,,,,,,,,,,,,,,,
Image_List_5,,,,,space,2.27973,space,1.837005,0,1,1,3,1,ahead_right_left.jpg,ahead_right_left_path.jpg,44481,2020-11-23_20h37.10.953,analogCatScenes,2020.1.3,Win32,60,,,,,,,,,,,,,,,,,,,,,,,,,,,,,,,
Image_List_5,,,,,space,0.78015,space,1.82931,0,2,2,5,1,right.jpg,right_path.jpg,44481,2020-11-23_20h37.10.953,analogCatScenes,2020.1.3,Win32,60,,,,,,,,,,,,,,,,,,,,,,,,,,,,,,,
Image_List_5,,,,,space,0.888975,space,4.056285,0,3,3,1,1,ahead_left.jpg,ahead_left_path.jpg,44481,2020-11-23_20h37.10.953,analogCatScenes,2020.1.3,Win32,60,,,,,,,,,,,,,,,,,,,,,,,,,,,,,,,
Image_List_5,,,,,space,1.11017,space,2.962695,0,4,4,4,1,left.jpg,left_path.jpg,44481,2020-11-23_20h37.10.953,analogCatScenes,2020.1.3,Win32,60,,,,,,,,,,,,,,,,,,,,,,,,,,,,,,,
Image_List_5,,,,,space,4.881105,space,1.38115,0,5,5,0,1,ahead.jpg,ahead_path.jpg,44481,2020-11-23_20h37.10.953,analogCatScenes,2020.1.3,Win32,60,,,,,,,,,,,,,,,,,,,,,,,,,,,,,,,
Image_List_5,,,,,space,1.120645,space,12.789095,0,6,6,2,1,ahead_right.jpg,ahead_right_path.jpg,44481,2020-11-23_20h37.10.953,analogCatScenes,2020.1.3,Win32,60,,,,,,,,,,,,,,,,,,,,,,,,,,,,,,,
Image_List_5,,,,,,,,,,,,,,,,44481,2020-11-23_20h37.10.953,analogCatScenes,2020.1.3,Win32,60,"[1920,1080]",[],0,[],space,4.83524,space,8.66831,0,0,0,4,1,left_2.jpg,left_2_path.jpg,,,,,,,,,,,,,,,,
Image_List_5,,,,,,,,,,,,,,,,44481,2020-11-23_20h37.10.953,analogCatScenes,2020.1.3,Win32,60,"[1920,1080]",[],0,[],space,0.04407,space,1.609735,0,1,1,2,1,ahead_right_2.jpg,ahead_right_2_path.jpg,,,,,,,,,,,,,,,,
Image_List_5,,,,,,,,,,,,,,,,44481,2020-11-23_20h37.10.953,analogCatScenes,2020.1.3,Win32,60,"[1920,1080]",[],0,[],space,4.958025,space,5.70488,0,2,2,5,1,right_2.jpg,right_2_path.jpg,,,,,,,,,,,,,,,,
Image_List_5,,,,,,,,,,,,,,,,44481,2020-11-23_20h37.10.953,analogCatScenes,2020.1.3,Win32,60,"[1920,1080]",[],0,[],space,0.93821,space,0.709635,0,3,3,0,1,ahead_2.jpg,ahead_2_path.jpg,,,,,,,,,,,,,,,,
Image_List_5,,,,,,,,,,,,,,,,44481,2020-11-23_20h37.10.953,analogCatScenes,2020.1.3,Win32,60,"[1920,1080]",[],0,[],space,0.66,space,0.474185,0,4,4,6,1,right_left_2.jpg,right_left_2_path.jpg,,,,,,,,,,,,,,,,
Image_List_5,,,,,,,,,,,,,,,,44481,2020-11-23_20h37.10.953,analogCatScenes,2020.1.3,Win32,60,"[1920,1080]",[],0,[],space,0.635115,space,0.97024,0,5,5,1,1,ahead_left_2.jpg,ahead_left_2_path.jpg,,,,,,,,,,,,,,,,
Image_List_5,,,,,,,,,,,,,,,,44481,2020-11-23_20h37.10.953,analogCatScenes,2020.1.3,Win32,60,"[1920,1080]","[[[0.003703703703703704,-0.19814814814814816],[0.003703703703703704,-0.19814814814814816],[0.003703703703703704,-0.19814814814814816],[0.003703703703703704,-0.19814814814814816],[0.003703703703703704,-0.19814814814814816],[0.003703703703703704,-0.19814814814814816],[0.003703703703703704,-0.19722222222222222],[0.003703703703703704,-0.19444444444444445],[0.003703703703703704,-0.18888888888888888],[0.003703703703703704,-0.18333333333333332],[0.004629629629629629,-0.1787037037037037],[0.004629629629629629,-0.17222222222222222],[0.005555555555555556,-0.1648148148148148],[0.006481481481481481,-0.15555555555555556],[0.006481481481481481,-0.14814814814814814],[0.007407407407407408,-0.14074074074074075],[0.007407407407407408,-0.13518518518518519],[0.007407407407407408,-0.12962962962962962],[0.008333333333333333,-0.125],[0.008333333333333333,-0.11944444444444445],[0.009259259259259259,-0.11481481481481481],[0.009259259259259259,-0.10925925925925926],[0.011111111111111112,-0.1037037037037037],[0.011111111111111112,-0.10185185185185185],[0.011111111111111112,-0.10092592592592593],[0.011111111111111112,-0.10092592592592593],[0.011111111111111112,-0.10092592592592593],[0.011111111111111112,-0.10092592592592593],[0.011111111111111112,-0.10092592592592593],[0.011111111111111112,-0.1],[0.011111111111111112,-0.1],[0.011111111111111112,-0.1],[0.011111111111111112,-0.1],[0.011111111111111112,-0.1],[0.012037037037037037,-0.1],[0.012037037037037037,-0.1],[0.012037037037037037,-0.1],[0.012037037037037037,-0.1],[0.012037037037037037,-0.1],[0.012037037037037037,-0.1],[0.012037037037037037,-0.1],[0.012037037037037037,-0.1],[0.012037037037037037,-0.1],[0.012037037037037037,-0.1],[0.012037037037037037,-0.1],[0.012037037037037037,-0.1],[0.012037037037037037,-0.1],[0.012037037037037037,-0.1],[0.011111111111111112,-0.1],[0.011111111111111112,-0.1],[0.011111111111111112,-0.1],[0.011111111111111112,-0.1],[0.011111111111111112,-0.1],[0.011111111111111112,-0.1],[0.011111111111111112,-0.1],[0.011111111111111112,-0.1],[0.011111111111111112,-0.1],[0.011111111111111112,-0.1],[0.011111111111111112,-0.1],[0.011111111111111112,-0.1],[0.011111111111111112,-0.1],[0.011111111111111112,-0.1],[0.011111111111111112,-0.1],[0.011111111111111112,-0.1],[0.011111111111111112,-0.1],[0.011111111111111112,-0.1],[0.011111111111111112,-0.1],[0.011111111111111112,-0.1],[0.011111111111111112,-0.1],[0.011111111111111112,-0.1],[0.011111111111111112,-0.1],[0.011111111111111112,-0.1],[0.011111111111111112,-0.1],[0.011111111111111112,-0.1],[0.011111111111111112,-0.1],[0.011111111111111112,-0.1],[0.011111111111111112,-0.1],[0.011111111111111112,-0.1],[0.011111111111111112,-0.1],[0.011111111111111112,-0.1],[0.011111111111111112,-0.1],[0.011111111111111112,-0.1],[0.012037037037037037,-0.09074074074074075],[0.012962962962962963,-0.07777777777777778],[0.014814814814814815,-0.06851851851851852],[0.01574074074074074,-0.05925925925925926],[0.017592592592592594,-0.05277777777777778],[0.018518518518518517,-0.04722222222222222],[0.019444444444444445,-0.04259259259259259],[0.019444444444444445,-0.040740740740740744],[0.020370370370370372,-0.03796296296296296],[0.020370370370370372,-0.037037037037037035],[0.020370370370370372,-0.03611111111111111],[0.020370370370370372,-0.03611111111111111],[0.020370370370370372,-0.03611111111111111],[0.020370370370370372,-0.03611111111111111],[0.020370370370370372,-0.03611111111111111],[0.020370370370370372,-0.03611111111111111],[0.020370370370370372,-0.03611111111111111],[0.020370370370370372,-0.03611111111111111],[0.020370370370370372,-0.03611111111111111],[0.020370370370370372,-0.03611111111111111],[0.020370370370370372,-0.03611111111111111],[0.020370370370370372,-0.03611111111111111],[0.020370370370370372,-0.03611111111111111],[0.020370370370370372,-0.03611111111111111],[0.020370370370370372,-0.03611111111111111],[0.020370370370370372,-0.03611111111111111],[0.020370370370370372,-0.03611111111111111],[0.020370370370370372,-0.03518518518518519],[0.020370370370370372,-0.03518518518518519],[0.020370370370370372,-0.03518518518518519],[0.020370370370370372,-0.03518518518518519],[0.020370370370370372,-0.03425925925925926],[0.020370370370370372,-0.03148148148148148],[0.020370370370370372,-0.02962962962962963],[0.019444444444444445,-0.027777777777777776],[0.018518518518518517,-0.025925925925925925],[0.018518518518518517,-0.023148148148148147],[0.018518518518518517,-0.021296296296296296],[0.017592592592592594,-0.019444444444444445],[0.017592592592592594,-0.017592592592592594],[0.017592592592592594,-0.01574074074074074],[0.016666666666666666,-0.012037037037037037],[0.016666666666666666,-0.008333333333333333],[0.016666666666666666,-0.005555555555555556],[0.01574074074074074,-0.001851851851851852],[0.01574074074074074,0],[0.01574074074074074,0.000925925925925926],[0.01574074074074074,0.001851851851851852],[0.01574074074074074,0.001851851851851852],[0.01574074074074074,0.001851851851851852],[0.01574074074074074,0.001851851851851852],[0.01574074074074074,0.001851851851851852],[0.01574074074074074,0.001851851851851852],[0.01574074074074074,0.001851851851851852]],[[0.000925925925925926,-0.1925925925925926],[0,-0.1925925925925926],[0,-0.1925925925925926],[0,-0.1925925925925926],[0,-0.1925925925925926],[0,-0.1925925925925926],[-0.000925925925925926,-0.1935185185185185],[-0.011111111111111112,-0.18981481481481483],[-0.027777777777777776,-0.1824074074074074],[-0.04259259259259259,-0.175],[-0.05462962962962963,-0.1675925925925926],[-0.06759259259259259,-0.15833333333333333],[-0.0787037037037037,-0.14907407407407408],[-0.09166666666666666,-0.13796296296296295],[-0.10925925925925926,-0.125],[-0.1259259259259259,-0.11203703703703703],[-0.1425925925925926,-0.09814814814814815],[-0.1537037037037037,-0.08703703703703704],[-0.15833333333333333,-0.07962962962962963],[-0.1648148148148148,-0.07037037037037037],[-0.1685185185185185,-0.06296296296296296],[-0.17222222222222222,-0.05648148148148148],[-0.17407407407407408,-0.05092592592592592],[-0.17685185185185184,-0.04537037037037037],[-0.17962962962962964,-0.03796296296296296],[-0.18055555555555555,-0.032407407407407406],[-0.1824074074074074,-0.025],[-0.18518518518518517,-0.019444444444444445],[-0.18611111111111112,-0.012962962962962963],[-0.18796296296296297,-0.007407407407407408],[-0.18888888888888888,-0.002777777777777778],[-0.18888888888888888,-0.001851851851851852],[-0.18981481481481483,-0.001851851851851852],[-0.18981481481481483,-0.001851851851851852],[-0.18981481481481483,-0.001851851851851852],[-0.18981481481481483,-0.000925925925925926],[-0.18981481481481483,-0.000925925925925926],[-0.18981481481481483,-0.000925925925925926],[-0.18981481481481483,-0.000925925925925926],[-0.18981481481481483,-0.000925925925925926]]]",2,"[136,40]",space,13.36431,space,1.29902,0,6,6,3,1,ahead_right_left_2.jpg,ahead_right_left_2_path.jpg,,,,,,,,,,,,,,,,
Image_List_5,,,,,,,,,,,,,,,,44481,2020-11-23_20h37.10.953,analogCatScenes,2020.1.3,Win32,60,"[1920,1080]","[[[-0.000925925925925926,-0.20555555555555555],[-0.000925925925925926,-0.20555555555555555],[-0.000925925925925926,-0.20555555555555555],[-0.000925925925925926,-0.20555555555555555],[-0.000925925925925926,-0.20555555555555555],[-0.000925925925925926,-0.20555555555555555],[-0.000925925925925926,-0.20555555555555555],[-0.000925925925925926,-0.20555555555555555],[-0.000925925925925926,-0.20555555555555555],[-0.000925925925925926,-0.20555555555555555],[-0.000925925925925926,-0.20555555555555555],[-0.000925925925925926,-0.20555555555555555],[-0.000925925925925926,-0.20555555555555555],[-0.000925925925925926,-0.20555555555555555],[0,-0.2064814814814815],[0,-0.22407407407407406],[0,-0.23425925925925925],[0,-0.24074074074074073],[0,-0.24537037037037038],[-0.000925925925925926,-0.2490740740740741],[-0.000925925925925926,-0.25]],[[0.001851851851851852,-0.19814814814814816],[0.001851851851851852,-0.19814814814814816],[0.001851851851851852,-0.19814814814814816],[0.001851851851851852,-0.19814814814814816],[0.001851851851851852,-0.19814814814814816],[0.001851851851851852,-0.19814814814814816],[0.001851851851851852,-0.19814814814814816],[0.001851851851851852,-0.19814814814814816],[0.001851851851851852,-0.19814814814814816],[0.001851851851851852,-0.19814814814814816],[0.001851851851851852,-0.19814814814814816],[0.002777777777777778,-0.19814814814814816],[0.002777777777777778,-0.19814814814814816],[0.002777777777777778,-0.19814814814814816],[0.018518518518518517,-0.20462962962962963],[0.03611111111111111,-0.20833333333333334],[0.040740740740740744,-0.20833333333333334],[0.04814814814814815,-0.20925925925925926],[0.06111111111111111,-0.2101851851851852],[0.06759259259259259,-0.2101851851851852],[0.0712962962962963,-0.2101851851851852],[0.07314814814814814,-0.2101851851851852],[0.07592592592592592,-0.2101851851851852],[0.07962962962962963,-0.2101851851851852],[0.08611111111111111,-0.20925925925925926],[0.09166666666666666,-0.20833333333333334],[0.09814814814814815,-0.2074074074074074],[0.1037037037037037,-0.2064814814814815],[0.10925925925925926,-0.20555555555555555],[0.11388888888888889,-0.20555555555555555],[0.12037037037037036,-0.20462962962962963],[0.12685185185185185,-0.20462962962962963],[0.13425925925925927,-0.2037037037037037],[0.1398148148148148,-0.20277777777777778],[0.14444444444444443,-0.20185185185185187],[0.14722222222222223,-0.20185185185185187],[0.15092592592592594,-0.20092592592592592],[0.15555555555555556,-0.20092592592592592],[0.15925925925925927,-0.20092592592592592],[0.16203703703703703,-0.20092592592592592],[0.1648148148148148,-0.20092592592592592],[0.16944444444444445,-0.2],[0.17407407407407408,-0.2],[0.17777777777777778,-0.2],[0.18055555555555555,-0.2],[0.1824074074074074,-0.2],[0.18518518518518517,-0.2],[0.18796296296296297,-0.2],[0.1935185185185185,-0.20092592592592592],[0.1962962962962963,-0.20092592592592592],[0.19907407407407407,-0.20092592592592592],[0.20092592592592592,-0.20092592592592592],[0.20277777777777778,-0.20092592592592592],[0.2064814814814815,-0.20092592592592592],[0.20925925925925926,-0.20092592592592592],[0.21388888888888888,-0.19907407407407407],[0.21851851851851853,-0.19722222222222222],[0.2222222222222222,-0.1962962962962963],[0.225,-0.19444444444444445],[0.22592592592592592,-0.1935185185185185],[0.22777777777777777,-0.1925925925925926],[0.22870370370370371,-0.1925925925925926],[0.23055555555555557,-0.1925925925925926],[0.23055555555555557,-0.19166666666666668],[0.23148148148148148,-0.19166666666666668],[0.23148148148148148,-0.19166666666666668],[0.23148148148148148,-0.19166666666666668],[0.2324074074074074,-0.19166666666666668],[0.23333333333333334,-0.19166666666666668],[0.2351851851851852,-0.19166666666666668],[0.2388888888888889,-0.19074074074074074],[0.24259259259259258,-0.19074074074074074],[0.24537037037037038,-0.19074074074074074],[0.2462962962962963,-0.18981481481481483],[0.25092592592592594,-0.18981481481481483],[0.25462962962962965,-0.18888888888888888],[0.2574074074074074,-0.18888888888888888],[0.2601851851851852,-0.18888888888888888],[0.26296296296296295,-0.18888888888888888],[0.26481481481481484,-0.18888888888888888],[0.26666666666666666,-0.18796296296296297],[0.26851851851851855,-0.18796296296296297],[0.26851851851851855,-0.18796296296296297],[0.26851851851851855,-0.18703703703703703],[0.26851851851851855,-0.18703703703703703]]]",2,"[21,85]",,,,,,,,,,,,space,4.496065,observatory1.jpg,space,12.003575,0,0,0,78,1,parkinglot3.jpg,poolhall1.jpg,pier5.jpg,pavilion3.jpg,,
Image_List_5,,,,,,,,,,,,,,,,44481,2020-11-23_20h37.10.953,analogCatScenes,2020.1.3,Win32,60,"[1920,1080]","[[[0.000925925925925926,-0.20185185185185187],[0.000925925925925926,-0.20185185185185187],[0.000925925925925926,-0.20185185185185187],[0.000925925925925926,-0.20185185185185187],[0.000925925925925926,-0.20185185185185187],[0.000925925925925926,-0.20185185185185187],[0.000925925925925926,-0.20185185185185187],[0.000925925925925926,-0.20185185185185187],[-0.005555555555555556,-0.19907407407407407],[-0.026851851851851852,-0.18981481481481483],[-0.05185185185185185,-0.18055555555555555],[-0.06759259259259259,-0.17407407407407408],[-0.07592592592592592,-0.1685185185185185],[-0.08148148148148149,-0.16574074074074074],[-0.09074074074074075,-0.15833333333333333],[-0.1,-0.15],[-0.10740740740740741,-0.1425925925925926],[-0.11481481481481481,-0.13518518518518519],[-0.12314814814814815,-0.12685185185185185],[-0.12962962962962962,-0.11944444444444445],[-0.13425925925925927,-0.11296296296296296],[-0.14074074074074075,-0.10462962962962963],[-0.14814814814814814,-0.09537037037037037],[-0.1537037037037037,-0.08796296296296297],[-0.15833333333333333,-0.0824074074074074],[-0.1638888888888889,-0.07407407407407407],[-0.1685185185185185,-0.06759259259259259],[-0.175,-0.058333333333333334],[-0.1814814814814815,-0.05],[-0.18888888888888888,-0.040740740740740744],[-0.19537037037037036,-0.032407407407407406],[-0.19907407407407407,-0.026851851851851852],[-0.20277777777777778,-0.022222222222222223],[-0.2074074074074074,-0.01574074074074074],[-0.21203703703703702,-0.010185185185185186],[-0.21666666666666667,-0.003703703703703704],[-0.22037037037037038,0.000925925925925926],[-0.22314814814814815,0.004629629629629629],[-0.225,0.008333333333333333],[-0.22685185185185186,0.010185185185185186],[-0.22870370370370371,0.012037037037037037],[-0.23148148148148148,0.016666666666666666],[-0.23425925925925925,0.020370370370370372],[-0.2388888888888889,0.025],[-0.24074074074074073,0.028703703703703703],[-0.24444444444444444,0.032407407407407406],[-0.24814814814814815,0.03796296296296296],[-0.25092592592592594,0.041666666666666664],[-0.25462962962962965,0.044444444444444446],[-0.25833333333333336,0.04814814814814815],[-0.2611111111111111,0.05092592592592592],[-0.26481481481481484,0.05462962962962963],[-0.26851851851851855,0.058333333333333334],[-0.2740740740740741,0.06111111111111111],[-0.2796296296296296,0.06481481481481481],[-0.2833333333333333,0.06851851851851852],[-0.2861111111111111,0.0712962962962963],[-0.28703703703703703,0.07222222222222222],[-0.287962962962963,0.07222222222222222],[-0.28888888888888886,0.07314814814814814],[-0.28888888888888886,0.07314814814814814],[-0.28888888888888886,0.07407407407407407],[-0.28888888888888886,0.07407407407407407],[-0.2898148148148148,0.075],[-0.29074074074074074,0.07777777777777778],[-0.29259259259259257,0.08055555555555556],[-0.2962962962962963,0.08425925925925926],[-0.29907407407407405,0.08888888888888889],[-0.30185185185185187,0.09537037037037037],[-0.30462962962962964,0.1],[-0.30833333333333335,0.10555555555555556],[-0.31296296296296294,0.11388888888888889],[-0.31666666666666665,0.12222222222222222],[-0.3212962962962963,0.12962962962962962],[-0.32407407407407407,0.13703703703703704],[-0.3277777777777778,0.1425925925925926],[-0.3314814814814815,0.14722222222222223],[-0.33240740740740743,0.15],[-0.33425925925925926,0.15185185185185185],[-0.33425925925925926,0.1527777777777778],[-0.33425925925925926,0.1527777777777778],[-0.33425925925925926,0.1527777777777778],[-0.33425925925925926,0.1537037037037037]],[[-0.005555555555555556,-0.1925925925925926],[-0.005555555555555556,-0.1925925925925926],[-0.005555555555555556,-0.1925925925925926],[-0.005555555555555556,-0.1925925925925926],[-0.005555555555555556,-0.1925925925925926],[-0.005555555555555556,-0.1925925925925926],[-0.005555555555555556,-0.1925925925925926],[-0.000925925925925926,-0.19074074074074074],[0.014814814814814815,-0.18518518518518517],[0.027777777777777776,-0.1814814814814815],[0.03148148148148148,-0.18055555555555555],[0.03611111111111111,-0.17777777777777778],[0.04814814814814815,-0.17314814814814813],[0.05648148148148148,-0.1712962962962963],[0.06018518518518518,-0.16944444444444445],[0.06759259259259259,-0.1685185185185185],[0.07592592592592592,-0.1675925925925926],[0.08518518518518518,-0.16666666666666666],[0.09351851851851851,-0.16574074074074074],[0.1,-0.16574074074074074],[0.10925925925925926,-0.1648148148148148],[0.11944444444444445,-0.16296296296296298],[0.1259259259259259,-0.16203703703703703],[0.13240740740740742,-0.16111111111111112],[0.14166666666666666,-0.15833333333333333],[0.15185185185185185,-0.1537037037037037],[0.16203703703703703,-0.14907407407407408],[0.16944444444444445,-0.14629629629629629],[0.17685185185185184,-0.14444444444444443],[0.18518518518518517,-0.14074074074074075],[0.1935185185185185,-0.13703703703703704],[0.19814814814814816,-0.13425925925925927],[0.20462962962962963,-0.13148148148148148],[0.21296296296296297,-0.12962962962962962],[0.21944444444444444,-0.12685185185185185],[0.22592592592592592,-0.125],[0.2324074074074074,-0.12407407407407407],[0.23981481481481481,-0.12222222222222222],[0.2462962962962963,-0.11944444444444445],[0.2537037037037037,-0.1175925925925926],[0.262037037037037,-0.11574074074074074],[0.2712962962962963,-0.11388888888888889],[0.2796296296296296,-0.1111111111111111],[0.287962962962963,-0.10925925925925926],[0.29814814814814816,-0.10555555555555556],[0.30833333333333335,-0.10185185185185185],[0.31851851851851853,-0.1],[0.32592592592592595,-0.09907407407407408],[0.3314814814814815,-0.09722222222222222],[0.337037037037037,-0.09537037037037037],[0.3435185185185185,-0.09351851851851851],[0.3472222222222222,-0.09259259259259259]],[[-0.000925925925925926,-0.2],[-0.000925925925925926,-0.2],[-0.000925925925925926,-0.2],[-0.000925925925925926,-0.2],[-0.000925925925925926,-0.2],[-0.000925925925925926,-0.2],[-0.000925925925925926,-0.19907407407407407],[0.003703703703703704,-0.1935185185185185],[0.013888888888888888,-0.18518518518518517],[0.022222222222222223,-0.17777777777777778],[0.02962962962962963,-0.1712962962962963],[0.03796296296296296,-0.1648148148148148],[0.04351851851851852,-0.15925925925925927],[0.053703703703703705,-0.15185185185185185],[0.06296296296296296,-0.14444444444444443],[0.0712962962962963,-0.13796296296296295],[0.07685185185185185,-0.13333333333333333],[0.08148148148148149,-0.12962962962962962],[0.08611111111111111,-0.12407407407407407],[0.08888888888888889,-0.11944444444444445],[0.09166666666666666,-0.11574074074074074],[0.09259259259259259,-0.11296296296296296],[0.09351851851851851,-0.10925925925925926],[0.09537037037037037,-0.1037037037037037],[0.09537037037037037,-0.09814814814814815],[0.09537037037037037,-0.09444444444444444],[0.09537037037037037,-0.08981481481481482],[0.09444444444444444,-0.08333333333333333],[0.09351851851851851,-0.07685185185185185],[0.09351851851851851,-0.07222222222222222],[0.09259259259259259,-0.06851851851851852],[0.09259259259259259,-0.06481481481481481],[0.09166666666666666,-0.06111111111111111],[0.09166666666666666,-0.05648148148148148],[0.09074074074074075,-0.053703703703703705],[0.09074074074074075,-0.049074074074074076],[0.08981481481481482,-0.046296296296296294],[0.08888888888888889,-0.040740740740740744],[0.08703703703703704,-0.03518518518518519],[0.08518518518518518,-0.026851851851851852],[0.08425925925925926,-0.022222222222222223],[0.08333333333333333,-0.019444444444444445],[0.08333333333333333,-0.018518518518518517],[0.0824074074074074,-0.01574074074074074],[0.08055555555555556,-0.012037037037037037],[0.0787037037037037,-0.007407407407407408],[0.07685185185185185,-0.003703703703703704],[0.07592592592592592,-0.000925925925925926],[0.07407407407407407,0],[0.07314814814814814,0.002777777777777778],[0.07222222222222222,0.004629629629629629],[0.07037037037037037,0.006481481481481481],[0.06851851851851852,0.007407407407407408],[0.06759259259259259,0.009259259259259259],[0.06574074074074074,0.011111111111111112],[0.06481481481481481,0.012962962962962963],[0.06388888888888888,0.012962962962962963],[0.06388888888888888,0.012962962962962963],[0.06388888888888888,0.012962962962962963],[0.06388888888888888,0.012962962962962963],[0.06388888888888888,0.012962962962962963],[0.06388888888888888,0.012962962962962963],[0.06388888888888888,0.012962962962962963],[0.06388888888888888,0.012962962962962963],[0.06388888888888888,0.012962962962962963],[0.06388888888888888,0.012962962962962963],[0.06388888888888888,0.012962962962962963],[0.06388888888888888,0.012962962962962963],[0.06388888888888888,0.012962962962962963],[0.06388888888888888,0.012962962962962963],[0.06388888888888888,0.012962962962962963],[0.06388888888888888,0.012962962962962963],[0.06388888888888888,0.012962962962962963],[0.06388888888888888,0.012962962962962963],[0.06388888888888888,0.012962962962962963]],[[0,-0.20277777777777778],[-0.013888888888888888,-0.20277777777777778],[-0.03611111111111111,-0.20277777777777778],[-0.049074074074074076,-0.20462962962962963],[-0.05277777777777778,-0.20555555555555555],[-0.05555555555555555,-0.20555555555555555],[-0.06018518518518518,-0.20555555555555555],[-0.07407407407407407,-0.20555555555555555],[-0.09166666666666666,-0.20277777777777778],[-0.10648148148148148,-0.2],[-0.11666666666666667,-0.19814814814814816],[-0.1287037037037037,-0.1962962962962963],[-0.14351851851851852,-0.1935185185185185],[-0.16203703703703703,-0.18981481481481483],[-0.17777777777777778,-0.18796296296296297],[-0.1935185185185185,-0.18425925925925926],[-0.20833333333333334,-0.1824074074074074],[-0.22037037037037038,-0.1787037037037037],[-0.23055555555555557,-0.17777777777777778],[-0.23703703703703705,-0.17592592592592593],[-0.24074074074074073,-0.17592592592592593],[-0.24259259259259258,-0.175],[-0.2462962962962963,-0.17592592592592593],[-0.25277777777777777,-0.1787037037037037],[-0.25833333333333336,-0.1814814814814815],[-0.2611111111111111,-0.1824074074074074],[-0.2638888888888889,-0.18425925925925926],[-0.26666666666666666,-0.18518518518518517],[-0.2712962962962963,-0.18796296296296297],[-0.2759259259259259,-0.18981481481481483],[-0.2796296296296296,-0.19074074074074074],[-0.2833333333333333,-0.19166666666666668],[-0.29259259259259257,-0.1935185185185185],[-0.29907407407407405,-0.19444444444444445],[-0.3037037037037037,-0.19444444444444445],[-0.3055555555555556,-0.19444444444444445],[-0.30833333333333335,-0.19444444444444445]]]",4,"[83,52,75,37]",,,,,,,,,,,,,,grocerystore3.jpg,space,9.73755,0,1,1,59,1,homegarden7.jpg,library_aisle8.jpg,highway4.jpg,kindergarten_classroom5.jpg,,
Image_List_5,,,,,,,,,,,,,,,,44481,2020-11-23_20h37.10.953,analogCatScenes,2020.1.3,Win32,60,"[1920,1080]","[[[-0.003703703703703704,-0.2],[-0.003703703703703704,-0.2],[-0.003703703703703704,-0.2],[-0.003703703703703704,-0.19907407407407407],[-0.003703703703703704,-0.19814814814814816],[-0.003703703703703704,-0.1935185185185185],[-0.005555555555555556,-0.18611111111111112],[-0.007407407407407408,-0.17685185185185184],[-0.008333333333333333,-0.1648148148148148],[-0.011111111111111112,-0.15],[-0.012037037037037037,-0.13703703703703704],[-0.012962962962962963,-0.12407407407407407],[-0.013888888888888888,-0.11203703703703703],[-0.014814814814814815,-0.10185185185185185],[-0.01574074074074074,-0.09351851851851851],[-0.016666666666666666,-0.08796296296296297],[-0.017592592592592594,-0.08333333333333333],[-0.018518518518518517,-0.07685185185185185],[-0.020370370370370372,-0.07314814814814814],[-0.022222222222222223,-0.06944444444444445],[-0.022222222222222223,-0.06574074074074074],[-0.025,-0.05925925925925926],[-0.028703703703703703,-0.05185185185185185],[-0.03148148148148148,-0.04259259259259259],[-0.03518518518518519,-0.030555555555555555],[-0.037037037037037035,-0.017592592592592594],[-0.03888888888888889,-0.009259259259259259],[-0.03888888888888889,-0.002777777777777778],[-0.03888888888888889,0.004629629629629629],[-0.03888888888888889,0.012962962962962963],[-0.03796296296296296,0.018518518518518517],[-0.037037037037037035,0.025],[-0.037037037037037035,0.028703703703703703],[-0.03611111111111111,0.03333333333333333],[-0.03518518518518519,0.03611111111111111],[-0.03518518518518519,0.03796296296296296],[-0.03425925925925926,0.04259259259259259],[-0.032407407407407406,0.04722222222222222],[-0.030555555555555555,0.05092592592592592],[-0.028703703703703703,0.05740740740740741],[-0.026851851851851852,0.06296296296296296],[-0.024074074074074074,0.06851851851851852],[-0.022222222222222223,0.075],[-0.019444444444444445,0.08148148148148149],[-0.017592592592592594,0.08703703703703704],[-0.01574074074074074,0.09074074074074075],[-0.014814814814814815,0.09537037037037037],[-0.012962962962962963,0.09814814814814815],[-0.012962962962962963,0.10092592592592593],[-0.012037037037037037,0.10555555555555556],[-0.011111111111111112,0.11018518518518519],[-0.010185185185185186,0.11666666666666667],[-0.010185185185185186,0.12129629629629629],[-0.010185185185185186,0.12407407407407407],[-0.009259259259259259,0.125],[-0.009259259259259259,0.1259259259259259],[-0.009259259259259259,0.1259259259259259],[-0.009259259259259259,0.1259259259259259],[-0.009259259259259259,0.1259259259259259],[-0.009259259259259259,0.1259259259259259],[-0.009259259259259259,0.1259259259259259],[-0.009259259259259259,0.1259259259259259],[-0.009259259259259259,0.1259259259259259],[-0.009259259259259259,0.1259259259259259],[-0.009259259259259259,0.1259259259259259],[-0.009259259259259259,0.1259259259259259]],[[0.000925925925925926,-0.18888888888888888],[0.000925925925925926,-0.18888888888888888],[0.000925925925925926,-0.18888888888888888],[0.000925925925925926,-0.18888888888888888],[0.005555555555555556,-0.18333333333333332],[0.014814814814814815,-0.175],[0.023148148148148147,-0.1675925925925926],[0.02962962962962963,-0.16203703703703703],[0.03518518518518519,-0.15833333333333333],[0.03888888888888889,-0.15555555555555556],[0.04259259259259259,-0.1537037037037037],[0.046296296296296294,-0.15185185185185185],[0.05185185185185185,-0.15092592592592594],[0.06018518518518518,-0.15],[0.06944444444444445,-0.14814814814814814],[0.07777777777777778,-0.14537037037037037],[0.08611111111111111,-0.14074074074074075],[0.09907407407407408,-0.13333333333333333],[0.11203703703703703,-0.125],[0.12314814814814815,-0.1175925925925926],[0.13055555555555556,-0.11203703703703703],[0.13333333333333333,-0.11018518518518519],[0.13518518518518519,-0.10925925925925926],[0.13518518518518519,-0.10925925925925926],[0.13518518518518519,-0.10925925925925926],[0.13518518518518519,-0.10925925925925926],[0.13796296296296295,-0.10648148148148148],[0.14166666666666666,-0.1037037037037037],[0.14351851851851852,-0.10185185185185185],[0.14537037037037037,-0.10185185185185185],[0.14629629629629629,-0.10092592592592593],[0.14814814814814814,-0.09907407407407408],[0.15,-0.09814814814814815],[0.15462962962962962,-0.09537037037037037],[0.16111111111111112,-0.09259259259259259],[0.1685185185185185,-0.09074074074074075],[0.175,-0.08703703703703704],[0.18333333333333332,-0.0824074074074074],[0.1925925925925926,-0.07592592592592592],[0.2,-0.07037037037037037],[0.20462962962962963,-0.06574074074074074],[0.20833333333333334,-0.06111111111111111],[0.21203703703703702,-0.058333333333333334],[0.21296296296296297,-0.05648148148148148],[0.21388888888888888,-0.05648148148148148],[0.21388888888888888,-0.05555555555555555],[0.21388888888888888,-0.05555555555555555],[0.21388888888888888,-0.05555555555555555],[0.21388888888888888,-0.05555555555555555],[0.21388888888888888,-0.05555555555555555],[0.21388888888888888,-0.05555555555555555],[0.21388888888888888,-0.05555555555555555]]]",2,"[66,52]",,,,,,,,,,,,,,alley4.jpg,space,7.298825,0,2,2,4,1,artStudio1.jpg,baggageClaim2.jpg,auto_showroom1.jpg,appleorchard3.jpg,,
Image_List_5,,,,,,,,,,,,,,,,44481,2020-11-23_20h37.10.953,analogCatScenes,2020.1.3,Win32,60,"[1920,1080]","[[[-0.003703703703703704,-0.19907407407407407],[-0.003703703703703704,-0.19907407407407407],[-0.003703703703703704,-0.19907407407407407],[-0.003703703703703704,-0.19907407407407407],[-0.003703703703703704,-0.19907407407407407],[-0.003703703703703704,-0.19907407407407407],[-0.003703703703703704,-0.19907407407407407],[-0.003703703703703704,-0.19814814814814816],[-0.003703703703703704,-0.19814814814814816],[-0.003703703703703704,-0.19814814814814816],[-0.003703703703703704,-0.19814814814814816],[-0.003703703703703704,-0.19814814814814816],[-0.003703703703703704,-0.19814814814814816],[-0.003703703703703704,-0.19814814814814816],[-0.003703703703703704,-0.19814814814814816],[-0.003703703703703704,-0.19814814814814816],[-0.003703703703703704,-0.19814814814814816],[-0.002777777777777778,-0.19722222222222222],[-0.002777777777777778,-0.19722222222222222],[-0.002777777777777778,-0.19722222222222222],[-0.002777777777777778,-0.19722222222222222],[-0.002777777777777778,-0.19722222222222222],[-0.002777777777777778,-0.19722222222222222],[-0.002777777777777778,-0.19722222222222222],[-0.002777777777777778,-0.19722222222222222],[-0.001851851851851852,-0.19722222222222222],[-0.001851851851851852,-0.19722222222222222],[-0.001851851851851852,-0.19722222222222222],[-0.001851851851851852,-0.19722222222222222],[-0.001851851851851852,-0.19722222222222222],[-0.001851851851851852,-0.19722222222222222],[-0.001851851851851852,-0.19722222222222222],[-0.001851851851851852,-0.19722222222222222],[-0.001851851851851852,-0.19722222222222222],[-0.001851851851851852,-0.19722222222222222],[-0.001851851851851852,-0.19722222222222222],[-0.001851851851851852,-0.19722222222222222],[-0.001851851851851852,-0.19722222222222222],[-0.001851851851851852,-0.19722222222222222],[-0.001851851851851852,-0.19722222222222222],[-0.001851851851851852,-0.19722222222222222],[-0.001851851851851852,-0.19722222222222222],[-0.001851851851851852,-0.19722222222222222],[-0.004629629629629629,-0.19537037037037036],[-0.008333333333333333,-0.1935185185185185],[-0.012962962962962963,-0.1925925925925926],[-0.024074074074074074,-0.18981481481481483],[-0.037037037037037035,-0.18888888888888888],[-0.049074074074074076,-0.18703703703703703],[-0.058333333333333334,-0.18518518518518517],[-0.06759259259259259,-0.18425925925925926],[-0.07685185185185185,-0.18333333333333332],[-0.08796296296296297,-0.1814814814814815],[-0.09722222222222222,-0.18055555555555555],[-0.10277777777777777,-0.18055555555555555],[-0.10648148148148148,-0.17962962962962964],[-0.10925925925925926,-0.17962962962962964],[-0.11574074074074074,-0.17962962962962964],[-0.1259259259259259,-0.17962962962962964],[-0.13240740740740742,-0.18055555555555555],[-0.13425925925925927,-0.18055555555555555],[-0.14166666666666666,-0.1814814814814815],[-0.1527777777777778,-0.1824074074074074],[-0.16203703703703703,-0.18333333333333332],[-0.17037037037037037,-0.18425925925925926],[-0.17592592592592593,-0.18425925925925926],[-0.1824074074074074,-0.18518518518518517],[-0.18888888888888888,-0.18518518518518517],[-0.1962962962962963,-0.18611111111111112],[-0.20277777777777778,-0.18703703703703703],[-0.2064814814814815,-0.18703703703703703],[-0.20925925925925926,-0.18703703703703703],[-0.21296296296296297,-0.18703703703703703],[-0.21944444444444444,-0.18703703703703703],[-0.22592592592592592,-0.18518518518518517],[-0.2324074074074074,-0.18425925925925926],[-0.24074074074074073,-0.1824074074074074],[-0.2462962962962963,-0.17962962962962964],[-0.2490740740740741,-0.17962962962962964],[-0.2518518518518518,-0.17777777777777778],[-0.2611111111111111,-0.17685185185185184],[-0.26944444444444443,-0.17407407407407408],[-0.27685185185185185,-0.1712962962962963],[-0.28055555555555556,-0.17037037037037037],[-0.2833333333333333,-0.1675925925925926],[-0.2861111111111111,-0.16666666666666666],[-0.287962962962963,-0.1648148148148148],[-0.29074074074074074,-0.1648148148148148],[-0.2935185185185185,-0.1638888888888889],[-0.2953703703703704,-0.1638888888888889],[-0.2962962962962963,-0.1638888888888889],[-0.2962962962962963,-0.1638888888888889],[-0.2962962962962963,-0.1638888888888889],[-0.2972222222222222,-0.1638888888888889],[-0.29907407407407405,-0.1638888888888889],[-0.3,-0.1638888888888889],[-0.30185185185185187,-0.1638888888888889],[-0.30648148148148147,-0.1638888888888889],[-0.3148148148148148,-0.1648148148148148],[-0.3212962962962963,-0.16574074074074074],[-0.325,-0.16574074074074074],[-0.3287037037037037,-0.16574074074074074],[-0.3351851851851852,-0.16574074074074074],[-0.34814814814814815,-0.16574074074074074]],[[0.008333333333333333,-0.19537037037037036],[0.008333333333333333,-0.19537037037037036],[0.008333333333333333,-0.19537037037037036],[0.008333333333333333,-0.19537037037037036],[0.008333333333333333,-0.19537037037037036],[0.008333333333333333,-0.19537037037037036],[0.008333333333333333,-0.19537037037037036],[0.008333333333333333,-0.19537037037037036],[0.008333333333333333,-0.19537037037037036],[0.008333333333333333,-0.19537037037037036],[0.008333333333333333,-0.19537037037037036],[0.008333333333333333,-0.19537037037037036],[0.009259259259259259,-0.19537037037037036],[0.018518518518518517,-0.19537037037037036],[0.03148148148148148,-0.19444444444444445],[0.03888888888888889,-0.1935185185185185],[0.04259259259259259,-0.1935185185185185],[0.04537037037037037,-0.1925925925925926],[0.04814814814814815,-0.1925925925925926],[0.06111111111111111,-0.19074074074074074],[0.07777777777777778,-0.18888888888888888],[0.08518518518518518,-0.18796296296296297],[0.08796296296296297,-0.18796296296296297],[0.09259259259259259,-0.18518518518518517],[0.10555555555555556,-0.1787037037037037],[0.11481481481481481,-0.17314814814814813],[0.11851851851851852,-0.1712962962962963],[0.12129629629629629,-0.1685185185185185],[0.12685185185185185,-0.16666666666666666],[0.1361111111111111,-0.1648148148148148],[0.1425925925925926,-0.1638888888888889],[0.14907407407407408,-0.1638888888888889],[0.1574074074074074,-0.16296296296296298],[0.1685185185185185,-0.16111111111111112],[0.18055555555555555,-0.15833333333333333],[0.18796296296296297,-0.15648148148148147],[0.1935185185185185,-0.15648148148148147],[0.20092592592592592,-0.15555555555555556],[0.20925925925925926,-0.15462962962962962],[0.21574074074074073,-0.15185185185185185],[0.22314814814814815,-0.14907407407407408],[0.22777777777777777,-0.14814814814814814],[0.23148148148148148,-0.14722222222222223],[0.23703703703703705,-0.14537037037037037],[0.24259259259259258,-0.14351851851851852],[0.2462962962962963,-0.14074074074074075],[0.25092592592592594,-0.1388888888888889],[0.2537037037037037,-0.13796296296296295],[0.2574074074074074,-0.13703703703703704],[0.25925925925925924,-0.13703703703703704],[0.262037037037037,-0.1361111111111111],[0.26481481481481484,-0.13518518518518519],[0.2675925925925926,-0.13425925925925927],[0.27037037037037037,-0.13333333333333333],[0.2712962962962963,-0.13333333333333333],[0.2712962962962963,-0.13333333333333333],[0.2722222222222222,-0.13333333333333333],[0.2722222222222222,-0.13333333333333333],[0.2722222222222222,-0.13333333333333333],[0.2722222222222222,-0.13333333333333333],[0.2722222222222222,-0.13333333333333333],[0.2722222222222222,-0.13333333333333333],[0.2722222222222222,-0.13333333333333333],[0.2722222222222222,-0.13333333333333333],[0.2722222222222222,-0.13333333333333333],[0.2722222222222222,-0.13333333333333333],[0.2722222222222222,-0.13333333333333333]]]",2,"[104,67]",,,,,,,,,,,,,,ballroom3.jpg,space,5.703135,0,3,3,14,1,ballroom1.jpg,breakroom5.jpg,bistrooutdoor5.jpg,botanicalGarden5.jpg,,
Image_List_5,,,,,,,,,,,,,,,,44481,2020-11-23_20h37.10.953,analogCatScenes,2020.1.3,Win32,60,"[1920,1080]","[[[0.012037037037037037,-0.2],[0.012037037037037037,-0.2],[0.012037037037037037,-0.2],[0.012037037037037037,-0.2],[0.012037037037037037,-0.2],[0.012037037037037037,-0.2],[0.012037037037037037,-0.2],[0.012037037037037037,-0.2],[0.012037037037037037,-0.2],[0.012037037037037037,-0.2],[0.012037037037037037,-0.2],[0.013888888888888888,-0.20092592592592592],[0.028703703703703703,-0.2037037037037037],[0.044444444444444446,-0.20555555555555555],[0.05,-0.2064814814814815],[0.05092592592592592,-0.2064814814814815],[0.053703703703703705,-0.2064814814814815],[0.06111111111111111,-0.2064814814814815],[0.07037037037037037,-0.2064814814814815],[0.07222222222222222,-0.2064814814814815],[0.07222222222222222,-0.2064814814814815],[0.07222222222222222,-0.2064814814814815],[0.075,-0.2064814814814815],[0.08333333333333333,-0.2037037037037037],[0.09351851851851851,-0.19907407407407407],[0.09907407407407408,-0.19537037037037036],[0.10555555555555556,-0.18888888888888888],[0.11481481481481481,-0.18055555555555555],[0.12222222222222222,-0.17222222222222222],[0.13055555555555556,-0.16203703703703703],[0.13518518518518519,-0.15462962962962962],[0.1398148148148148,-0.14907407407407408],[0.1425925925925926,-0.14351851851851852],[0.14537037037037037,-0.1388888888888889],[0.14537037037037037,-0.1361111111111111],[0.14629629629629629,-0.13425925925925927],[0.14722222222222223,-0.13240740740740742],[0.14814814814814814,-0.12962962962962962],[0.15,-0.1259259259259259],[0.15092592592592594,-0.12314814814814815],[0.15185185185185185,-0.12037037037037036],[0.1527777777777778,-0.1175925925925926],[0.1527777777777778,-0.11574074074074074],[0.1537037037037037,-0.11481481481481481],[0.1537037037037037,-0.11203703703703703],[0.15462962962962962,-0.1111111111111111],[0.15462962962962962,-0.11018518518518519],[0.15648148148148147,-0.10740740740740741],[0.15833333333333333,-0.1037037037037037],[0.16018518518518518,-0.10185185185185185],[0.1638888888888889,-0.09814814814814815],[0.1685185185185185,-0.09351851851851851],[0.17685185185185184,-0.08888888888888889],[0.18611111111111112,-0.08148148148148149],[0.19537037037037036,-0.07592592592592592],[0.2,-0.0712962962962963],[0.2037037037037037,-0.06944444444444445],[0.20555555555555555,-0.06851851851851852],[0.2064814814814815,-0.06759259259259259],[0.2074074074074074,-0.06666666666666667],[0.2074074074074074,-0.06574074074074074],[0.2101851851851852,-0.06481481481481481],[0.21388888888888888,-0.06388888888888888],[0.21666666666666667,-0.062037037037037036],[0.21944444444444444,-0.05925925925925926],[0.22407407407407406,-0.05648148148148148],[0.22870370370370371,-0.05185185185185185],[0.23148148148148148,-0.05],[0.2361111111111111,-0.04814814814814815],[0.2388888888888889,-0.04537037037037037],[0.24166666666666667,-0.04259259259259259],[0.24444444444444444,-0.03888888888888889],[0.2490740740740741,-0.03518518518518519],[0.25277777777777777,-0.03148148148148148],[0.2564814814814815,-0.027777777777777776],[0.2601851851851852,-0.023148148148148147],[0.2638888888888889,-0.018518518518518517],[0.2675925925925926,-0.012962962962962963],[0.27037037037037037,-0.008333333333333333],[0.27314814814814814,-0.004629629629629629],[0.2759259259259259,0.000925925925925926],[0.27870370370370373,0.006481481481481481],[0.2796296296296296,0.012962962962962963],[0.28055555555555556,0.018518518518518517],[0.2814814814814815,0.021296296296296296],[0.2814814814814815,0.025],[0.2824074074074074,0.026851851851851852],[0.2814814814814815,0.028703703703703703],[0.2824074074074074,0.03148148148148148],[0.2824074074074074,0.03333333333333333],[0.2833333333333333,0.03611111111111111],[0.28425925925925927,0.03888888888888889],[0.28425925925925927,0.040740740740740744],[0.2851851851851852,0.04351851851851852],[0.2861111111111111,0.044444444444444446],[0.2861111111111111,0.04722222222222222],[0.28703703703703703,0.04814814814814815],[0.28703703703703703,0.04814814814814815],[0.287962962962963,0.04814814814814815],[0.287962962962963,0.04814814814814815],[0.287962962962963,0.04814814814814815],[0.287962962962963,0.04814814814814815],[0.287962962962963,0.04814814814814815]],[[0.006481481481481481,-0.19907407407407407],[0.006481481481481481,-0.19907407407407407],[0.006481481481481481,-0.19907407407407407],[0.010185185185185186,-0.19537037037037036],[0.019444444444444445,-0.18888888888888888],[0.025925925925925925,-0.18518518518518517],[0.030555555555555555,-0.1824074074074074],[0.03611111111111111,-0.1787037037037037],[0.04259259259259259,-0.175],[0.049074074074074076,-0.1712962962962963],[0.05277777777777778,-0.1685185185185185],[0.05740740740740741,-0.1648148148148148],[0.06388888888888888,-0.16203703703703703],[0.0712962962962963,-0.1574074074074074],[0.07592592592592592,-0.15648148148148147],[0.0787037037037037,-0.1537037037037037],[0.0824074074074074,-0.1527777777777778],[0.08425925925925926,-0.15092592592592594],[0.08518518518518518,-0.15],[0.08611111111111111,-0.15],[0.08611111111111111,-0.15],[0.08611111111111111,-0.15],[0.08611111111111111,-0.15],[0.08611111111111111,-0.15],[0.08611111111111111,-0.14907407407407408],[0.08611111111111111,-0.14907407407407408],[0.08796296296296297,-0.14722222222222223],[0.09074074074074075,-0.14074074074074075],[0.09259259259259259,-0.13518518518518519],[0.09444444444444444,-0.12962962962962962],[0.09537037037037037,-0.12407407407407407],[0.0962962962962963,-0.11944444444444445],[0.09722222222222222,-0.11203703703703703],[0.09722222222222222,-0.10277777777777777],[0.0962962962962963,-0.08888888888888889],[0.09444444444444444,-0.07592592592592592],[0.09166666666666666,-0.06481481481481481],[0.08888888888888889,-0.05740740740740741],[0.08611111111111111,-0.05],[0.0824074074074074,-0.04351851851851852],[0.0787037037037037,-0.03796296296296296],[0.07592592592592592,-0.03333333333333333],[0.07314814814814814,-0.028703703703703703],[0.07037037037037037,-0.026851851851851852],[0.06944444444444445,-0.026851851851851852],[0.06759259259259259,-0.025925925925925925],[0.06018518518518518,-0.025],[0.05277777777777778,-0.024074074074074074],[0.04537037037037037,-0.022222222222222223],[0.03981481481481482,-0.021296296296296296],[0.037037037037037035,-0.021296296296296296],[0.030555555555555555,-0.023148148148148147],[0.025,-0.025],[0.019444444444444445,-0.026851851851851852],[0.013888888888888888,-0.027777777777777776],[0.006481481481481481,-0.028703703703703703],[-0.001851851851851852,-0.030555555555555555],[-0.005555555555555556,-0.030555555555555555],[-0.006481481481481481,-0.030555555555555555],[-0.007407407407407408,-0.030555555555555555],[-0.012037037037037037,-0.02962962962962963],[-0.025,-0.025],[-0.03611111111111111,-0.020370370370370372],[-0.04259259259259259,-0.017592592592592594],[-0.05185185185185185,-0.013888888888888888],[-0.06111111111111111,-0.010185185185185186],[-0.06944444444444445,-0.008333333333333333],[-0.07962962962962963,-0.007407407407407408],[-0.08703703703703704,-0.006481481481481481],[-0.08981481481481482,-0.006481481481481481],[-0.09259259259259259,-0.005555555555555556],[-0.09351851851851851,-0.005555555555555556],[-0.09537037037037037,-0.005555555555555556],[-0.0962962962962963,-0.005555555555555556],[-0.09722222222222222,-0.005555555555555556],[-0.09722222222222222,-0.005555555555555556],[-0.09814814814814815,-0.005555555555555556],[-0.09907407407407408,-0.005555555555555556],[-0.10555555555555556,-0.004629629629629629],[-0.11388888888888889,-0.002777777777777778],[-0.11851851851851852,-0.001851851851851852],[-0.125,0.000925925925925926],[-0.13425925925925927,0.004629629629629629],[-0.14166666666666666,0.008333333333333333],[-0.14537037037037037,0.010185185185185186],[-0.15092592592592594,0.011111111111111112],[-0.15555555555555556,0.012962962962962963],[-0.15925925925925927,0.013888888888888888],[-0.16203703703703703,0.01574074074074074],[-0.16574074074074074,0.016666666666666666],[-0.16944444444444445,0.017592592592592594],[-0.17314814814814813,0.018518518518518517],[-0.175,0.019444444444444445],[-0.17592592592592593,0.019444444444444445],[-0.17685185185185184,0.020370370370370372],[-0.17962962962962964,0.020370370370370372],[-0.1814814814814815,0.021296296296296296],[-0.1814814814814815,0.021296296296296296],[-0.1824074074074074,0.021296296296296296],[-0.18333333333333332,0.021296296296296296],[-0.18425925925925926,0.021296296296296296],[-0.18611111111111112,0.022222222222222223],[-0.18796296296296297,0.022222222222222223],[-0.18888888888888888,0.022222222222222223],[-0.18888888888888888,0.022222222222222223],[-0.18888888888888888,0.022222222222222223],[-0.18888888888888888,0.023148148148148147],[-0.18888888888888888,0.023148148148148147],[-0.18981481481481483,0.023148148148148147],[-0.18981481481481483,0.023148148148148147]]]",2,"[103,110]",,,,,,,,,,,,,,shoestore4.jpg,space,8.274415,0,4,4,90,1,savanna5.jpg,trainStation1.jpg,sidewalk1.jpg,stripmall3.jpg,,
Image_List_5,,,,,,,,,,,,,,,,44481,2020-11-23_20h37.10.953,analogCatScenes,2020.1.3,Win32,60,"[1920,1080]","[[[0.003703703703703704,-0.20092592592592592],[0.003703703703703704,-0.20092592592592592],[0.003703703703703704,-0.20092592592592592],[0.003703703703703704,-0.20092592592592592],[0.004629629629629629,-0.2],[0.006481481481481481,-0.19907407407407407],[0.007407407407407408,-0.19814814814814816],[0.008333333333333333,-0.19722222222222222],[0.011111111111111112,-0.19537037037037036],[0.017592592592592594,-0.19166666666666668],[0.02962962962962963,-0.18611111111111112],[0.03796296296296296,-0.1824074074074074],[0.041666666666666664,-0.1814814814814815],[0.04722222222222222,-0.17962962962962964],[0.05185185185185185,-0.1787037037037037],[0.05740740740740741,-0.17592592592592593],[0.062037037037037036,-0.175],[0.06574074074074074,-0.17407407407407408],[0.0712962962962963,-0.17222222222222222],[0.07685185185185185,-0.17037037037037037],[0.0824074074074074,-0.1685185185185185],[0.08518518518518518,-0.1675925925925926],[0.08888888888888889,-0.16666666666666666],[0.09259259259259259,-0.1648148148148148],[0.09722222222222222,-0.16296296296296298],[0.1,-0.16203703703703703],[0.10185185185185185,-0.16111111111111112],[0.1037037037037037,-0.16111111111111112],[0.10555555555555556,-0.16018518518518518],[0.11018518518518519,-0.15925925925925927],[0.11388888888888889,-0.1574074074074074],[0.1175925925925926,-0.15555555555555556],[0.12037037037037036,-0.15555555555555556],[0.12222222222222222,-0.15462962962962962],[0.12407407407407407,-0.15462962962962962],[0.12685185185185185,-0.15462962962962962],[0.13148148148148148,-0.1537037037037037],[0.13333333333333333,-0.1527777777777778],[0.13703703703703704,-0.15185185185185185],[0.14074074074074075,-0.15092592592592594],[0.14814814814814814,-0.14722222222222223],[0.1574074074074074,-0.14351851851851852],[0.16296296296296298,-0.14074074074074075],[0.1675925925925926,-0.1388888888888889],[0.16944444444444445,-0.13796296296296295],[0.17037037037037037,-0.13703703703703704],[0.17222222222222222,-0.1361111111111111],[0.17407407407407408,-0.13518518518518519],[0.17407407407407408,-0.13425925925925927],[0.17407407407407408,-0.13425925925925927],[0.17407407407407408,-0.13425925925925927],[0.17407407407407408,-0.13425925925925927],[0.17407407407407408,-0.13425925925925927],[0.17407407407407408,-0.13425925925925927],[0.17407407407407408,-0.13425925925925927],[0.17407407407407408,-0.13425925925925927]],[[0.004629629629629629,-0.19444444444444445],[0.004629629629629629,-0.19444444444444445],[0.004629629629629629,-0.19444444444444445],[0.004629629629629629,-0.19444444444444445],[0.005555555555555556,-0.19444444444444445],[0.005555555555555556,-0.19444444444444445],[0.007407407407407408,-0.19444444444444445],[0.019444444444444445,-0.19444444444444445],[0.03611111111111111,-0.19444444444444445],[0.044444444444444446,-0.1935185185185185],[0.04814814814814815,-0.1935185185185185],[0.05277777777777778,-0.1935185185185185],[0.06111111111111111,-0.1935185185185185],[0.06759259259259259,-0.1935185185185185],[0.07037037037037037,-0.1935185185185185],[0.07222222222222222,-0.1935185185185185],[0.07962962962962963,-0.1925925925925926],[0.09074074074074075,-0.18981481481481483],[0.1,-0.18888888888888888],[0.10648148148148148,-0.18796296296296297],[0.1111111111111111,-0.18611111111111112],[0.11481481481481481,-0.18518518518518517],[0.12129629629629629,-0.1824074074074074],[0.12777777777777777,-0.18055555555555555],[0.13240740740740742,-0.17962962962962964],[0.13518518518518519,-0.1787037037037037],[0.1425925925925926,-0.17592592592592593],[0.15,-0.17407407407407408],[0.1537037037037037,-0.17314814814814813],[0.15462962962962962,-0.17314814814814813],[0.15648148148148147,-0.17314814814814813],[0.1638888888888889,-0.17314814814814813],[0.17314814814814813,-0.17314814814814813],[0.1824074074074074,-0.17037037037037037],[0.19537037037037036,-0.16574074074074074],[0.2064814814814815,-0.16111111111111112],[0.21296296296296297,-0.15925925925925927],[0.21666666666666667,-0.1574074074074074],[0.21944444444444444,-0.15555555555555556],[0.2212962962962963,-0.15462962962962962],[0.2212962962962963,-0.15462962962962962],[0.2222222222222222,-0.15462962962962962],[0.2222222222222222,-0.15462962962962962],[0.225,-0.1537037037037037],[0.22685185185185186,-0.1537037037037037],[0.23055555555555557,-0.1527777777777778],[0.23333333333333334,-0.15092592592592594],[0.2351851851851852,-0.15092592592592594],[0.2388888888888889,-0.15092592592592594],[0.24074074074074073,-0.15],[0.24166666666666667,-0.15],[0.24444444444444444,-0.15],[0.24814814814814815,-0.15],[0.2537037037037037,-0.15],[0.25925925925925924,-0.15],[0.2638888888888889,-0.14907407407407408],[0.26851851851851855,-0.14814814814814814],[0.2722222222222222,-0.14814814814814814],[0.2759259259259259,-0.14629629629629629],[0.2814814814814815,-0.14351851851851852],[0.28703703703703703,-0.14166666666666666],[0.2898148148148148,-0.1398148148148148],[0.2953703703703704,-0.13796296296296295],[0.29814814814814816,-0.13703703703703704],[0.30185185185185187,-0.1361111111111111],[0.30277777777777776,-0.13425925925925927],[0.3074074074074074,-0.13333333333333333],[0.30925925925925923,-0.13333333333333333],[0.30925925925925923,-0.13240740740740742],[0.3101851851851852,-0.13240740740740742],[0.3101851851851852,-0.13240740740740742],[0.3101851851851852,-0.13240740740740742],[0.3101851851851852,-0.13240740740740742],[0.3101851851851852,-0.13240740740740742],[0.3101851851851852,-0.13240740740740742],[0.3101851851851852,-0.13240740740740742],[0.3101851851851852,-0.13240740740740742],[0.3101851851851852,-0.13240740740740742],[0.3101851851851852,-0.13240740740740742],[0.3101851851851852,-0.13240740740740742],[0.3101851851851852,-0.13240740740740742],[0.3101851851851852,-0.13240740740740742],[0.3101851851851852,-0.13240740740740742],[0.3101851851851852,-0.13240740740740742]]]",2,"[56,84]",,,,,,,,,,,,,,amusement3.jpg,space,4.91141,0,5,5,5,1,artStudio3.jpg,bambooforest.jpg,auto_showroom4.jpg,attic4.jpg,,
Image_List_5,,,,,,,,,,,,,,,,44481,2020-11-23_20h37.10.953,analogCatScenes,2020.1.3,Win32,60,"[1920,1080]","[[[-0.012037037037037037,-0.1925925925925926],[-0.021296296296296296,-0.18981481481481483],[-0.028703703703703703,-0.18796296296296297],[-0.03425925925925926,-0.18703703703703703],[-0.03981481481481482,-0.18518518518518517],[-0.046296296296296294,-0.18333333333333332],[-0.05555555555555555,-0.17962962962962964],[-0.06666666666666667,-0.175],[-0.07962962962962963,-0.1712962962962963],[-0.09444444444444444,-0.16666666666666666],[-0.10648148148148148,-0.16203703703703703],[-0.11851851851851852,-0.15648148148148147],[-0.13333333333333333,-0.15],[-0.1425925925925926,-0.14629629629629629],[-0.15185185185185185,-0.14351851851851852],[-0.1638888888888889,-0.13796296296296295],[-0.175,-0.13333333333333333],[-0.18333333333333332,-0.13055555555555556],[-0.18981481481481483,-0.12777777777777777],[-0.19537037037037036,-0.1259259259259259],[-0.20185185185185187,-0.12314814814814815],[-0.2064814814814815,-0.12222222222222222],[-0.2111111111111111,-0.12037037037037036],[-0.21851851851851853,-0.1175925925925926],[-0.22685185185185186,-0.11481481481481481],[-0.23703703703703705,-0.11481481481481481],[-0.24259259259259258,-0.11296296296296296],[-0.24722222222222223,-0.1111111111111111],[-0.2518518518518518,-0.11018518518518519],[-0.25833333333333336,-0.10833333333333334],[-0.26296296296296295,-0.10462962962962963],[-0.27037037037037037,-0.10092592592592593],[-0.2814814814814815,-0.09166666666666666],[-0.2916666666666667,-0.08055555555555556],[-0.3,-0.0712962962962963],[-0.30462962962962964,-0.06574074074074074],[-0.3101851851851852,-0.05925925925925926],[-0.31574074074074077,-0.053703703703703705],[-0.32037037037037036,-0.05],[-0.32407407407407407,-0.04537037037037037],[-0.3277777777777778,-0.04259259259259259],[-0.3287037037037037,-0.040740740740740744],[-0.3287037037037037,-0.040740740740740744],[-0.3296296296296296,-0.040740740740740744],[-0.3296296296296296,-0.040740740740740744],[-0.3296296296296296,-0.040740740740740744],[-0.33055555555555555,-0.040740740740740744],[-0.3314814814814815,-0.03981481481481482],[-0.3333333333333333,-0.03796296296296296],[-0.33425925925925926,-0.03796296296296296],[-0.3351851851851852,-0.03796296296296296],[-0.3351851851851852,-0.037037037037037035],[-0.3351851851851852,-0.037037037037037035],[-0.33611111111111114,-0.037037037037037035]],[[-0.002777777777777778,-0.1925925925925926],[-0.002777777777777778,-0.19166666666666668],[-0.000925925925925926,-0.18703703703703703],[0,-0.17685185185185184],[0.002777777777777778,-0.16666666666666666],[0.005555555555555556,-0.1574074074074074],[0.007407407407407408,-0.14814814814814814],[0.010185185185185186,-0.1388888888888889],[0.012037037037037037,-0.13055555555555556],[0.013888888888888888,-0.12685185185185185],[0.013888888888888888,-0.1259259259259259],[0.013888888888888888,-0.125],[0.013888888888888888,-0.125],[0.013888888888888888,-0.12407407407407407],[0.014814814814814815,-0.12314814814814815],[0.016666666666666666,-0.12037037037037036],[0.017592592592592594,-0.1175925925925926],[0.020370370370370372,-0.11481481481481481],[0.020370370370370372,-0.11296296296296296],[0.021296296296296296,-0.11296296296296296],[0.023148148148148147,-0.11018518518518519],[0.025,-0.10833333333333334],[0.026851851851851852,-0.10462962962962963],[0.02962962962962963,-0.10277777777777777],[0.03148148148148148,-0.10092592592592593],[0.03518518518518519,-0.09722222222222222],[0.03981481481481482,-0.09259259259259259],[0.04351851851851852,-0.08888888888888889],[0.046296296296296294,-0.08611111111111111],[0.04722222222222222,-0.08425925925925926],[0.04814814814814815,-0.08333333333333333],[0.049074074074074076,-0.08333333333333333],[0.049074074074074076,-0.08333333333333333],[0.049074074074074076,-0.08333333333333333],[0.049074074074074076,-0.08333333333333333],[0.049074074074074076,-0.08333333333333333],[0.049074074074074076,-0.08333333333333333],[0.049074074074074076,-0.08333333333333333]]]",2,"[54,38]",,,,,,,,,,,,,,elevatorOutside2.jpg,space,4.642415,0,6,6,47,1,frontDoor.jpg,gasstation8.jpg,firestation4.jpg,fountain7.jpg,,
Image_List_5,,,,,,,,,,,,,,,,44481,2020-11-23_20h37.10.953,analogCatScenes,2020.1.3,Win32,60,"[1920,1080]","[[[-0.005555555555555556,-0.20277777777777778],[-0.005555555555555556,-0.20277777777777778],[-0.001851851851851852,-0.20277777777777778],[0.012037037037037037,-0.20277777777777778],[0.022222222222222223,-0.20092592592592592],[0.023148148148148147,-0.20092592592592592],[0.024074074074074074,-0.2],[0.024074074074074074,-0.2],[0.024074074074074074,-0.19907407407407407],[0.025,-0.19907407407407407],[0.025925925925925925,-0.19814814814814816],[0.030555555555555555,-0.19444444444444445],[0.037037037037037035,-0.19074074074074074],[0.04259259259259259,-0.18703703703703703],[0.04722222222222222,-0.18425925925925926],[0.05,-0.1824074074074074],[0.053703703703703705,-0.17962962962962964],[0.05925925925925926,-0.175],[0.06388888888888888,-0.1712962962962963],[0.06759259259259259,-0.1675925925925926],[0.0712962962962963,-0.1648148148148148],[0.075,-0.16296296296296298],[0.07962962962962963,-0.15833333333333333],[0.08611111111111111,-0.1527777777777778],[0.08981481481481482,-0.15],[0.09259259259259259,-0.14722222222222223],[0.0962962962962963,-0.14351851851851852],[0.10092592592592593,-0.1398148148148148],[0.10462962962962963,-0.1361111111111111],[0.1111111111111111,-0.13055555555555556],[0.11851851851851852,-0.125],[0.12314814814814815,-0.11944444444444445],[0.12962962962962962,-0.11388888888888889],[0.1361111111111111,-0.10740740740740741],[0.1425925925925926,-0.10185185185185185],[0.14722222222222223,-0.09814814814814815],[0.15185185185185185,-0.09444444444444444],[0.1574074074074074,-0.09074074074074075],[0.1648148148148148,-0.08518518518518518],[0.1712962962962963,-0.08055555555555556],[0.17685185185185184,-0.07592592592592592],[0.1824074074074074,-0.07222222222222222],[0.18703703703703703,-0.06759259259259259],[0.19166666666666668,-0.06388888888888888],[0.1962962962962963,-0.06018518518518518],[0.2,-0.05462962962962963],[0.20555555555555555,-0.05092592592592592],[0.20925925925925926,-0.046296296296296294],[0.21296296296296297,-0.04259259259259259],[0.21666666666666667,-0.03981481481481482],[0.21944444444444444,-0.037037037037037035],[0.2222222222222222,-0.03425925925925926],[0.22592592592592592,-0.030555555555555555],[0.22870370370370371,-0.027777777777777776],[0.2324074074074074,-0.024074074074074074],[0.23425925925925925,-0.023148148148148147],[0.2351851851851852,-0.021296296296296296],[0.23703703703703705,-0.021296296296296296],[0.2388888888888889,-0.020370370370370372],[0.23981481481481481,-0.019444444444444445],[0.23981481481481481,-0.018518518518518517],[0.24166666666666667,-0.017592592592592594],[0.24259259259259258,-0.017592592592592594],[0.24259259259259258,-0.016666666666666666],[0.24351851851851852,-0.016666666666666666],[0.24351851851851852,-0.016666666666666666],[0.24444444444444444,-0.016666666666666666],[0.24444444444444444,-0.016666666666666666],[0.24444444444444444,-0.01574074074074074],[0.24444444444444444,-0.01574074074074074],[0.24444444444444444,-0.01574074074074074],[0.24444444444444444,-0.01574074074074074],[0.24444444444444444,-0.01574074074074074],[0.24444444444444444,-0.01574074074074074],[0.24444444444444444,-0.01574074074074074],[0.24444444444444444,-0.01574074074074074],[0.24444444444444444,-0.01574074074074074],[0.24444444444444444,-0.01574074074074074],[0.24444444444444444,-0.01574074074074074],[0.24444444444444444,-0.01574074074074074]],[[0.001851851851851852,-0.19722222222222222],[0.001851851851851852,-0.19722222222222222],[0.001851851851851852,-0.19537037037037036],[0.002777777777777778,-0.1935185185185185],[0.002777777777777778,-0.1925925925925926],[0.002777777777777778,-0.19074074074074074],[0.002777777777777778,-0.18981481481481483],[0.003703703703703704,-0.18425925925925926],[0.003703703703703704,-0.17962962962962964],[0.003703703703703704,-0.17592592592592593],[0.002777777777777778,-0.17037037037037037],[0.000925925925925926,-0.1638888888888889],[-0.003703703703703704,-0.1574074074074074],[-0.008333333333333333,-0.15092592592592594],[-0.012962962962962963,-0.14444444444444443],[-0.019444444444444445,-0.1388888888888889],[-0.025,-0.13425925925925927],[-0.030555555555555555,-0.1287037037037037],[-0.03611111111111111,-0.12407407407407407],[-0.04259259259259259,-0.11944444444444445],[-0.05,-0.11296296296296296],[-0.053703703703703705,-0.11018518518518519],[-0.058333333333333334,-0.10555555555555556],[-0.06574074074074074,-0.10185185185185185],[-0.07037037037037037,-0.09907407407407408],[-0.07685185185185185,-0.09537037037037037],[-0.08518518518518518,-0.09074074074074075],[-0.09074074074074075,-0.08611111111111111],[-0.09722222222222222,-0.08333333333333333],[-0.1,-0.07962962962962963],[-0.10462962962962963,-0.07685185185185185],[-0.10925925925925926,-0.07314814814814814],[-0.11388888888888889,-0.06944444444444445],[-0.1175925925925926,-0.06574074074074074],[-0.12129629629629629,-0.06296296296296296],[-0.12222222222222222,-0.062037037037037036],[-0.125,-0.06018518518518518],[-0.1287037037037037,-0.05648148148148148],[-0.13518518518518519,-0.05092592592592592],[-0.1425925925925926,-0.046296296296296294],[-0.14907407407407408,-0.03981481481481482],[-0.1537037037037037,-0.03611111111111111],[-0.1574074074074074,-0.03333333333333333],[-0.16111111111111112,-0.030555555555555555],[-0.1638888888888889,-0.027777777777777776],[-0.1675925925925926,-0.025925925925925925],[-0.1712962962962963,-0.023148148148148147],[-0.175,-0.020370370370370372],[-0.17685185185185184,-0.018518518518518517],[-0.18055555555555555,-0.016666666666666666],[-0.18333333333333332,-0.013888888888888888],[-0.18518518518518517,-0.012962962962962963],[-0.18611111111111112,-0.011111111111111112],[-0.18703703703703703,-0.011111111111111112],[-0.18796296296296297,-0.011111111111111112],[-0.18796296296296297,-0.011111111111111112],[-0.18888888888888888,-0.010185185185185186],[-0.1935185185185185,-0.006481481481481481],[-0.2,-0.002777777777777778],[-0.20555555555555555,0.000925925925925926],[-0.20833333333333334,0.001851851851851852],[-0.20925925925925926,0.002777777777777778],[-0.2101851851851852,0.002777777777777778],[-0.2101851851851852,0.002777777777777778],[-0.2101851851851852,0.002777777777777778],[-0.2101851851851852,0.002777777777777778],[-0.2101851851851852,0.002777777777777778],[-0.2101851851851852,0.002777777777777778],[-0.2101851851851852,0.003703703703703704],[-0.2101851851851852,0.003703703703703704],[-0.2101851851851852,0.003703703703703704],[-0.2101851851851852,0.003703703703703704],[-0.2101851851851852,0.003703703703703704],[-0.2101851851851852,0.003703703703703704],[-0.2101851851851852,0.003703703703703704],[-0.2101851851851852,0.003703703703703704],[-0.2101851851851852,0.003703703703703704],[-0.2101851851851852,0.003703703703703704],[-0.2101851851851852,0.003703703703703704],[-0.2101851851851852,0.003703703703703704],[-0.2101851851851852,0.003703703703703704],[-0.2101851851851852,0.003703703703703704],[-0.2101851851851852,0.003703703703703704],[-0.2101851851851852,0.003703703703703704],[-0.2101851851851852,0.003703703703703704]],[[0.008333333333333333,-0.19907407407407407],[0.008333333333333333,-0.1962962962962963],[0.006481481481481481,-0.18796296296296297],[0.006481481481481481,-0.17777777777777778],[0.005555555555555556,-0.16574074074074074],[0.005555555555555556,-0.15555555555555556],[0.007407407407407408,-0.14444444444444443],[0.011111111111111112,-0.13055555555555556],[0.01574074074074074,-0.11481481481481481],[0.019444444444444445,-0.09907407407407408],[0.025,-0.07962962962962963],[0.02962962962962963,-0.058333333333333334],[0.032407407407407406,-0.03981481481481482],[0.03425925925925926,-0.025],[0.03518518518518519,-0.012037037037037037],[0.03611111111111111,0.000925925925925926],[0.03796296296296296,0.014814814814814815],[0.03888888888888889,0.027777777777777776],[0.040740740740740744,0.041666666666666664],[0.04259259259259259,0.05462962962962963],[0.04722222222222222,0.06759259259259259],[0.05,0.07777777777777778],[0.05462962962962963,0.08796296296296297],[0.058333333333333334,0.09444444444444444],[0.06111111111111111,0.09814814814814815],[0.062037037037037036,0.1],[0.06388888888888888,0.10185185185185185],[0.06481481481481481,0.10277777777777777],[0.06759259259259259,0.10462962962962963],[0.06944444444444445,0.10555555555555556],[0.07314814814814814,0.10648148148148148],[0.07592592592592592,0.10740740740740741],[0.07777777777777778,0.10740740740740741],[0.07777777777777778,0.10833333333333334],[0.07777777777777778,0.10833333333333334],[0.07777777777777778,0.10833333333333334],[0.07777777777777778,0.10833333333333334],[0.07777777777777778,0.10833333333333334],[0.0787037037037037,0.10833333333333334],[0.0787037037037037,0.10833333333333334],[0.0787037037037037,0.10833333333333334],[0.0787037037037037,0.10833333333333334],[0.0787037037037037,0.10833333333333334],[0.0787037037037037,0.10833333333333334],[0.0787037037037037,0.10833333333333334],[0.0787037037037037,0.10833333333333334],[0.0787037037037037,0.10833333333333334],[0.0787037037037037,0.10833333333333334],[0.0787037037037037,0.10833333333333334],[0.0787037037037037,0.10833333333333334],[0.0787037037037037,0.10833333333333334],[0.0787037037037037,0.10833333333333334]],[[0.005555555555555556,-0.2],[0.005555555555555556,-0.2],[0.005555555555555556,-0.2],[0.005555555555555556,-0.2],[0.005555555555555556,-0.2],[0.005555555555555556,-0.2],[0.005555555555555556,-0.2],[0.005555555555555556,-0.2],[0.005555555555555556,-0.2],[0.005555555555555556,-0.2],[0.006481481481481481,-0.2],[0.007407407407407408,-0.2],[0.012962962962962963,-0.20555555555555555],[0.021296296296296296,-0.20925925925925926],[0.023148148148148147,-0.2111111111111111],[0.023148148148148147,-0.2111111111111111],[0.023148148148148147,-0.2111111111111111],[0.023148148148148147,-0.2111111111111111],[0.023148148148148147,-0.2111111111111111],[0.023148148148148147,-0.2111111111111111],[0.024074074074074074,-0.2111111111111111],[0.024074074074074074,-0.2111111111111111],[0.024074074074074074,-0.2111111111111111],[0.024074074074074074,-0.2111111111111111],[0.024074074074074074,-0.2111111111111111],[0.024074074074074074,-0.2111111111111111],[0.024074074074074074,-0.2111111111111111],[0.024074074074074074,-0.2111111111111111],[0.024074074074074074,-0.2111111111111111],[0.024074074074074074,-0.2111111111111111],[0.024074074074074074,-0.2111111111111111],[0.024074074074074074,-0.2111111111111111],[0.024074074074074074,-0.2111111111111111],[0.024074074074074074,-0.2111111111111111],[0.024074074074074074,-0.2111111111111111],[0.025,-0.2101851851851852],[0.025,-0.2101851851851852],[0.025,-0.2101851851851852],[0.025,-0.2101851851851852],[0.025,-0.2101851851851852],[0.025,-0.2101851851851852],[0.025,-0.2101851851851852]]]",4,"[80,85,52,42]",,,,,,,,,,,,,,homegarage2.jpg,space,10.20841,0,7,7,64,1,igloo2.jpg,newsstand5.jpg,jewelrystore8.jpg,lab5.jpg,,
Image_List_5,,,,,,,,,,,,,,,,44481,2020-11-23_20h37.10.953,analogCatScenes,2020.1.3,Win32,60,"[1920,1080]","[[[0.010185185185185186,-0.19537037037037036],[0.010185185185185186,-0.19537037037037036],[0.010185185185185186,-0.19537037037037036],[0.010185185185185186,-0.19537037037037036],[0.010185185185185186,-0.19537037037037036],[0.010185185185185186,-0.19537037037037036],[0.011111111111111112,-0.19537037037037036],[0.021296296296296296,-0.19166666666666668],[0.03796296296296296,-0.18888888888888888],[0.05185185185185185,-0.18703703703703703],[0.05555555555555555,-0.18703703703703703],[0.058333333333333334,-0.18611111111111112],[0.062037037037037036,-0.18611111111111112],[0.06944444444444445,-0.18518518518518517],[0.07592592592592592,-0.18425925925925926],[0.0787037037037037,-0.18425925925925926],[0.07962962962962963,-0.18425925925925926],[0.08055555555555556,-0.18425925925925926],[0.08611111111111111,-0.18333333333333332],[0.09537037037037037,-0.1824074074074074],[0.10277777777777777,-0.18055555555555555],[0.10462962962962963,-0.18055555555555555],[0.10648148148148148,-0.18055555555555555],[0.11481481481481481,-0.1787037037037037],[0.125,-0.17685185185185184],[0.13240740740740742,-0.17592592592592593],[0.13703703703703704,-0.175],[0.1425925925925926,-0.17407407407407408],[0.14814814814814814,-0.17222222222222222],[0.1537037037037037,-0.17037037037037037],[0.16296296296296298,-0.16944444444444445],[0.16944444444444445,-0.16944444444444445],[0.175,-0.1685185185185185],[0.18055555555555555,-0.16666666666666666],[0.18518518518518517,-0.16574074074074074],[0.18981481481481483,-0.1648148148148148],[0.1962962962962963,-0.1638888888888889],[0.20277777777777778,-0.16296296296296298],[0.2074074074074074,-0.16203703703703703],[0.2111111111111111,-0.16203703703703703],[0.21296296296296297,-0.16203703703703703],[0.21388888888888888,-0.16203703703703703],[0.21666666666666667,-0.16111111111111112],[0.22037037037037038,-0.16018518518518518],[0.2212962962962963,-0.15925925925925927],[0.2222222222222222,-0.15833333333333333],[0.22407407407407406,-0.15833333333333333],[0.22592592592592592,-0.15648148148148147],[0.22685185185185186,-0.15648148148148147],[0.22685185185185186,-0.15555555555555556],[0.22685185185185186,-0.15555555555555556],[0.22685185185185186,-0.15555555555555556],[0.22870370370370371,-0.15462962962962962],[0.22870370370370371,-0.1537037037037037],[0.23148148148148148,-0.15185185185185185],[0.2351851851851852,-0.14907407407407408],[0.2361111111111111,-0.14907407407407408],[0.2361111111111111,-0.14814814814814814],[0.2361111111111111,-0.14722222222222223],[0.23796296296296296,-0.14444444444444443],[0.23703703703703705,-0.14074074074074075],[0.23703703703703705,-0.13796296296296295],[0.23796296296296296,-0.13703703703703704],[0.23796296296296296,-0.1361111111111111],[0.23703703703703705,-0.1361111111111111],[0.23703703703703705,-0.13518518518518519],[0.23425925925925925,-0.13240740740740742],[0.23055555555555557,-0.12962962962962962],[0.22777777777777777,-0.12777777777777777],[0.225,-0.125],[0.2212962962962963,-0.12314814814814815],[0.21481481481481482,-0.12129629629629629],[0.2074074074074074,-0.11851851851851852],[0.19814814814814816,-0.11574074074074074],[0.18981481481481483,-0.11296296296296296],[0.18333333333333332,-0.11018518518518519],[0.17685185185185184,-0.10833333333333334],[0.17314814814814813,-0.10740740740740741],[0.16944444444444445,-0.10555555555555556],[0.1638888888888889,-0.1037037037037037],[0.1574074074074074,-0.10185185185185185],[0.15092592592592594,-0.09907407407407408],[0.14629629629629629,-0.09722222222222222],[0.14166666666666666,-0.09444444444444444],[0.13703703703703704,-0.09259259259259259],[0.13240740740740742,-0.09074074074074075],[0.12777777777777777,-0.08888888888888889],[0.12407407407407407,-0.08703703703703704],[0.12129629629629629,-0.08611111111111111],[0.11574074074074074,-0.08333333333333333],[0.10462962962962963,-0.07777777777777778],[0.09259259259259259,-0.0712962962962963],[0.08425925925925926,-0.06666666666666667],[0.07592592592592592,-0.062037037037037036],[0.06851851851851852,-0.05740740740740741],[0.058333333333333334,-0.05277777777777778],[0.04537037037037037,-0.046296296296296294],[0.03611111111111111,-0.041666666666666664],[0.026851851851851852,-0.03796296296296296],[0.019444444444444445,-0.03425925925925926],[0.016666666666666666,-0.032407407407407406],[0.013888888888888888,-0.03148148148148148],[0.007407407407407408,-0.028703703703703703],[0.002777777777777778,-0.025925925925925925],[-0.002777777777777778,-0.023148148148148147],[-0.008333333333333333,-0.021296296296296296],[-0.013888888888888888,-0.018518518518518517],[-0.016666666666666666,-0.016666666666666666],[-0.021296296296296296,-0.013888888888888888],[-0.025,-0.012037037037037037],[-0.02962962962962963,-0.010185185185185186],[-0.03425925925925926,-0.007407407407407408],[-0.03611111111111111,-0.006481481481481481],[-0.03888888888888889,-0.005555555555555556],[-0.040740740740740744,-0.004629629629629629],[-0.046296296296296294,-0.002777777777777778],[-0.049074074074074076,-0.000925925925925926],[-0.053703703703703705,0],[-0.05555555555555555,0.001851851851851852],[-0.05648148148148148,0.002777777777777778],[-0.06111111111111111,0.004629629629629629],[-0.06574074074074074,0.006481481481481481],[-0.07037037037037037,0.008333333333333333],[-0.075,0.011111111111111112],[-0.08055555555555556,0.013888888888888888],[-0.08611111111111111,0.017592592592592594],[-0.09166666666666666,0.022222222222222223],[-0.09814814814814815,0.025925925925925925],[-0.10555555555555556,0.030555555555555555],[-0.10925925925925926,0.032407407407407406],[-0.11388888888888889,0.03425925925925926],[-0.1175925925925926,0.037037037037037035],[-0.12037037037037036,0.037037037037037035],[-0.12129629629629629,0.03796296296296296],[-0.12314814814814815,0.03888888888888889],[-0.1259259259259259,0.041666666666666664],[-0.1287037037037037,0.04351851851851852],[-0.13055555555555556,0.044444444444444446],[-0.13518518518518519,0.04537037037037037],[-0.1398148148148148,0.049074074074074076],[-0.14444444444444443,0.05277777777777778],[-0.15,0.05555555555555555],[-0.1537037037037037,0.05740740740740741],[-0.15925925925925927,0.062037037037037036],[-0.16666666666666666,0.06574074074074074],[-0.17314814814814813,0.07037037037037037],[-0.18055555555555555,0.07685185185185185],[-0.18611111111111112,0.08148148148148149],[-0.19074074074074074,0.08518518518518518],[-0.19537037037037036,0.08981481481481482],[-0.19907407407407407,0.09351851851851851],[-0.20277777777777778,0.0962962962962963],[-0.20555555555555555,0.09814814814814815],[-0.2074074074074074,0.1],[-0.20925925925925926,0.10185185185185185],[-0.2111111111111111,0.1037037037037037],[-0.21388888888888888,0.10555555555555556],[-0.21481481481481482,0.10648148148148148],[-0.21574074074074073,0.10740740740740741],[-0.21851851851851853,0.10925925925925926],[-0.22037037037037038,0.11018518518518519],[-0.22314814814814815,0.11296296296296296],[-0.22685185185185186,0.11481481481481481],[-0.22870370370370371,0.11666666666666667],[-0.2324074074074074,0.11851851851851852],[-0.23425925925925925,0.12037037037037036],[-0.2361111111111111,0.12222222222222222],[-0.2388888888888889,0.12314814814814815],[-0.24166666666666667,0.125],[-0.24444444444444444,0.1259259259259259],[-0.2462962962962963,0.12685185185185185],[-0.25,0.13055555555555556],[-0.25462962962962965,0.13333333333333333],[-0.2601851851851852,0.13796296296296295],[-0.26481481481481484,0.14166666666666666],[-0.26851851851851855,0.14629629629629629],[-0.2722222222222222,0.14814814814814814],[-0.2740740740740741,0.15092592592592594],[-0.2759259259259259,0.15185185185185185],[-0.27685185185185185,0.1527777777777778],[-0.27685185185185185,0.1527777777777778],[-0.2777777777777778,0.1527777777777778],[-0.27870370370370373,0.1537037037037037],[-0.27870370370370373,0.1537037037037037],[-0.27870370370370373,0.1537037037037037],[-0.27870370370370373,0.1537037037037037],[-0.27870370370370373,0.1537037037037037],[-0.27870370370370373,0.1537037037037037],[-0.2796296296296296,0.1537037037037037],[-0.2796296296296296,0.1537037037037037],[-0.2796296296296296,0.1537037037037037],[-0.2796296296296296,0.1537037037037037],[-0.2796296296296296,0.1537037037037037],[-0.2796296296296296,0.1537037037037037],[-0.2796296296296296,0.1537037037037037],[-0.2796296296296296,0.1537037037037037],[-0.2796296296296296,0.1537037037037037],[-0.2796296296296296,0.1537037037037037],[-0.2796296296296296,0.1537037037037037]],[[0.000925925925925926,-0.19722222222222222],[0.000925925925925926,-0.19722222222222222],[0.000925925925925926,-0.19722222222222222],[0.000925925925925926,-0.19722222222222222],[0.000925925925925926,-0.19722222222222222],[0.000925925925925926,-0.19722222222222222],[0.000925925925925926,-0.19722222222222222],[0.000925925925925926,-0.19722222222222222],[0.000925925925925926,-0.19722222222222222],[0.000925925925925926,-0.19722222222222222],[0.000925925925925926,-0.19722222222222222],[0.000925925925925926,-0.19722222222222222],[0.000925925925925926,-0.19722222222222222],[0.000925925925925926,-0.19722222222222222],[0.000925925925925926,-0.19722222222222222],[0.000925925925925926,-0.19722222222222222],[0.000925925925925926,-0.19722222222222222],[0.000925925925925926,-0.19722222222222222],[0.000925925925925926,-0.19722222222222222],[0.000925925925925926,-0.19722222222222222],[0.000925925925925926,-0.19722222222222222],[0.000925925925925926,-0.19722222222222222],[0.000925925925925926,-0.19722222222222222],[0.000925925925925926,-0.19722222222222222],[0.000925925925925926,-0.19722222222222222],[0.001851851851851852,-0.19722222222222222],[0.005555555555555556,-0.19722222222222222],[0.018518518518518517,-0.19722222222222222],[0.025925925925925925,-0.19722222222222222],[0.027777777777777776,-0.19722222222222222],[0.027777777777777776,-0.19722222222222222],[0.030555555555555555,-0.19722222222222222],[0.03611111111111111,-0.19814814814814816],[0.03796296296296296,-0.19814814814814816],[0.03796296296296296,-0.19814814814814816],[0.03796296296296296,-0.19814814814814816],[0.03888888888888889,-0.19814814814814816],[0.041666666666666664,-0.19814814814814816],[0.04537037037037037,-0.19814814814814816],[0.04722222222222222,-0.19907407407407407],[0.04814814814814815,-0.19907407407407407],[0.05,-0.19907407407407407],[0.053703703703703705,-0.19722222222222222],[0.06111111111111111,-0.19537037037037036],[0.06481481481481481,-0.1935185185185185],[0.06851851851851852,-0.1925925925925926],[0.075,-0.19166666666666668],[0.0787037037037037,-0.19074074074074074],[0.0824074074074074,-0.18981481481481483],[0.08518518518518518,-0.18981481481481483],[0.08888888888888889,-0.18981481481481483],[0.09537037037037037,-0.18888888888888888],[0.10092592592592593,-0.18796296296296297],[0.10462962962962963,-0.18703703703703703],[0.10833333333333334,-0.18703703703703703],[0.11018518518518519,-0.18703703703703703],[0.11296296296296296,-0.18703703703703703],[0.11851851851851852,-0.18703703703703703],[0.12314814814814815,-0.18703703703703703],[0.12777777777777777,-0.18703703703703703],[0.13240740740740742,-0.18703703703703703],[0.13796296296296295,-0.18703703703703703],[0.14351851851851852,-0.18703703703703703],[0.14907407407407408,-0.18703703703703703],[0.15555555555555556,-0.18703703703703703],[0.16296296296296298,-0.18703703703703703],[0.16944444444444445,-0.18703703703703703],[0.17407407407407408,-0.18703703703703703],[0.17962962962962964,-0.18611111111111112],[0.18611111111111112,-0.18518518518518517],[0.18981481481481483,-0.18518518518518517],[0.19444444444444445,-0.18425925925925926],[0.20277777777777778,-0.18333333333333332],[0.2064814814814815,-0.1824074074074074],[0.20833333333333334,-0.1814814814814815],[0.21296296296296297,-0.1814814814814815],[0.2175925925925926,-0.17962962962962964],[0.2222222222222222,-0.1787037037037037],[0.22592592592592592,-0.17685185185185184],[0.22962962962962963,-0.17592592592592593],[0.23055555555555557,-0.175],[0.2351851851851852,-0.17407407407407408],[0.2361111111111111,-0.17407407407407408],[0.2388888888888889,-0.17314814814814813],[0.24166666666666667,-0.17222222222222222],[0.24444444444444444,-0.17037037037037037],[0.24814814814814815,-0.1685185185185185],[0.25092592592592594,-0.16666666666666666],[0.25277777777777777,-0.16574074074074074],[0.2564814814814815,-0.1638888888888889],[0.25925925925925924,-0.16203703703703703],[0.26296296296296295,-0.16018518518518518],[0.2657407407407407,-0.1574074074074074],[0.2675925925925926,-0.15555555555555556],[0.26944444444444443,-0.1537037037037037],[0.26944444444444443,-0.15092592592592594],[0.2712962962962963,-0.14722222222222223],[0.2722222222222222,-0.14444444444444443],[0.2722222222222222,-0.1425925925925926],[0.2722222222222222,-0.1388888888888889],[0.2722222222222222,-0.13796296296296295],[0.2712962962962963,-0.13703703703703704],[0.26944444444444443,-0.13518518518518519],[0.2657407407407407,-0.13148148148148148],[0.26296296296296295,-0.1287037037037037],[0.25925925925925924,-0.1259259259259259],[0.25555555555555554,-0.12222222222222222],[0.25,-0.11851851851851852],[0.24537037037037038,-0.11574074074074074],[0.24166666666666667,-0.11388888888888889],[0.23703703703703705,-0.1111111111111111],[0.23055555555555557,-0.10833333333333334],[0.22314814814814815,-0.10462962962962963],[0.21574074074074073,-0.10185185185185185],[0.2074074074074074,-0.09722222222222222],[0.19722222222222222,-0.09166666666666666],[0.18888888888888888,-0.08796296296296297],[0.1824074074074074,-0.08518518518518518],[0.17592592592592593,-0.0824074074074074],[0.1712962962962963,-0.08055555555555556],[0.1638888888888889,-0.07777777777777778],[0.15648148148148147,-0.07407407407407407],[0.14907407407407408,-0.07222222222222222],[0.14166666666666666,-0.06944444444444445],[0.13240740740740742,-0.06574074074074074],[0.12222222222222222,-0.06296296296296296],[0.11388888888888889,-0.05925925925925926],[0.10555555555555556,-0.05555555555555555],[0.0962962962962963,-0.05092592592592592],[0.08796296296296297,-0.046296296296296294],[0.07962962962962963,-0.041666666666666664],[0.07407407407407407,-0.03796296296296296],[0.06481481481481481,-0.032407407407407406],[0.05648148148148148,-0.026851851851851852],[0.04722222222222222,-0.022222222222222223],[0.041666666666666664,-0.017592592592592594],[0.03611111111111111,-0.014814814814814815],[0.030555555555555555,-0.011111111111111112],[0.025,-0.007407407407407408],[0.020370370370370372,-0.003703703703703704],[0.014814814814814815,0.000925925925925926],[0.008333333333333333,0.004629629629629629],[0.003703703703703704,0.009259259259259259],[-0.002777777777777778,0.013888888888888888],[-0.008333333333333333,0.016666666666666666],[-0.014814814814814815,0.020370370370370372],[-0.017592592592592594,0.024074074074074074],[-0.021296296296296296,0.025925925925925925],[-0.023148148148148147,0.026851851851851852],[-0.024074074074074074,0.027777777777777776],[-0.027777777777777776,0.028703703703703703],[-0.028703703703703703,0.02962962962962963],[-0.03333333333333333,0.03148148148148148],[-0.03611111111111111,0.03333333333333333],[-0.041666666666666664,0.03518518518518519],[-0.044444444444444446,0.037037037037037035],[-0.05,0.03888888888888889],[-0.05462962962962963,0.040740740740740744],[-0.058333333333333334,0.041666666666666664],[-0.06388888888888888,0.044444444444444446],[-0.07037037037037037,0.04814814814814815],[-0.07962962962962963,0.053703703703703705],[-0.08611111111111111,0.05740740740740741],[-0.08888888888888889,0.06018518518518518],[-0.08888888888888889,0.06018518518518518],[-0.09074074074074075,0.05925925925925926],[-0.09444444444444444,0.05648148148148148],[-0.09907407407407408,0.05462962962962963],[-0.10277777777777777,0.05277777777777778],[-0.1037037037037037,0.05277777777777778],[-0.10462962962962963,0.05185185185185185],[-0.10462962962962963,0.05185185185185185],[-0.10462962962962963,0.05185185185185185],[-0.10462962962962963,0.05185185185185185],[-0.10462962962962963,0.05185185185185185],[-0.10555555555555556,0.05185185185185185],[-0.10555555555555556,0.05185185185185185],[-0.10648148148148148,0.05185185185185185],[-0.11666666666666667,0.053703703703703705],[-0.12685185185185185,0.05740740740740741],[-0.13518518518518519,0.06111111111111111],[-0.14351851851851852,0.06481481481481481],[-0.15185185185185185,0.06944444444444445],[-0.15833333333333333,0.07407407407407407],[-0.1648148148148148,0.07777777777777778],[-0.17037037037037037,0.08055555555555556],[-0.175,0.08333333333333333],[-0.1814814814814815,0.08888888888888889],[-0.18796296296296297,0.09444444444444444],[-0.19444444444444445,0.1],[-0.20092592592592592,0.10555555555555556],[-0.20555555555555555,0.11018518518518519],[-0.20925925925925926,0.11388888888888889],[-0.21296296296296297,0.11574074074074074],[-0.21388888888888888,0.11666666666666667],[-0.21388888888888888,0.11666666666666667],[-0.21388888888888888,0.11666666666666667],[-0.21481481481481482,0.11666666666666667],[-0.21481481481481482,0.11666666666666667],[-0.21481481481481482,0.11666666666666667],[-0.21481481481481482,0.11666666666666667],[-0.21481481481481482,0.11666666666666667],[-0.21481481481481482,0.1175925925925926],[-0.21481481481481482,0.1175925925925926],[-0.21481481481481482,0.1175925925925926],[-0.21481481481481482,0.11851851851851852],[-0.21481481481481482,0.11851851851851852],[-0.21481481481481482,0.11944444444444445],[-0.21388888888888888,0.12129629629629629],[-0.21296296296296297,0.12222222222222222],[-0.21296296296296297,0.12314814814814815],[-0.21203703703703702,0.12407407407407407],[-0.2111111111111111,0.12685185185185185],[-0.2101851851851852,0.1287037037037037],[-0.20925925925925926,0.12962962962962962],[-0.20925925925925926,0.13055555555555556],[-0.20925925925925926,0.13055555555555556],[-0.20925925925925926,0.13055555555555556],[-0.20925925925925926,0.13055555555555556],[-0.20833333333333334,0.13055555555555556],[-0.19907407407407407,0.13240740740740742],[-0.18796296296296297,0.13425925925925927],[-0.18333333333333332,0.13518518518518519],[-0.1814814814814815,0.1361111111111111],[-0.17592592592592593,0.13703703703703704],[-0.1712962962962963,0.14074074074074075],[-0.1675925925925926,0.1425925925925926],[-0.16574074074074074,0.14444444444444443],[-0.1638888888888889,0.14537037037037037],[-0.16203703703703703,0.14722222222222223],[-0.1574074074074074,0.14907407407407408],[-0.1527777777777778,0.1527777777777778],[-0.14814814814814814,0.15462962962962962],[-0.14629629629629629,0.15648148148148147],[-0.14351851851851852,0.1574074074074074],[-0.14074074074074075,0.15925925925925927],[-0.1361111111111111,0.16203703703703703],[-0.13333333333333333,0.16296296296296298],[-0.13055555555555556,0.1638888888888889],[-0.12407407407407407,0.1648148148148148],[-0.11481481481481481,0.16666666666666666],[-0.10648148148148148,0.1675925925925926],[-0.09814814814814815,0.1675925925925926],[-0.08888888888888889,0.1675925925925926],[-0.08148148148148149,0.1675925925925926],[-0.075,0.1675925925925926],[-0.07222222222222222,0.1675925925925926],[-0.06944444444444445,0.1675925925925926],[-0.06481481481481481,0.1685185185185185],[-0.058333333333333334,0.1685185185185185],[-0.05555555555555555,0.1685185185185185],[-0.05462962962962963,0.1685185185185185],[-0.05462962962962963,0.1685185185185185],[-0.053703703703703705,0.1675925925925926],[-0.049074074074074076,0.16666666666666666],[-0.03796296296296296,0.1638888888888889],[-0.02962962962962963,0.16296296296296298],[-0.026851851851851852,0.16111111111111112],[-0.025,0.16018518518518518],[-0.024074074074074074,0.16018518518518518],[-0.024074074074074074,0.16018518518518518],[-0.022222222222222223,0.16018518518518518],[-0.014814814814814815,0.1574074074074074],[-0.012037037037037037,0.1574074074074074],[-0.011111111111111112,0.15648148148148147],[-0.011111111111111112,0.15648148148148147],[-0.010185185185185186,0.15648148148148147],[-0.010185185185185186,0.15648148148148147],[-0.010185185185185186,0.15648148148148147],[-0.010185185185185186,0.15648148148148147],[-0.010185185185185186,0.15648148148148147],[-0.010185185185185186,0.15648148148148147],[-0.010185185185185186,0.15648148148148147],[-0.009259259259259259,0.15648148148148147],[-0.008333333333333333,0.15648148148148147],[-0.005555555555555556,0.15648148148148147],[-0.000925925925925926,0.15555555555555556],[0.003703703703703704,0.1537037037037037],[0.005555555555555556,0.1527777777777778],[0.006481481481481481,0.1527777777777778],[0.007407407407407408,0.15185185185185185],[0.009259259259259259,0.15092592592592594],[0.016666666666666666,0.14722222222222223]],[[-0.000925925925925926,-0.2074074074074074],[-0.000925925925925926,-0.2074074074074074],[-0.000925925925925926,-0.2074074074074074],[-0.000925925925925926,-0.2074074074074074],[-0.000925925925925926,-0.2074074074074074],[-0.000925925925925926,-0.2074074074074074],[-0.000925925925925926,-0.2074074074074074],[-0.000925925925925926,-0.2074074074074074],[-0.000925925925925926,-0.2074074074074074],[-0.000925925925925926,-0.2074074074074074],[-0.000925925925925926,-0.2074074074074074],[-0.000925925925925926,-0.2074074074074074],[-0.000925925925925926,-0.2074074074074074],[-0.000925925925925926,-0.2074074074074074],[-0.000925925925925926,-0.2074074074074074],[0,-0.20833333333333334],[0.006481481481481481,-0.21388888888888888],[0.013888888888888888,-0.2175925925925926],[0.019444444444444445,-0.2212962962962963],[0.023148148148148147,-0.2222222222222222],[0.02962962962962963,-0.22407407407407406],[0.032407407407407406,-0.22407407407407406],[0.03611111111111111,-0.22407407407407406],[0.03981481481481482,-0.22407407407407406],[0.041666666666666664,-0.22314814814814815],[0.04259259259259259,-0.22314814814814815],[0.04259259259259259,-0.22314814814814815],[0.046296296296296294,-0.2222222222222222],[0.04814814814814815,-0.2222222222222222],[0.05,-0.2222222222222222],[0.05,-0.2222222222222222],[0.05,-0.2222222222222222],[0.05,-0.2222222222222222],[0.05092592592592592,-0.2222222222222222],[0.05185185185185185,-0.2222222222222222],[0.05555555555555555,-0.2222222222222222],[0.06296296296296296,-0.2212962962962963],[0.06851851851851852,-0.2212962962962963],[0.07222222222222222,-0.22037037037037038],[0.07777777777777778,-0.21944444444444444],[0.08611111111111111,-0.2175925925925926],[0.09351851851851851,-0.21574074074074073],[0.09537037037037037,-0.21481481481481482],[0.0962962962962963,-0.21481481481481482],[0.09722222222222222,-0.21481481481481482],[0.09907407407407408,-0.21388888888888888],[0.10277777777777777,-0.21388888888888888],[0.10833333333333334,-0.21296296296296297],[0.11018518518518519,-0.21296296296296297],[0.11203703703703703,-0.21203703703703702],[0.11574074074074074,-0.21296296296296297],[0.11851851851851852,-0.21481481481481482],[0.11944444444444445,-0.21481481481481482],[0.11944444444444445,-0.21481481481481482],[0.11944444444444445,-0.21481481481481482],[0.11944444444444445,-0.21481481481481482],[0.11944444444444445,-0.21481481481481482],[0.11944444444444445,-0.21481481481481482],[0.11944444444444445,-0.21481481481481482],[0.11944444444444445,-0.21481481481481482],[0.12037037037037036,-0.21481481481481482],[0.12129629629629629,-0.21481481481481482],[0.12962962962962962,-0.21574074074074073],[0.1361111111111111,-0.21574074074074073],[0.14074074074074075,-0.21574074074074073],[0.14444444444444443,-0.21481481481481482],[0.14444444444444443,-0.21481481481481482],[0.14537037037037037,-0.21481481481481482],[0.14537037037037037,-0.21481481481481482],[0.14537037037037037,-0.21481481481481482],[0.14537037037037037,-0.21481481481481482],[0.14537037037037037,-0.21481481481481482],[0.14537037037037037,-0.21481481481481482],[0.14537037037037037,-0.21481481481481482],[0.14537037037037037,-0.21481481481481482],[0.14537037037037037,-0.21481481481481482],[0.15185185185185185,-0.21296296296296297],[0.16574074074074074,-0.20925925925925926],[0.1712962962962963,-0.2074074074074074],[0.17222222222222222,-0.2074074074074074],[0.175,-0.2074074074074074],[0.18333333333333332,-0.2074074074074074],[0.19074074074074074,-0.2074074074074074],[0.1962962962962963,-0.2074074074074074],[0.2,-0.2064814814814815],[0.20277777777777778,-0.2064814814814815],[0.20555555555555555,-0.2064814814814815],[0.2074074074074074,-0.2064814814814815],[0.2111111111111111,-0.2064814814814815],[0.21388888888888888,-0.2074074074074074],[0.21666666666666667,-0.2074074074074074],[0.21944444444444444,-0.2074074074074074],[0.2222222222222222,-0.2064814814814815],[0.22962962962962963,-0.20462962962962963],[0.23703703703703705,-0.20185185185185187],[0.24166666666666667,-0.2],[0.24722222222222223,-0.19814814814814816],[0.25277777777777777,-0.1962962962962963],[0.2574074074074074,-0.19444444444444445],[0.2638888888888889,-0.1935185185185185],[0.26666666666666666,-0.19166666666666668],[0.2675925925925926,-0.19166666666666668],[0.27037037037037037,-0.19074074074074074],[0.2740740740740741,-0.18981481481481483],[0.2777777777777778,-0.18888888888888888],[0.28055555555555556,-0.18796296296296297],[0.28425925925925927,-0.18703703703703703],[0.2861111111111111,-0.18518518518518517],[0.28888888888888886,-0.18333333333333332],[0.2935185185185185,-0.1814814814814815],[0.29907407407407405,-0.1787037037037037],[0.30462962962962964,-0.1787037037037037],[0.3074074074074074,-0.1787037037037037],[0.3101851851851852,-0.1787037037037037],[0.3138888888888889,-0.1787037037037037],[0.31666666666666665,-0.18055555555555555],[0.31851851851851853,-0.1824074074074074],[0.32037037037037036,-0.18333333333333332],[0.3212962962962963,-0.18333333333333332],[0.3212962962962963,-0.18333333333333332],[0.32222222222222224,-0.18333333333333332],[0.32314814814814813,-0.18333333333333332],[0.32314814814814813,-0.18333333333333332],[0.32314814814814813,-0.18333333333333332],[0.32407407407407407,-0.18333333333333332],[0.325,-0.18333333333333332],[0.32592592592592595,-0.18333333333333332],[0.32685185185185184,-0.18333333333333332],[0.3277777777777778,-0.18425925925925926],[0.3287037037037037,-0.18425925925925926],[0.3287037037037037,-0.18425925925925926]]]",3,"[199,283,131]",,,,,,,,,,,,,,dock4.jpg,space,16.703165,0,8,8,45,1,fittingroom2.jpg,frontFoyer7.jpg,factory1.jpg,forestpath4.jpg,,
