image_list,key_resp_intructions.keys,key_resp_intructions.rt,key_resp_intructions_3.keys,key_resp_intructions_3.rt,PracticeComplete_2.keys,PracticeComplete_2.rt,PracticeComplete_3.keys,PracticeComplete_3.rt,demo_trials.thisRepN,demo_trials.thisTrialN,demo_trials.thisN,demo_trials.thisIndex,demo_trials.ran,demo_images,path_images,participant,date,expName,psychopyVersion,OS,frameRate,windowSize,drawing,numDrawings,drawingSizes,practice_complete.keys,practice_complete.rt,PracticeComplete.keys,PracticeComplete.rt,practice_trials.thisRepN,practice_trials.thisTrialN,practice_trials.thisN,practice_trials.thisIndex,practice_trials.ran,practice_images,feedback_images,key_resp_intructions_2.keys,key_resp_intructions_2.rt,Image_List_2,trial_complete.keys,trial_complete.rt,trials.thisRepN,trials.thisTrialN,trials.thisN,trials.thisIndex,trials.ran,Image_List_1,Image_List_3,Image_List_4,Image_List_5,key_resp.keys,key_resp.rt
Image_List_2,space,15.65732,space,4.11469,space,5.097955,space,2.15443,0,0,0,5,1,right.jpg,right_path.jpg,44513,2020-11-12_14h20.03.030,analogCatScenes,2020.1.3,MacIntel,60,,,,,,,,,,,,,,,,,,,,,,,,,,,,,,,
Image_List_2,,,,,space,1.93593,space,3.12224,0,1,1,3,1,ahead_right_left.jpg,ahead_right_left_path.jpg,44513,2020-11-12_14h20.03.030,analogCatScenes,2020.1.3,MacIntel,60,,,,,,,,,,,,,,,,,,,,,,,,,,,,,,,
Image_List_2,,,,,space,0.07679,space,1.683635,0,2,2,1,1,ahead_left.jpg,ahead_left_path.jpg,44513,2020-11-12_14h20.03.030,analogCatScenes,2020.1.3,MacIntel,60,,,,,,,,,,,,,,,,,,,,,,,,,,,,,,,
Image_List_2,,,,,space,0.917815,space,0.890005,0,3,3,0,1,ahead.jpg,ahead_path.jpg,44513,2020-11-12_14h20.03.030,analogCatScenes,2020.1.3,MacIntel,60,,,,,,,,,,,,,,,,,,,,,,,,,,,,,,,
Image_List_2,,,,,space,0.64932,space,1.49981,0,4,4,4,1,left.jpg,left_path.jpg,44513,2020-11-12_14h20.03.030,analogCatScenes,2020.1.3,MacIntel,60,,,,,,,,,,,,,,,,,,,,,,,,,,,,,,,
Image_List_2,,,,,space,1.467085,space,0.651295,0,5,5,2,1,ahead_right.jpg,ahead_right_path.jpg,44513,2020-11-12_14h20.03.030,analogCatScenes,2020.1.3,MacIntel,60,,,,,,,,,,,,,,,,,,,,,,,,,,,,,,,
Image_List_2,,,,,space,0.56251,space,0.612965,0,6,6,6,1,right_left.jpg,right_left_path.jpg,44513,2020-11-12_14h20.03.030,analogCatScenes,2020.1.3,MacIntel,60,,,,,,,,,,,,,,,,,,,,,,,,,,,,,,,
Image_List_2,,,,,,,,,,,,,,,,44513,2020-11-12_14h20.03.030,analogCatScenes,2020.1.3,MacIntel,60,"[1680,1050]",[],0,[],space,0.66964,space,0.9881,0,0,0,2,1,ahead_right_2.jpg,ahead_right_2_path.jpg,,,,,,,,,,,,,,,,
Image_List_2,,,,,,,,,,,,,,,,44513,2020-11-12_14h20.03.030,analogCatScenes,2020.1.3,MacIntel,60,"[1680,1050]","[[[-0.0035379464285714285,-0.19966517857142857],[-0.0035379464285714285,-0.19966517857142857],[-0.0035379464285714285,-0.19966517857142857],[-0.0035379464285714285,-0.19966517857142857],[-0.0035379464285714285,-0.19966517857142857],[-0.0035379464285714285,-0.19966517857142857],[-0.0035379464285714285,-0.19966517857142857],[-0.0035379464285714285,-0.1791703869047619],[-0.0035379464285714285,-0.1660825892857143],[-0.0035379464285714285,-0.15681919642857142],[-0.008377976190476191,-0.1253125],[-0.021313244047619046,-0.08462053571428571],[-0.031328125,-0.06220610119047619],[-0.035465029761904764,-0.05452380952380952],[-0.05295014880952381,-0.01832217261904762],[-0.0681547619047619,0.011488095238095238],[-0.0681547619047619,0.011488095238095238],[-0.0681547619047619,0.011488095238095238],[-0.0908110119047619,0.05636904761904762],[-0.1014546130952381,0.06892485119047619],[-0.10761532738095238,0.07281994047619048],[-0.10950892857142858,0.07433407738095238],[-0.11609002976190476,0.07783110119047619],[-0.1193266369047619,0.07843377976190476],[-0.1193266369047619,0.07843377976190476],[-0.1209188988095238,0.07843377976190476],[-0.12251116071428571,0.07764508928571429],[-0.12409970238095239,0.07661458333333333],[-0.12409970238095239,0.07661458333333333],[-0.12594122023809523,0.07582589285714286],[-0.12703497023809524,0.07555431547619047],[-0.1283779761904762,0.074765625],[-0.1289248511904762,0.07449404761904761],[-0.129921875,0.07375744047619047],[-0.129921875,0.07375744047619047],[-0.13015625,0.07329613095238095],[-0.13015625,0.07307291666666667],[-0.13015625,0.07307291666666667],[-0.13015625,0.07307291666666667],[-0.12919642857142857,0.07307291666666667],[-0.12919642857142857,0.07307291666666667],[-0.12872023809523808,0.07282738095238095],[-0.12849330357142857,0.07282738095238095],[-0.12849330357142857,0.07282738095238095],[-0.12849330357142857,0.07282738095238095],[-0.12849330357142857,0.07305059523809523],[-0.12849330357142857,0.07305059523809523],[-0.12849330357142857,0.07375],[-0.12849330357142857,0.073984375],[-0.12849330357142857,0.073984375],[-0.12849330357142857,0.073984375],[-0.12849330357142857,0.073984375],[-0.12849330357142857,0.073984375],[-0.12849330357142857,0.073984375],[-0.12849330357142857,0.073984375],[-0.12849330357142857,0.073984375],[-0.12849330357142857,0.073984375],[-0.1282738095238095,0.073984375],[-0.1282738095238095,0.073984375],[-0.12804315476190475,0.074453125],[-0.12804315476190475,0.07966145833333334],[-0.12804315476190475,0.07966145833333334],[-0.12804315476190475,0.07966145833333334],[-0.12804315476190475,0.07966145833333334],[-0.12804315476190475,0.07966145833333334],[-0.12804315476190475,0.07966145833333334],[-0.12804315476190475,0.07966145833333334],[-0.12804315476190475,0.07966145833333334],[-0.12804315476190475,0.07966145833333334],[-0.12804315476190475,0.07966145833333334],[-0.12804315476190475,0.07966145833333334],[-0.12804315476190475,0.07966145833333334],[-0.12804315476190475,0.07966145833333334],[-0.12804315476190475,0.07966145833333334],[-0.12804315476190475,0.07966145833333334],[-0.12804315476190475,0.07966145833333334],[-0.12804315476190475,0.07966145833333334]],[[0.0012797619047619049,-0.2005357142857143],[0.0012797619047619049,-0.2005357142857143],[0.0012797619047619049,-0.2005357142857143],[0.0012797619047619049,-0.2005357142857143],[0.00806547619047619,-0.190390625],[0.019029017857142855,-0.16903273809523808],[0.025286458333333334,-0.151875],[0.027220982142857144,-0.14703125],[0.027220982142857144,-0.14703125],[0.06495535714285715,-0.08340029761904762],[0.11024553571428572,-0.0007142857142857143],[0.11024553571428572,-0.0007142857142857143],[0.1487313988095238,0.07458333333333333],[0.17019717261904763,0.11815104166666666],[0.18093377976190475,0.13851934523809523],[0.19095982142857143,0.15811755952380951],[0.1969828869047619,0.16934895833333333],[0.19819568452380953,0.17218377976190477],[0.2012983630952381,0.17771205357142858],[0.20181547619047618,0.17875744047619047],[0.20181547619047618,0.17875744047619047],[0.20181547619047618,0.17875744047619047],[0.20181547619047618,0.17875744047619047],[0.2015922619047619,0.17875744047619047],[0.2015922619047619,0.17875744047619047],[0.2008891369047619,0.17875744047619047],[0.2008891369047619,0.17875744047619047],[0.19990699404761905,0.17875744047619047],[0.1996577380952381,0.17875744047619047],[0.19777157738095238,0.17875744047619047],[0.19453497023809524,0.17875744047619047],[0.19453497023809524,0.17875744047619047],[0.19104910714285714,0.17875744047619047],[0.19104910714285714,0.17875744047619047],[0.19081473214285713,0.17900669642857142],[0.19081473214285713,0.17923363095238096],[0.19081473214285713,0.17923363095238096]]]",2,"[77,37]",space,9.51063,space,1.522105,0,1,1,6,1,right_left_2.jpg,right_left_2_path.jpg,,,,,,,,,,,,,,,,
Image_List_2,,,,,,,,,,,,,,,,44513,2020-11-12_14h20.03.030,analogCatScenes,2020.1.3,MacIntel,60,"[1680,1050]","[[[0.005851934523809524,-0.1931547619047619],[0.005851934523809524,-0.1931547619047619],[0.005851934523809524,-0.1931547619047619],[0.005851934523809524,-0.1931547619047619],[0.005851934523809524,-0.1931547619047619],[0.005851934523809524,-0.1931547619047619],[0.005851934523809524,-0.1931547619047619],[0.005851934523809524,-0.1931547619047619],[0.005851934523809524,-0.1931547619047619],[0.005851934523809524,-0.1931547619047619],[0.005851934523809524,-0.1931547619047619],[0.005851934523809524,-0.1931547619047619],[0.005851934523809524,-0.1931547619047619],[0.005851934523809524,-0.1931547619047619],[0.005851934523809524,-0.1931547619047619],[-0.008705357142857143,-0.17496651785714284],[-0.02441220238095238,-0.15609002976190475],[-0.035770089285714284,-0.14473214285714286],[-0.039162946428571425,-0.14085565476190476],[-0.057886904761904764,-0.11989583333333333],[-0.08598958333333333,-0.0865327380952381],[-0.08598958333333333,-0.0865327380952381],[-0.11847470238095238,-0.04484375],[-0.15213541666666666,0.0019940476190476192],[-0.17670758928571428,0.037816220238095236],[-0.17670758928571428,0.037816220238095236],[-0.20230282738095237,0.07613839285714286],[-0.21501116071428572,0.10155133928571429],[-0.21973214285714285,0.11160714285714286],[-0.22135416666666666,0.11403645833333333],[-0.22651785714285713,0.12073660714285714],[-0.22651785714285713,0.12073660714285714],[-0.23287202380952382,0.1251934523809524],[-0.23654017857142856,0.12796875],[-0.23654017857142856,0.12796875],[-0.23906994047619048,0.1302046130952381],[-0.23906994047619048,0.1302046130952381],[-0.24041294642857142,0.13100446428571427],[-0.24041294642857142,0.13100446428571427],[-0.24041294642857142,0.13100446428571427],[-0.24041294642857142,0.13100446428571427],[-0.24041294642857142,0.13100446428571427],[-0.24041294642857142,0.13100446428571427],[-0.24041294642857142,0.13100446428571427],[-0.24041294642857142,0.13100446428571427],[-0.24041294642857142,0.13100446428571427],[-0.24041294642857142,0.13100446428571427],[-0.24041294642857142,0.13100446428571427],[-0.24041294642857142,0.13100446428571427],[-0.24041294642857142,0.13100446428571427],[-0.24041294642857142,0.13100446428571427]]]",1,[51],space,4.40085,space,0.77067,0,2,2,4,1,left_2.jpg,left_2_path.jpg,,,,,,,,,,,,,,,,
Image_List_2,,,,,,,,,,,,,,,,44513,2020-11-12_14h20.03.030,analogCatScenes,2020.1.3,MacIntel,60,"[1680,1050]","[[[0.006752232142857143,-0.20015252976190476],[0.006752232142857143,-0.20015252976190476],[0.006752232142857143,-0.20015252976190476],[0.006752232142857143,-0.20015252976190476],[0.006752232142857143,-0.20015252976190476],[0.006752232142857143,-0.20015252976190476],[0.006752232142857143,-0.20015252976190476],[0.006752232142857143,-0.20015252976190476],[0.006752232142857143,-0.20015252976190476],[0.006752232142857143,-0.20015252976190476],[0.008125,-0.18897321428571429],[0.01005952380952381,-0.18412946428571428],[0.021361607142857144,-0.15599702380952382],[0.029817708333333335,-0.13517113095238095],[0.03263764880952381,-0.12840029761904762],[0.037332589285714285,-0.11504464285714286],[0.04086309523809524,-0.10483630952380953],[0.04086309523809524,-0.10483630952380953],[0.04409970238095238,-0.0972358630952381],[0.04409970238095238,-0.0972358630952381],[0.05061011904761905,-0.07569568452380952],[0.05527529761904762,-0.0580171130952381],[0.05991815476190476,-0.03665922619047619],[0.062410714285714285,-0.023601190476190477],[0.06343005952380952,-0.017979910714285716],[0.0646875,-0.004118303571428571],[0.0646875,-0.004118303571428571],[0.06530133928571429,0.042593005952380955],[0.06530133928571429,0.042593005952380955],[0.06591517857142858,0.0742373511904762],[0.06591517857142858,0.09846354166666667],[0.06591517857142858,0.09846354166666667],[0.06591517857142858,0.11095982142857143],[0.06591517857142858,0.11754092261904762],[0.06591517857142858,0.12023065476190477],[0.06563988095238095,0.12077752976190476],[0.065390625,0.12206845238095237],[0.065390625,0.12206845238095237],[0.06514136904761905,0.12280133928571428],[0.06514136904761905,0.12280133928571428],[0.06514136904761905,0.1230282738095238],[0.06514136904761905,0.12349330357142857],[0.06514136904761905,0.12349330357142857],[0.06514136904761905,0.12349330357142857],[0.06514136904761905,0.12837053571428572],[0.06549107142857143,0.13403645833333333],[0.06584077380952381,0.1393080357142857],[0.06621651785714286,0.14157738095238095],[0.06621651785714286,0.14157738095238095],[0.06621651785714286,0.15079613095238095],[0.06621651785714286,0.15134300595238095],[0.06621651785714286,0.15323288690476192],[0.06621651785714286,0.15323288690476192],[0.06621651785714286,0.15398065476190476],[0.06621651785714286,0.15398065476190476],[0.06621651785714286,0.15398065476190476],[0.06621651785714286,0.15328869047619048],[0.06621651785714286,0.15328869047619048],[0.06621651785714286,0.15328869047619048],[0.06621651785714286,0.15328869047619048],[0.06621651785714286,0.15328869047619048],[0.06621651785714286,0.15328869047619048],[0.06621651785714286,0.15328869047619048],[0.06621651785714286,0.15328869047619048],[0.06621651785714286,0.15328869047619048],[0.06621651785714286,0.15328869047619048],[0.06621651785714286,0.15328869047619048],[0.06621651785714286,0.1537313988095238],[0.06578869047619047,0.16539434523809524],[0.06532738095238096,0.16951636904761905],[0.06319568452380953,0.18270833333333333],[0.060502232142857146,0.20851190476190476],[0.060502232142857146,0.20851190476190476],[0.05904389880952381,0.23549107142857142],[0.05904389880952381,0.23961309523809524],[0.058638392857142854,0.24896205357142856],[0.058638392857142854,0.25125],[0.058638392857142854,0.25125],[0.058638392857142854,0.25125],[0.05840401785714286,0.251484375],[0.05817708333333333,0.251484375],[0.05817708333333333,0.251484375],[0.05817708333333333,0.251484375],[0.057953869047619046,0.251484375],[0.057953869047619046,0.251484375],[0.057953869047619046,0.251484375]]]",1,[86],space,3.72099,space,1.04193,0,3,3,1,1,ahead_left_2.jpg,ahead_left_2_path.jpg,,,,,,,,,,,,,,,,
Image_List_2,,,,,,,,,,,,,,,,44513,2020-11-12_14h20.03.030,analogCatScenes,2020.1.3,MacIntel,60,"[1680,1050]","[[[0.0034188988095238096,-0.20359747023809524],[0.0034188988095238096,-0.20359747023809524],[0.0034188988095238096,-0.20359747023809524],[0.0034188988095238096,-0.20359747023809524],[0.0034188988095238096,-0.20359747023809524],[0.0034188988095238096,-0.20359747023809524],[0.007183779761904762,-0.19497767857142856],[0.03230654761904762,-0.16454613095238096],[0.03230654761904762,-0.16454613095238096],[0.0724404761904762,-0.1279575892857143],[0.10081473214285715,-0.10566220238095238],[0.12674107142857144,-0.08380580357142857],[0.13264880952380953,-0.07789434523809524],[0.15094494047619048,-0.06201636904761905],[0.15094494047619048,-0.06201636904761905],[0.1712574404761905,-0.04879092261904762],[0.1712574404761905,-0.04879092261904762],[0.17866443452380953,-0.04642485119047619],[0.1817485119047619,-0.045494791666666666],[0.18502604166666667,-0.04459077380952381],[0.18556919642857142,-0.04431547619047619],[0.1865513392857143,-0.04406622023809524],[0.186796875,-0.04406622023809524],[0.186796875,-0.04406622023809524],[0.18724702380952382,-0.04406622023809524],[0.18724702380952382,-0.04406622023809524],[0.18724702380952382,-0.04406622023809524],[0.18724702380952382,-0.04406622023809524],[0.18724702380952382,-0.04406622023809524],[0.18724702380952382,-0.04406622023809524],[0.18724702380952382,-0.04406622023809524],[0.18724702380952382,-0.04406622023809524],[0.18724702380952382,-0.04406622023809524],[0.18724702380952382,-0.04406622023809524]]]",1,[34],space,3.431495,space,1.119575,0,4,4,3,1,ahead_right_left_2.jpg,ahead_right_left_2_path.jpg,,,,,,,,,,,,,,,,
Image_List_2,,,,,,,,,,,,,,,,44513,2020-11-12_14h20.03.030,analogCatScenes,2020.1.3,MacIntel,60,"[1680,1050]","[[[-0.004594494047619048,-0.20147693452380952],[-0.004594494047619048,-0.20147693452380952],[-0.004594494047619048,-0.20147693452380952],[-0.004594494047619048,-0.20147693452380952],[-0.004594494047619048,-0.20147693452380952],[-0.004594494047619048,-0.20147693452380952],[-0.002734375,-0.19637648809523808],[-0.002734375,-0.19637648809523808],[0.019192708333333332,-0.17348958333333334],[0.023489583333333335,-0.16864955357142858],[0.041201636904761904,-0.15254092261904761],[0.05198660714285714,-0.1422842261904762],[0.05518973214285714,-0.13907738095238095],[0.06786458333333334,-0.12506324404761904],[0.07061011904761905,-0.12185639880952381],[0.08360863095238096,-0.10927455357142857],[0.09001488095238096,-0.10286086309523809],[0.10282366071428571,-0.09003720238095238],[0.10282366071428571,-0.09003720238095238],[0.12453497023809523,-0.07206845238095239],[0.12773809523809523,-0.06931919642857143],[0.136015625,-0.06299479166666666],[0.14372395833333335,-0.05808035714285714],[0.14614955357142856,-0.05645833333333333],[0.16104910714285714,-0.04833705357142857],[0.16406622023809525,-0.0466108630952381],[0.17720982142857142,-0.03870907738095238],[0.18755580357142856,-0.033530505952380954],[0.19167410714285715,-0.03169642857142857],[0.19167410714285715,-0.03169642857142857],[0.20661458333333332,-0.025398065476190477],[0.21476190476190476,-0.02201264880952381],[0.21702752976190476,-0.021253720238095238],[0.2217782738095238,-0.019657738095238096],[0.22311011904761904,-0.019107142857142857],[0.22311011904761904,-0.019107142857142857],[0.22523065476190476,-0.018058035714285714],[0.2268080357142857,-0.01755952380952381],[0.22754464285714285,-0.01755952380952381],[0.22779017857142858,-0.01755952380952381],[0.22877232142857143,-0.016811755952380953],[0.22877232142857143,-0.016811755952380953],[0.23054315476190476,-0.016063988095238096],[0.23054315476190476,-0.016063988095238096],[0.2310342261904762,-0.016063988095238096],[0.2310342261904762,-0.016063988095238096],[0.2310342261904762,-0.016063988095238096],[0.2310342261904762,-0.016063988095238096],[0.2310342261904762,-0.016063988095238096],[0.23629464285714286,-0.015658482142857144],[0.25257068452380954,-0.012953869047619047],[0.25257068452380954,-0.012953869047619047],[0.2666815476190476,-0.01111235119047619],[0.2769308035714286,-0.010301339285714285],[0.2769308035714286,-0.010301339285714285],[0.2867299107142857,-0.00956845238095238],[0.29197544642857143,-0.008586309523809524],[0.29197544642857143,-0.008586309523809524],[0.2949032738095238,-0.008311011904761904],[0.29588169642857143,-0.008311011904761904],[0.29588169642857143,-0.008311011904761904],[0.29588169642857143,-0.008311011904761904],[0.29588169642857143,-0.008311011904761904],[0.29588169642857143,-0.008311011904761904],[0.29588169642857143,-0.008311011904761904],[0.29588169642857143,-0.008311011904761904],[0.29588169642857143,-0.008311011904761904],[0.29588169642857143,-0.008311011904761904],[0.29588169642857143,-0.008311011904761904],[0.29588169642857143,-0.008311011904761904]]]",1,[70],space,3.366155,space,1.15772,0,5,5,5,1,right_2.jpg,right_2_path.jpg,,,,,,,,,,,,,,,,
Image_List_2,,,,,,,,,,,,,,,,44513,2020-11-12_14h20.03.030,analogCatScenes,2020.1.3,MacIntel,60,"[1680,1050]","[[[0.004110863095238095,-0.19913318452380951],[0.004110863095238095,-0.19913318452380951],[0.004110863095238095,-0.19913318452380951],[0.004110863095238095,-0.19913318452380951],[0.004110863095238095,-0.19913318452380951],[0.004110863095238095,-0.19913318452380951],[0.004110863095238095,-0.19913318452380951],[0.004110863095238095,-0.19494791666666667],[0.004110863095238095,-0.18700892857142856],[0.007459077380952381,-0.16413690476190476],[0.008046875,-0.15586309523809525],[0.013113839285714286,-0.11834821428571428],[0.013113839285714286,-0.11834821428571428],[0.019579613095238094,-0.06470610119047619],[0.020598958333333334,-0.05908482142857143],[0.024445684523809522,-0.01529389880952381],[0.02959077380952381,0.022116815476190477],[0.02959077380952381,0.022116815476190477],[0.02959077380952381,0.022116815476190477],[0.03506324404761905,0.05797619047619047],[0.03506324404761905,0.076015625],[0.03623883928571429,0.10087797619047618],[0.03752604166666667,0.11118675595238095],[0.03752604166666667,0.11118675595238095],[0.04472842261904762,0.1610044642857143],[0.046045386904761905,0.17223958333333333],[0.046045386904761905,0.17399925595238094],[0.046045386904761905,0.17664434523809525],[0.045,0.1776674107142857],[0.045,0.1776674107142857],[0.045,0.1776674107142857],[0.04185639880952381,0.18254464285714286],[0.04050967261904762,0.1844345238095238],[0.039464285714285716,0.18520833333333334],[0.03891741071428571,0.18575520833333334],[0.03891741071428571,0.18575520833333334],[0.036450892857142855,0.18879092261904762],[0.03457217261904762,0.1915625],[0.03397321428571429,0.1924590773809524],[0.031067708333333333,0.1969642857142857],[0.029267113095238096,0.20055059523809524],[0.029267113095238096,0.20055059523809524],[0.029267113095238096,0.20055059523809524],[0.027786458333333333,0.20577752976190475],[0.027540922619047618,0.2070684523809524],[0.027540922619047618,0.20730282738095238],[0.027540922619047618,0.20730282738095238],[0.027540922619047618,0.20730282738095238],[0.027540922619047618,0.20708333333333334],[0.027540922619047618,0.20532738095238096],[0.027540922619047618,0.20532738095238096]]]",1,[51],space,3.045675,space,0.66549,0,6,6,0,1,ahead_2.jpg,ahead_2_path.jpg,,,,,,,,,,,,,,,,
Image_List_2,,,,,,,,,,,,,,,,44513,2020-11-12_14h20.03.030,analogCatScenes,2020.1.3,MacIntel,60,"[1680,1050]","[[[-0.0047395833333333335,-0.20307291666666666],[-0.0047395833333333335,-0.20307291666666666],[-0.0047395833333333335,-0.20307291666666666],[-0.0047395833333333335,-0.20307291666666666],[-0.0047395833333333335,-0.20307291666666666],[-0.0047395833333333335,-0.20307291666666666],[-0.0047395833333333335,-0.2026264880952381],[-0.002693452380952381,-0.19651041666666666],[0.009419642857142857,-0.17478050595238095],[0.013366815476190477,-0.16800967261904762],[0.03126116071428572,-0.1340438988095238],[0.04821800595238095,-0.10593377976190477],[0.05112351190476191,-0.10205729166666666],[0.06943452380952381,-0.07685267857142856],[0.06943452380952381,-0.07685267857142856],[0.08599330357142858,-0.05930431547619048],[0.08599330357142858,-0.05930431547619048],[0.09434895833333333,-0.05171875],[0.10181919642857143,-0.045420386904761904],[0.1033296130952381,-0.04352678571428571],[0.10927083333333333,-0.03894717261904762],[0.11235863095238095,-0.036495535714285716],[0.11235863095238095,-0.036495535714285716],[0.11363839285714286,-0.03572172619047619],[0.11556547619047619,-0.03434895833333333],[0.12026785714285715,-0.03072172619047619],[0.12328497023809523,-0.028563988095238094],[0.1386421130952381,-0.01652529761904762],[0.15166666666666667,-0.006741071428571429],[0.15166666666666667,-0.006741071428571429],[0.1596875,-0.000543154761904762],[0.16101934523809525,0.0005282738095238095],[0.16126488095238095,0.0005282738095238095],[0.16151041666666666,0.0005282738095238095],[0.16151041666666666,0.0005282738095238095],[0.16151041666666666,0.0005282738095238095],[0.16151041666666666,0.0005282738095238095],[0.16151041666666666,0.0005282738095238095],[0.16151041666666666,0.0005282738095238095]]]",1,[39],,,,,,,,,,,,space,4.499705,lab1.jpg,space,3.96572,0,0,0,58,1,highway7.jpg,hedgemaze1.jpg,igloo4.jpg,grocerystore2.jpg,,
Image_List_2,,,,,,,,,,,,,,,,44513,2020-11-12_14h20.03.030,analogCatScenes,2020.1.3,MacIntel,60,"[1680,1050]","[[[0.0027938988095238095,-0.19633928571428572],[0.0027938988095238095,-0.19633928571428572],[0.0027938988095238095,-0.19633928571428572],[0.0027938988095238095,-0.19633928571428572],[0.0027938988095238095,-0.19633928571428572],[0.0027938988095238095,-0.19633928571428572],[0.0027938988095238095,-0.19633928571428572],[0.0027938988095238095,-0.18742559523809524],[0.0027938988095238095,-0.18742559523809524],[-0.0001376488095238095,-0.16802455357142856],[-0.003046875,-0.14047619047619048],[-0.003046875,-0.14047619047619048],[-0.006599702380952381,-0.10499255952380952],[-0.01009672619047619,-0.07283482142857142],[-0.01339657738095238,-0.045420386904761904],[-0.013909970238095239,-0.03981026785714286],[-0.015398065476190477,-0.019657738095238096],[-0.015398065476190477,-0.019657738095238096],[-0.018370535714285714,0.006104910714285715],[-0.01960565476190476,0.015368303571428571],[-0.021302083333333333,0.042347470238095236],[-0.021302083333333333,0.05848214285714286],[-0.021302083333333333,0.05848214285714286],[-0.021629464285714287,0.06691592261904762],[-0.02193080357142857,0.0678125],[-0.022585565476190478,0.07306175595238096],[-0.023240327380952382,0.08076264880952382],[-0.023240327380952382,0.08303199404761905],[-0.023240327380952382,0.08303199404761905],[-0.02359375,0.09181175595238095],[-0.023843005952380952,0.09315104166666667],[-0.023843005952380952,0.09340029761904763],[-0.024092261904761905,0.09414806547619048],[-0.024092261904761905,0.09437872023809524],[-0.024092261904761905,0.09437872023809524],[-0.024322916666666666,0.09437872023809524],[-0.024322916666666666,0.09437872023809524],[-0.02454613095238095,0.09413318452380952],[-0.02454613095238095,0.09413318452380952],[-0.02454613095238095,0.09413318452380952],[-0.02454613095238095,0.09413318452380952]]]",1,[41],,,,,,,,,,,,,,cornfield4.jpg,space,2.623895,0,1,1,26,1,campusquad2.jpg,church4.jpg,churchInside3.jpg,botanicalGarden7.jpg,,
Image_List_2,,,,,,,,,,,,,,,,44513,2020-11-12_14h20.03.030,analogCatScenes,2020.1.3,MacIntel,60,"[1680,1050]","[[[0.010818452380952382,-0.19476190476190477],[0.010818452380952382,-0.19476190476190477],[0.010818452380952382,-0.19476190476190477],[0.010818452380952382,-0.19476190476190477],[0.010818452380952382,-0.19476190476190477],[0.010818452380952382,-0.19341889880952381],[0.010818452380952382,-0.19341889880952381],[0.010818452380952382,-0.19341889880952381],[0.029739583333333333,-0.17614955357142856],[0.046179315476190474,-0.15925223214285714],[0.06305059523809524,-0.13882068452380952],[0.06681175595238095,-0.1334449404761905],[0.06681175595238095,-0.1334449404761905],[0.08264508928571429,-0.10833333333333334],[0.08877232142857143,-0.08670386904761905],[0.08877232142857143,-0.08670386904761905],[0.09201636904761905,-0.060520833333333336],[0.09423735119047619,-0.03208705357142857],[0.09423735119047619,-0.03208705357142857],[0.09477306547619048,-0.006283482142857143],[0.09477306547619048,0.010572916666666666],[0.09477306547619048,0.02027157738095238],[0.09477306547619048,0.02027157738095238],[0.09406622023809524,0.02861235119047619],[0.09406622023809524,0.02861235119047619],[0.09406622023809524,0.03441964285714286],[0.09406622023809524,0.03496651785714286],[0.09406622023809524,0.03601190476190476],[0.09383928571428571,0.03601190476190476],[0.09383928571428571,0.03601190476190476],[0.09383928571428571,0.03601190476190476],[0.09383928571428571,0.03601190476190476],[0.09383928571428571,0.03601190476190476],[0.09383928571428571,0.03601190476190476],[0.09383928571428571,0.03601190476190476],[0.09383928571428571,0.03601190476190476],[0.09383928571428571,0.03530133928571429],[0.09383928571428571,0.035055803571428575]]]",1,[38],,,,,,,,,,,,,,hotelRoom3.jpg,space,2.701245,0,2,2,55,1,greenmountains.jpg,gazebo5.jpg,hotelRoom7.jpg,frontLawn2.jpg,,
Image_List_2,,,,,,,,,,,,,,,,44513,2020-11-12_14h20.03.030,analogCatScenes,2020.1.3,MacIntel,60,"[1680,1050]","[[[-0.0022805059523809523,-0.2024032738095238],[-0.0022805059523809523,-0.2024032738095238],[-0.0022805059523809523,-0.2024032738095238],[-0.0022805059523809523,-0.2024032738095238],[-0.0022805059523809523,-0.2024032738095238],[-0.0022805059523809523,-0.20108630952380951],[-0.0022805059523809523,-0.19889880952380953],[-0.0022805059523809523,-0.19866443452380952],[-0.0022805059523809523,-0.19866443452380952],[-0.0022805059523809523,-0.19866443452380952],[-0.0022805059523809523,-0.19866443452380952],[-0.0022805059523809523,-0.19666294642857143],[-0.0022805059523809523,-0.1953608630952381],[-0.0022805059523809523,-0.1896465773809524],[-0.0022805059523809523,-0.182109375],[-0.0022805059523809523,-0.182109375],[-0.0015773809523809523,-0.16920386904761905],[-0.0008221726190476191,-0.1669345238095238],[0.003969494047619047,-0.15645833333333334],[0.012447916666666666,-0.14853050595238096],[0.015651041666666667,-0.1453236607142857],[0.015651041666666667,-0.1453236607142857],[0.04802083333333333,-0.1227641369047619],[0.0725483630952381,-0.1076860119047619],[0.07845982142857143,-0.10446056547619048],[0.10000372023809524,-0.09133184523809523],[0.11590029761904762,-0.08166294642857143],[0.11590029761904762,-0.08166294642857143],[0.13489955357142858,-0.06840401785714285],[0.13489955357142858,-0.06840401785714285],[0.1475372023809524,-0.05892485119047619],[0.15526785714285715,-0.051960565476190476],[0.159296875,-0.047619047619047616],[0.159296875,-0.047619047619047616],[0.16122395833333333,-0.04510416666666667],[0.16196056547619048,-0.04485491071428571],[0.16196056547619048,-0.04485491071428571],[0.16196056547619048,-0.04462053571428572],[0.16196056547619048,-0.04462053571428572],[0.16196056547619048,-0.04462053571428572],[0.16196056547619048,-0.04462053571428572],[0.16196056547619048,-0.04462053571428572],[0.16196056547619048,-0.04462053571428572],[0.16196056547619048,-0.04462053571428572],[0.16196056547619048,-0.04462053571428572],[0.16196056547619048,-0.04462053571428572],[0.16196056547619048,-0.04462053571428572],[0.1617373511904762,-0.04462053571428572],[0.16150669642857143,-0.04462053571428572],[0.16150669642857143,-0.04462053571428572],[0.16150669642857143,-0.04511160714285714],[0.16150669642857143,-0.04511160714285714]]]",1,[52],,,,,,,,,,,,,,bambooforest.jpg,space,4.686635,0,3,3,5,1,artStudio3.jpg,auto_showroom4.jpg,attic4.jpg,amusement3.jpg,,
Image_List_2,,,,,,,,,,,,,,,,44513,2020-11-12_14h20.03.030,analogCatScenes,2020.1.3,MacIntel,60,"[1680,1050]","[[[-0.0024293154761904764,-0.1950967261904762],[-0.0024293154761904764,-0.1950967261904762],[-0.0024293154761904764,-0.1950967261904762],[-0.0024293154761904764,-0.1950967261904762],[-0.0024293154761904764,-0.1950967261904762],[-0.0024293154761904764,-0.1950967261904762],[-0.0024293154761904764,-0.1950967261904762],[-0.0024293154761904764,-0.1950967261904762],[-0.003991815476190476,-0.1950967261904762],[-0.003991815476190476,-0.1950967261904762],[-0.008988095238095238,-0.19283854166666667],[-0.020405505952380953,-0.18959821428571427],[-0.03354538690476191,-0.18770833333333334],[-0.03916666666666667,-0.18719494047619048],[-0.03916666666666667,-0.18719494047619048],[-0.07050595238095238,-0.18122395833333332],[-0.08287202380952381,-0.17800967261904763],[-0.08632440476190475,-0.17714657738095238],[-0.09828125,-0.1726078869047619],[-0.11001488095238095,-0.16712425595238095],[-0.11001488095238095,-0.16712425595238095],[-0.11001488095238095,-0.16712425595238095],[-0.12078497023809524,-0.1617075892857143],[-0.12607886904761906,-0.15920386904761905],[-0.12917410714285715,-0.15765252976190477],[-0.13047619047619047,-0.1570014880952381],[-0.13836681547619048,-0.15283854166666666],[-0.14153645833333334,-0.15072544642857144],[-0.14937872023809523,-0.14507440476190475],[-0.14937872023809523,-0.14507440476190475],[-0.15651785714285715,-0.13979910714285715],[-0.15651785714285715,-0.13979910714285715],[-0.1691517857142857,-0.12684151785714284],[-0.1718266369047619,-0.12300967261904762],[-0.17824776785714286,-0.11146577380952381],[-0.18173735119047618,-0.10257440476190476],[-0.18311383928571429,-0.09845238095238096],[-0.18544270833333334,-0.08875372023809523],[-0.18544270833333334,-0.08875372023809523],[-0.18877232142857142,-0.07461309523809524],[-0.18920386904761904,-0.07116071428571429],[-0.1910751488095238,-0.062485119047619046],[-0.19254092261904762,-0.054427083333333334],[-0.19254092261904762,-0.054427083333333334],[-0.1935751488095238,-0.04608630952380952],[-0.1935751488095238,-0.045189732142857146],[-0.19390252976190475,-0.04024553571428571],[-0.19390252976190475,-0.03825520833333333],[-0.19390252976190475,-0.03770833333333334],[-0.19390252976190475,-0.03770833333333334],[-0.19390252976190475,-0.03372767857142857],[-0.19390252976190475,-0.03238467261904762],[-0.19390252976190475,-0.032135416666666666],[-0.19390252976190475,-0.031142113095238094],[-0.19390252976190475,-0.030658482142857144],[-0.19390252976190475,-0.030658482142857144],[-0.19390252976190475,-0.02995535714285714],[-0.19390252976190475,-0.02995535714285714],[-0.19390252976190475,-0.029252232142857142],[-0.19390252976190475,-0.02902157738095238],[-0.19390252976190475,-0.02902157738095238],[-0.19390252976190475,-0.02902157738095238],[-0.19390252976190475,-0.028560267857142857],[-0.19390252976190475,-0.028333333333333332],[-0.19390252976190475,-0.028333333333333332],[-0.19390252976190475,-0.028333333333333332],[-0.19390252976190475,-0.028110119047619047],[-0.19390252976190475,-0.028110119047619047],[-0.19390252976190475,-0.028110119047619047],[-0.19390252976190475,-0.028110119047619047]]]",1,[70],,,,,,,,,,,,,,sculpturegarden1.jpg,space,3.41061,0,4,4,83,1,readingroom1.jpg,promenadeDeck6.jpg,restaurant8.jpg,readingroom2.jpg,,
Image_List_2,,,,,,,,,,,,,,,,44513,2020-11-12_14h20.03.030,analogCatScenes,2020.1.3,MacIntel,60,"[1680,1050]","[[[-0.005085565476190476,-0.1971986607142857],[-0.005085565476190476,-0.1971986607142857],[-0.005085565476190476,-0.1971986607142857],[-0.005085565476190476,-0.1971986607142857],[-0.005085565476190476,-0.1971986607142857],[-0.008482142857142856,-0.1971986607142857],[-0.013325892857142857,-0.1971986607142857],[-0.04474330357142857,-0.20078869047619047],[-0.08248511904761904,-0.2056956845238095],[-0.09504836309523809,-0.20709077380952381],[-0.09504836309523809,-0.20709077380952381],[-0.16949404761904763,-0.20783854166666665],[-0.20425223214285715,-0.20010416666666667],[-0.22712425595238095,-0.19152901785714285],[-0.23389508928571429,-0.18870535714285713],[-0.23389508928571429,-0.18870535714285713],[-0.25974330357142855,-0.17081101190476192],[-0.26440104166666667,-0.1615625],[-0.26440104166666667,-0.1615625],[-0.26690104166666667,-0.15271205357142856],[-0.26755580357142855,-0.14880580357142856],[-0.26788318452380955,-0.14750372023809524],[-0.26901785714285714,-0.13936383928571427],[-0.27063988095238095,-0.12797247023809524],[-0.27063988095238095,-0.12797247023809524],[-0.27239583333333334,-0.11349330357142857],[-0.2732328869047619,-0.10132440476190477],[-0.2732328869047619,-0.10132440476190477],[-0.27361235119047617,-0.09219122023809524],[-0.2739918154761905,-0.07791294642857143],[-0.2739918154761905,-0.065546875],[-0.2735639880952381,-0.06209449404761905],[-0.27131324404761903,-0.04717261904761905],[-0.27131324404761903,-0.04717261904761905],[-0.26418526785714286,-0.024449404761904762],[-0.26418526785714286,-0.024449404761904762],[-0.25796875,-0.009300595238095238],[-0.24889880952380952,0.004713541666666667],[-0.24889880952380952,0.004713541666666667],[-0.24889880952380952,0.004713541666666667],[-0.23541666666666666,0.02220610119047619],[-0.22877604166666668,0.030758928571428572],[-0.22734002976190476,0.03309895833333333],[-0.22704241071428571,0.033995535714285714],[-0.22704241071428571,0.033995535714285714],[-0.22100818452380952,0.04954985119047619],[-0.2173139880952381,0.05512276785714286],[-0.21626488095238094,0.05652529761904762],[-0.21428571428571427,0.05911458333333333],[-0.21428571428571427,0.05911458333333333],[-0.21428571428571427,0.05911458333333333],[-0.21428571428571427,0.05911458333333333],[-0.21428571428571427,0.05911458333333333],[-0.21428571428571427,0.05911458333333333],[-0.21428571428571427,0.05911458333333333],[-0.21428571428571427,0.05911458333333333],[-0.21428571428571427,0.05911458333333333],[-0.21428571428571427,0.05911458333333333],[-0.21428571428571427,0.05911458333333333],[-0.21428571428571427,0.05911458333333333],[-0.21428571428571427,0.05911458333333333],[-0.21428571428571427,0.05911458333333333],[-0.21428571428571427,0.05911458333333333],[-0.21428571428571427,0.05911458333333333],[-0.21428571428571427,0.05911458333333333],[-0.21428571428571427,0.05911458333333333],[-0.20792410714285714,0.060833333333333336],[-0.20509300595238095,0.06204985119047619],[-0.20509300595238095,0.06204985119047619],[-0.18312872023809523,0.07492559523809524],[-0.1709561011904762,0.08360863095238096],[-0.1709561011904762,0.08360863095238096],[-0.16268229166666667,0.09093005952380952],[-0.1574107142857143,0.09656994047619048],[-0.15272321428571428,0.10018601190476191],[-0.15131696428571428,0.10159598214285714],[-0.1454278273809524,0.10555431547619047],[-0.14409598214285715,0.10635416666666667],[-0.14385044642857142,0.10660342261904762],[-0.14312872023809523,0.10660342261904762],[-0.14312872023809523,0.10660342261904762],[-0.14312872023809523,0.10660342261904762],[-0.14312872023809523,0.10660342261904762],[-0.14312872023809523,0.10660342261904762],[-0.14312872023809523,0.10660342261904762],[-0.14312872023809523,0.10660342261904762],[-0.14312872023809523,0.10660342261904762],[-0.14312872023809523,0.10660342261904762],[-0.14312872023809523,0.10660342261904762],[-0.14312872023809523,0.10660342261904762],[-0.14312872023809523,0.10660342261904762]]]",1,[91],,,,,,,,,,,,,,banquetHall2.jpg,space,5.7471,0,5,5,6,1,ATM1.jpg,auto_showroom5.jpg,baggageClaim1.jpg,apartmentBuilding3.jpg,,
Image_List_2,,,,,,,,,,,,,,,,44513,2020-11-12_14h20.03.030,analogCatScenes,2020.1.3,MacIntel,60,"[1680,1050]","[[[0.004263392857142857,-0.19426339285714286],[0.004263392857142857,-0.19426339285714286],[0.004263392857142857,-0.19426339285714286],[0.004263392857142857,-0.19426339285714286],[0.004263392857142857,-0.19426339285714286],[0.004263392857142857,-0.19404017857142858],[0.008311011904761904,-0.18843377976190476],[0.01876860119047619,-0.17969494047619047],[0.028058035714285716,-0.17263020833333334],[0.03193080357142857,-0.16972098214285714],[0.05058407738095238,-0.15658854166666666],[0.06876116071428572,-0.14628348214285714],[0.06876116071428572,-0.14628348214285714],[0.08324404761904762,-0.13811755952380952],[0.10072544642857142,-0.12842633928571429],[0.10072544642857142,-0.12842633928571429],[0.12242559523809524,-0.1144233630952381],[0.13936755952380953,-0.10327380952380952],[0.1475967261904762,-0.09697172619047618],[0.16046130952380952,-0.08549107142857143],[0.16046130952380952,-0.08549107142857143],[0.17739211309523809,-0.06665550595238096],[0.17739211309523809,-0.06665550595238096],[0.18729166666666666,-0.051090029761904764],[0.19426339285714286,-0.04116815476190476],[0.19426339285714286,-0.04116815476190476],[0.2021391369047619,-0.0340625],[0.2021391369047619,-0.0340625],[0.21483630952380953,-0.023366815476190475],[0.21685639880952381,-0.021343005952380954],[0.22452752976190476,-0.014791666666666667],[0.23428199404761904,-0.007875744047619048],[0.23428199404761904,-0.007875744047619048],[0.23428199404761904,-0.007875744047619048],[0.24899925595238095,0.002302827380952381],[0.2589434523809524,0.009810267857142858],[0.2589434523809524,0.009810267857142858],[0.2694828869047619,0.015509672619047619],[0.2694828869047619,0.015509672619047619],[0.28430431547619045,0.022589285714285715],[0.2900818452380952,0.02583705357142857],[0.2918377976190476,0.02654389880952381],[0.2984040178571429,0.030014880952380953],[0.3018936011904762,0.03191592261904762],[0.3027827380952381,0.032213541666666665],[0.3027827380952381,0.032213541666666665],[0.3098139880952381,0.035424107142857146],[0.31465401785714286,0.03732886904761905],[0.3159337797619048,0.037853422619047616],[0.3159337797619048,0.037853422619047616],[0.3159337797619048,0.037853422619047616],[0.3161793154761905,0.037853422619047616],[0.3161793154761905,0.037853422619047616],[0.3161793154761905,0.037853422619047616]]]",1,[54],,,,,,,,,,,,,,volleyballcourt4.jpg,space,3.07123,0,6,6,93,1,tollbooth8.jpg,staircase4.jpg,warehouseoutside2.jpg,tenniscourt.jpg,,
Image_List_2,,,,,,,,,,,,,,,,44513,2020-11-12_14h20.03.030,analogCatScenes,2020.1.3,MacIntel,60,"[1680,1050]","[[[0.005837053571428571,-0.19052455357142858],[0.005837053571428571,-0.19052455357142858],[0.005837053571428571,-0.19052455357142858],[0.006056547619047619,-0.19052455357142858],[0.01347470238095238,-0.18891369047619047],[0.019092261904761904,-0.1868675595238095],[0.0471875,-0.1769717261904762],[0.08781994047619048,-0.1646986607142857],[0.11437127976190477,-0.1589732142857143],[0.12467633928571428,-0.15639508928571427],[0.16234002976190476,-0.14889880952380952],[0.19089285714285714,-0.13994419642857142],[0.19089285714285714,-0.13994419642857142],[0.21006324404761906,-0.13544642857142858],[0.2227269345238095,-0.13376860119047618],[0.2227269345238095,-0.13376860119047618],[0.22856770833333334,-0.13276041666666666],[0.22984375,-0.13223958333333333],[0.22984375,-0.13223958333333333],[0.22984375,-0.13223958333333333],[0.22984375,-0.13223958333333333],[0.22984375,-0.13223958333333333],[0.22984375,-0.13223958333333333],[0.22984375,-0.13223958333333333],[0.22984375,-0.13223958333333333],[0.22984375,-0.13223958333333333],[0.22984375,-0.13223958333333333],[0.22984375,-0.13223958333333333]]]",1,[28],,,,,,,,,,,,,,frontFoyer4.jpg,space,2.10053,0,7,7,44,1,firestation2.jpg,elevatorOutside1.jpg,foodcourt6.jpg,dock2.jpg,,
Image_List_2,,,,,,,,,,,,,,,,44513,2020-11-12_14h20.03.030,analogCatScenes,2020.1.3,MacIntel,60,"[1680,1050]","[[[0.007477678571428572,-0.1911049107142857],[0.007477678571428572,-0.1911049107142857],[0.007477678571428572,-0.1911049107142857],[0.007477678571428572,-0.1911049107142857],[0.007477678571428572,-0.19088169642857142],[0.015539434523809523,-0.18372395833333333],[0.015539434523809523,-0.18372395833333333],[0.015539434523809523,-0.18372395833333333],[0.051127232142857144,-0.15987723214285715],[0.08974330357142857,-0.13587425595238095],[0.1321949404761905,-0.1112313988095238],[0.1321949404761905,-0.1112313988095238],[0.17023809523809524,-0.08765997023809524],[0.2110267857142857,-0.05861235119047619],[0.2204203869047619,-0.05122767857142857],[0.2530208333333333,-0.03242559523809524],[0.2792894345238095,-0.02011532738095238],[0.29235863095238096,-0.012849702380952382],[0.2958072916666667,-0.011123511904761905],[0.3046763392857143,-0.003909970238095238],[0.3096986607142857,0.0022135416666666666],[0.3096986607142857,0.0022135416666666666],[0.3117857142857143,0.005182291666666667],[0.31276785714285715,0.005930059523809524],[0.31276785714285715,0.005930059523809524],[0.31276785714285715,0.005930059523809524],[0.31276785714285715,0.005930059523809524],[0.31276785714285715,0.005930059523809524],[0.31276785714285715,0.005930059523809524],[0.31276785714285715,0.005930059523809524],[0.31276785714285715,0.005930059523809524],[0.31276785714285715,0.005930059523809524],[0.31276785714285715,0.005930059523809524],[0.31276785714285715,0.005930059523809524],[0.31276785714285715,0.005930059523809524],[0.31276785714285715,0.005465029761904762],[0.31276785714285715,0.005465029761904762],[0.31276785714285715,0.004973958333333334]]]",1,[38],,,,,,,,,,,,,,yogastudio4.jpg,space,2.798185,0,8,8,99,1,wineVineyard9.jpg,windmill2.jpg,wrestlingring7.jpg,yogastudio1.jpg,,
Image_List_2,,,,,,,,,,,,,,,,44513,2020-11-12_14h20.03.030,analogCatScenes,2020.1.3,MacIntel,60,"[1680,1050]","[[[-0.006402529761904762,-0.1991480654761905],[-0.006402529761904762,-0.1991480654761905],[-0.006402529761904762,-0.1991480654761905],[-0.006402529761904762,-0.1991480654761905],[-0.006402529761904762,-0.1991480654761905],[-0.006402529761904762,-0.1991480654761905],[-0.006402529761904762,-0.1991480654761905],[-0.006402529761904762,-0.1991480654761905],[-0.0011495535714285713,-0.1991480654761905],[0.001681547619047619,-0.1991480654761905],[0.018311011904761906,-0.1991480654761905],[0.03438616071428571,-0.1991480654761905],[0.04000372023809524,-0.1991480654761905],[0.06496279761904762,-0.19699776785714285],[0.08909226190476191,-0.19175223214285714],[0.08909226190476191,-0.19175223214285714],[0.10850818452380952,-0.18786830357142856],[0.12194568452380952,-0.1865141369047619],[0.12194568452380952,-0.1865141369047619],[0.13363839285714285,-0.1844047619047619],[0.1420126488095238,-0.18166294642857142],[0.1420126488095238,-0.18166294642857142],[0.14776785714285715,-0.17556919642857144],[0.15216517857142858,-0.1682142857142857],[0.1545126488095238,-0.16385044642857144],[0.15515997023809525,-0.1625483630952381],[0.15899181547619048,-0.15586309523809525],[0.15899181547619048,-0.15586309523809525],[0.1730171130952381,-0.13597470238095238],[0.1730171130952381,-0.13597470238095238],[0.18291666666666667,-0.11992559523809523],[0.18864955357142857,-0.10646949404761905],[0.1899404761904762,-0.10302455357142858],[0.1899404761904762,-0.10302455357142858],[0.19136532738095238,-0.09281994047619048],[0.19136532738095238,-0.08972470238095238],[0.19136532738095238,-0.08972470238095238],[0.19136532738095238,-0.08972470238095238],[0.19136532738095238,-0.08972470238095238],[0.19136532738095238,-0.08972470238095238],[0.19136532738095238,-0.08972470238095238],[0.19136532738095238,-0.08972470238095238],[0.19136532738095238,-0.08972470238095238],[0.19136532738095238,-0.08972470238095238],[0.19136532738095238,-0.08972470238095238],[0.19136532738095238,-0.08972470238095238],[0.19136532738095238,-0.08972470238095238],[0.19136532738095238,-0.08972470238095238],[0.19136532738095238,-0.08972470238095238],[0.19136532738095238,-0.08972470238095238],[0.19136532738095238,-0.08972470238095238],[0.19136532738095238,-0.08972470238095238],[0.19136532738095238,-0.0857626488095238],[0.19357142857142856,-0.07241443452380952],[0.19357142857142856,-0.07241443452380952],[0.19749627976190476,-0.054892113095238095],[0.19892113095238095,-0.0472358630952381],[0.19892113095238095,-0.0472358630952381],[0.19978794642857142,-0.04380208333333333],[0.19978794642857142,-0.04355282738095238],[0.19978794642857142,-0.042261904761904764],[0.19978794642857142,-0.04202752976190476],[0.19978794642857142,-0.04202752976190476],[0.19978794642857142,-0.04180059523809524],[0.19978794642857142,-0.04180059523809524],[0.19978794642857142,-0.04180059523809524],[0.19978794642857142,-0.04180059523809524],[0.19978794642857142,-0.04180059523809524],[0.19978794642857142,-0.04180059523809524]]]",1,[69],,,,,,,,,,,,,,homeoffice.jpg,space,3.430825,0,9,9,53,1,gazebo3.jpg,frontLawn3.jpg,homegarage3.jpg,fountain.jpg,,
Image_List_2,,,,,,,,,,,,,,,,44513,2020-11-12_14h20.03.030,analogCatScenes,2020.1.3,MacIntel,60,"[1680,1050]","[[[-0.0023623511904761903,-0.20934523809523808],[-0.0023623511904761903,-0.20934523809523808],[-0.0023623511904761903,-0.20934523809523808],[-0.0023623511904761903,-0.2088950892857143],[-0.0023623511904761903,-0.20685267857142858],[-0.0023623511904761903,-0.2059561011904762],[-0.0023623511904761903,-0.20059151785714285],[-0.0023623511904761903,-0.18250744047619047],[-0.0023623511904761903,-0.18250744047619047],[0.004795386904761905,-0.14914806547619047],[0.004795386904761905,-0.14914806547619047],[0.012626488095238095,-0.10993303571428571],[0.014174107142857143,-0.09182663690476191],[0.014601934523809524,-0.08837425595238095],[0.015431547619047619,-0.07641741071428572],[0.01655877976190476,-0.06671875],[0.01693452380952381,-0.06444940476190476],[0.01763392857142857,-0.057819940476190476],[0.01763392857142857,-0.055621279761904764],[0.01763392857142857,-0.05308407738095238],[0.01763392857142857,-0.052038690476190474],[0.01763392857142857,-0.051789434523809526],[0.01763392857142857,-0.05079241071428572],[0.01763392857142857,-0.04920014880952381],[0.01763392857142857,-0.04920014880952381],[0.01763392857142857,-0.04423735119047619],[0.019754464285714285,-0.031558779761904764],[0.020182291666666668,-0.02810639880952381],[0.022250744047619047,-0.01652529761904762],[0.02351934523809524,-0.011614583333333333],[0.023816964285714285,-0.01046875],[0.0240625,-0.009735863095238096],[0.0240625,-0.009735863095238096],[0.0240625,-0.009501488095238096],[0.0240625,-0.009501488095238096],[0.0240625,-0.010189732142857143],[0.0240625,-0.011082589285714286],[0.0240625,-0.011082589285714286],[0.0240625,-0.011082589285714286],[0.0240625,-0.011082589285714286],[0.0240625,-0.011082589285714286],[0.0240625,-0.011082589285714286],[0.0240625,-0.011082589285714286],[0.0240625,-0.011082589285714286],[0.0240625,-0.011082589285714286],[0.0240625,-0.011082589285714286]]]",1,[46],,,,,,,,,,,,,,pharmacy4.jpg,space,2.63754,0,10,10,72,1,museum5.jpg,musicStore1.jpg,museum4.jpg,kindergarten_classroom.jpg,,
Image_List_2,,,,,,,,,,,,,,,,44513,2020-11-12_14h20.03.030,analogCatScenes,2020.1.3,MacIntel,60,"[1680,1050]","[[[0.003244047619047619,-0.19291294642857143],[0.003244047619047619,-0.19291294642857143],[0.003244047619047619,-0.19291294642857143],[0.003244047619047619,-0.19291294642857143],[0.003244047619047619,-0.19291294642857143],[0.0012686011904761904,-0.19291294642857143],[-0.009720982142857142,-0.19291294642857143],[-0.012555803571428572,-0.19250744047619048],[-0.04055803571428571,-0.1862686011904762],[-0.0685639880952381,-0.17997395833333332],[-0.0685639880952381,-0.17997395833333332],[-0.0685639880952381,-0.17997395833333332],[-0.11155877976190476,-0.16927083333333334],[-0.13171130952380952,-0.16237723214285715],[-0.14778645833333334,-0.1529761904761905],[-0.14778645833333334,-0.1529761904761905],[-0.14778645833333334,-0.1529761904761905],[-0.16640625,-0.1306436011904762],[-0.17135044642857142,-0.12123511904761905],[-0.1816703869047619,-0.08704613095238095],[-0.18414806547619048,-0.060483630952380955],[-0.184765625,-0.051220238095238096],[-0.18691964285714285,-0.02431547619047619],[-0.18691964285714285,-0.02431547619047619],[-0.1886235119047619,-0.0013764880952380953],[-0.1886235119047619,-0.0013764880952380953],[-0.17702752976190475,0.026432291666666666],[-0.16090029761904762,0.06024181547619047],[-0.16090029761904762,0.06024181547619047],[-0.1366889880952381,0.09311383928571429],[-0.1366889880952381,0.09311383928571429],[-0.1366889880952381,0.09311383928571429],[-0.1366889880952381,0.09311383928571429],[-0.1366889880952381,0.09311383928571429],[-0.1366889880952381,0.09311383928571429],[-0.1366889880952381,0.09311383928571429],[-0.1366889880952381,0.09311383928571429],[-0.1366889880952381,0.09311383928571429],[-0.1366889880952381,0.09311383928571429],[-0.1366889880952381,0.09311383928571429],[-0.1366889880952381,0.09311383928571429],[-0.1366889880952381,0.09311383928571429],[-0.1366889880952381,0.09311383928571429],[-0.1366889880952381,0.09311383928571429],[-0.1366889880952381,0.09311383928571429],[-0.1366889880952381,0.09311383928571429],[-0.11626488095238095,0.10128348214285714],[-0.10101934523809523,0.1083891369047619],[-0.09425223214285715,0.11177455357142857],[-0.0694047619047619,0.12612723214285715],[-0.0537202380952381,0.13561011904761905],[-0.050889136904761906,0.1368266369047619],[-0.038329613095238094,0.1414174107142857],[-0.029676339285714285,0.1430654761904762],[-0.026238839285714285,0.1434970238095238],[-0.01542782738095238,0.14593005952380952],[-0.004051339285714286,0.15001116071428572],[-0.004051339285714286,0.15001116071428572],[0.011320684523809525,0.15728794642857144],[0.029073660714285715,0.16593005952380951],[0.047496279761904764,0.17468005952380952],[0.047496279761904764,0.17468005952380952],[0.06280133928571428,0.18566964285714285],[0.06280133928571428,0.18566964285714285],[0.07743303571428571,0.21049107142857143],[0.07904389880952381,0.21694196428571427],[0.08355654761904761,0.25954613095238094],[0.08556175595238096,0.30472842261904765],[0.08556175595238096,0.3201450892857143],[0.08556175595238096,0.3242671130952381],[0.08447544642857142,0.32829613095238097],[0.08447544642857142,0.32829613095238097],[0.08447544642857142,0.32829613095238097],[0.08447544642857142,0.32829613095238097],[0.08447544642857142,0.32829613095238097],[0.08447544642857142,0.32829613095238097],[0.08447544642857142,0.32829613095238097],[0.08447544642857142,0.32829613095238097],[0.08447544642857142,0.32829613095238097],[0.08447544642857142,0.32829613095238097],[0.08447544642857142,0.32829613095238097],[0.08447544642857142,0.32829613095238097],[0.08447544642857142,0.32829613095238097],[0.08447544642857142,0.32829613095238097],[0.08447544642857142,0.32829613095238097],[0.08447544642857142,0.32829613095238097],[0.08447544642857142,0.32829613095238097],[0.08447544642857142,0.32829613095238097],[0.08447544642857142,0.32829613095238097],[0.08447544642857142,0.32829613095238097],[0.08447544642857142,0.32829613095238097],[0.0821391369047619,0.3320238095238095],[0.0821391369047619,0.3320238095238095],[0.0821391369047619,0.3320238095238095],[0.06901413690476191,0.3418526785714286],[0.05078869047619047,0.3516666666666667],[0.03283482142857143,0.3609002976190476],[0.03283482142857143,0.3609002976190476],[0.015576636904761906,0.3686681547619048],[0.0057700892857142855,0.37256324404761904],[-0.002220982142857143,0.3757514880952381],[-0.003523065476190476,0.37607886904761906],[-0.014914434523809524,0.3801599702380952],[-0.014914434523809524,0.3801599702380952],[-0.030829613095238094,0.3833482142857143],[-0.030829613095238094,0.3833482142857143],[-0.04572916666666667,0.3857217261904762],[-0.06019717261904762,0.3879092261904762],[-0.07529017857142857,0.3896875],[-0.07874255952380953,0.3896875],[-0.08899553571428571,0.3896875],[-0.09529389880952381,0.3896875],[-0.09756324404761904,0.3896875],[-0.10787946428571428,0.3896875],[-0.11712053571428571,0.3896875],[-0.11712053571428571,0.3896875],[-0.12675223214285714,0.3896875],[-0.1370684523809524,0.3896875],[-0.14692708333333335,0.3896875],[-0.14692708333333335,0.3896875],[-0.14692708333333335,0.3896875],[-0.16991071428571428,0.3896875],[-0.18305059523809525,0.3896875],[-0.20316964285714287,0.3896875],[-0.20801339285714285,0.38920386904761906],[-0.22517113095238095,0.38735491071428574],[-0.23825892857142858,0.3859561011904762],[-0.2423809523809524,0.3854985119047619],[-0.2563467261904762,0.38377976190476193],[-0.2698697916666667,0.38327008928571427],[-0.2698697916666667,0.38327008928571427],[-0.2790029761904762,0.38327008928571427],[-0.2790029761904762,0.38327008928571427],[-0.2855989583333333,0.38327008928571427],[-0.2888355654761905,0.38357142857142856],[-0.2897321428571429,0.38357142857142856],[-0.2933184523809524,0.38387276785714286],[-0.2933184523809524,0.38387276785714286],[-0.2983482142857143,0.38387276785714286],[-0.3015848214285714,0.38387276785714286],[-0.3015848214285714,0.38387276785714286],[-0.3048214285714286,0.38387276785714286],[-0.3048214285714286,0.38387276785714286],[-0.3084077380952381,0.38387276785714286],[-0.3108965773809524,0.38283854166666664],[-0.31188988095238096,0.3821019345238095],[-0.31353050595238097,0.3812872023809524],[-0.31407738095238097,0.3807440476190476],[-0.31407738095238097,0.3807440476190476],[-0.3184077380952381,0.3796056547619048],[-0.3219940476190476,0.3796056547619048],[-0.326796875,0.37928199404761903],[-0.326796875,0.37928199404761903],[-0.326796875,0.37928199404761903],[-0.3329873511904762,0.37928199404761903],[-0.3362202380952381,0.37928199404761903],[-0.3391071428571429,0.37928199404761903],[-0.33965401785714283,0.37928199404761903],[-0.3410974702380952,0.37928199404761903],[-0.3410974702380952,0.37928199404761903],[-0.3410974702380952,0.37928199404761903],[-0.3410974702380952,0.37928199404761903]]]",1,[162],,,,,,,,,,,,,,racecarcourse2.jpg,space,6.19062,0,11,11,80,1,pavilion2.jpg,porch.jpg,poolhall5.jpg,parkinggarage4.jpg,,
Image_List_2,,,,,,,,,,,,,,,,44513,2020-11-12_14h20.03.030,analogCatScenes,2020.1.3,MacIntel,60,"[1680,1050]","[[[0.005148809523809523,-0.2044047619047619],[0.005148809523809523,-0.2044047619047619],[0.005148809523809523,-0.2044047619047619],[0.005148809523809523,-0.2044047619047619],[0.005811011904761905,-0.2041815476190476],[0.016380208333333333,-0.19853794642857142],[0.016380208333333333,-0.19853794642857142],[0.05386160714285714,-0.18485119047619047],[0.05386160714285714,-0.18485119047619047],[0.09971354166666667,-0.1724925595238095],[0.14592633928571427,-0.16563988095238094],[0.15419642857142857,-0.16445684523809523],[0.21430059523809525,-0.15994791666666666],[0.21430059523809525,-0.15994791666666666],[0.2644940476190476,-0.14940848214285715],[0.2743266369047619,-0.14471354166666667],[0.2765922619047619,-0.14357886904761905],[0.2863839285714286,-0.1393043154761905],[0.2863839285714286,-0.1393043154761905],[0.2962686011904762,-0.1375111607142857],[0.2962686011904762,-0.1375111607142857],[0.29959821428571426,-0.1375111607142857],[0.29984375,-0.1375111607142857],[0.29984375,-0.1375111607142857],[0.29984375,-0.1375111607142857],[0.29984375,-0.13728794642857142],[0.29984375,-0.13728794642857142],[0.29984375,-0.13728794642857142],[0.29984375,-0.13728794642857142],[0.29984375,-0.13728794642857142],[0.29984375,-0.13728794642857142],[0.29984375,-0.13728794642857142]]]",1,[32],,,,,,,,,,,,,,newsstand7.jpg,space,2.127465,0,12,12,65,1,igloo5.jpg,laundromat2.jpeg,labClass7.jpg,homeoffice8.jpg,,
Image_List_2,,,,,,,,,,,,,,,,44513,2020-11-12_14h20.03.030,analogCatScenes,2020.1.3,MacIntel,60,"[1680,1050]","[[[0.004959077380952381,-0.19512276785714286],[0.007775297619047619,-0.16722470238095238],[0.023843005952380952,-0.11764508928571428],[0.031569940476190474,-0.097890625],[0.054047619047619046,-0.04703869047619048],[0.054047619047619046,-0.04703869047619048],[0.07375,-0.007410714285714286],[0.07375,-0.007410714285714286],[0.0843266369047619,0.006357886904761904],[0.09497395833333333,0.023798363095238095],[0.09497395833333333,0.023798363095238095],[0.09497395833333333,0.023798363095238095],[0.09833705357142856,0.036990327380952384],[0.09833705357142856,0.038035714285714284],[0.09833705357142856,0.038035714285714284],[0.09833705357142856,0.038035714285714284],[0.09833705357142856,0.038035714285714284],[0.09833705357142856,0.038035714285714284],[0.09833705357142856,0.038035714285714284],[0.09833705357142856,0.038035714285714284],[0.09833705357142856,0.038035714285714284],[0.09833705357142856,0.038035714285714284],[0.09833705357142856,0.038035714285714284],[0.09833705357142856,0.038035714285714284]]]",1,[24],,,,,,,,,,,,,,hallway5.jpg,space,2.0858,0,13,13,51,1,gasstation6.jpg,frontDoor5.jpg,hayfield4.jpg,firestation5.jpg,,
Image_List_2,,,,,,,,,,,,,,,,44513,2020-11-12_14h20.03.030,analogCatScenes,2020.1.3,MacIntel,60,"[1680,1050]","[[[-0.0074441964285714285,-0.1916889880952381],[-0.0074441964285714285,-0.1916889880952381],[-0.0074441964285714285,-0.1916889880952381],[-0.0074441964285714285,-0.1916889880952381],[-0.0074441964285714285,-0.1916889880952381],[-0.0074441964285714285,-0.1916889880952381],[-0.0074441964285714285,-0.1916889880952381],[-0.0074441964285714285,-0.1916889880952381],[-0.0074441964285714285,-0.1916889880952381],[-0.0074441964285714285,-0.1916889880952381],[-0.0074441964285714285,-0.1916889880952381],[-0.02603050595238095,-0.18662574404761906],[-0.06565848214285715,-0.17378720238095238],[-0.07050223214285714,-0.17281622023809523],[-0.105546875,-0.16433407738095238],[-0.1276078869047619,-0.16148065476190476],[-0.13405877976190475,-0.16094122023809523],[-0.13405877976190475,-0.16094122023809523],[-0.16949776785714285,-0.15886160714285713],[-0.18887276785714285,-0.15546130952380952],[-0.20196056547619048,-0.1503125],[-0.2060825892857143,-0.14847842261904762],[-0.2060825892857143,-0.14847842261904762],[-0.23278273809523808,-0.13442708333333334],[-0.25169270833333335,-0.12400669642857143],[-0.25605282738095236,-0.12109747023809524],[-0.2715997023809524,-0.11070684523809524],[-0.2813058035714286,-0.10409970238095238],[-0.2830654761904762,-0.10304315476190476],[-0.2830654761904762,-0.10304315476190476],[-0.29601934523809526,-0.0928422619047619],[-0.30458705357142857,-0.08659970238095238],[-0.3113392857142857,-0.08184151785714286],[-0.31322916666666667,-0.08032738095238096],[-0.31322916666666667,-0.08032738095238096],[-0.32366815476190475,-0.07069940476190475],[-0.32763020833333334,-0.06673735119047619],[-0.32817708333333334,-0.06619047619047619],[-0.32890625,-0.06546130952380952],[-0.32890625,-0.06546130952380952],[-0.32890625,-0.06546130952380952],[-0.32890625,-0.06546130952380952],[-0.32890625,-0.06546130952380952],[-0.32890625,-0.06546130952380952],[-0.32890625,-0.06546130952380952]]]",1,[45],,,,,,,,,,,,,,grocerystore6.jpg,space,2.54405,0,14,14,50,1,frontLawn4.jpg,forestpath6.jpg,hallway2.jpg,fireplace4.jpg,,
Image_List_2,,,,,,,,,,,,,,,,44513,2020-11-12_14h20.03.030,analogCatScenes,2020.1.3,MacIntel,60,"[1680,1050]","[[[0.0035081845238095237,-0.19334821428571428],[0.0035081845238095237,-0.19334821428571428],[0.0035081845238095237,-0.19334821428571428],[0.0035081845238095237,-0.19334821428571428],[0.0035081845238095237,-0.19334821428571428],[0.0035081845238095237,-0.19334821428571428],[0.0035081845238095237,-0.19334821428571428],[0.0035081845238095237,-0.19334821428571428],[0.0035081845238095237,-0.19334821428571428],[0.0035081845238095237,-0.19334821428571428],[0.008846726190476191,-0.18733258928571428],[0.015345982142857142,-0.18142113095238097],[0.04495163690476191,-0.16084821428571427],[0.04495163690476191,-0.16084821428571427],[0.08666294642857143,-0.1299627976190476],[0.09345238095238095,-0.12316964285714285],[0.1137016369047619,-0.09774553571428571],[0.12753720238095237,-0.07588541666666666],[0.12753720238095237,-0.07588541666666666],[0.12753720238095237,-0.07588541666666666],[0.14527901785714287,-0.055829613095238095],[0.1511309523809524,-0.050319940476190476],[0.15315104166666665,-0.04829613095238095],[0.1619047619047619,-0.03960565476190476],[0.1619047619047619,-0.03960565476190476],[0.18105654761904763,-0.021964285714285714],[0.18964285714285714,-0.013470982142857142],[0.19222842261904763,-0.010881696428571428],[0.20066592261904762,-0.0028348214285714287],[0.2090215773809524,0.004750744047619048],[0.2090215773809524,0.004750744047619048],[0.21640997023809525,0.012890625],[0.21781994047619047,0.01488095238095238],[0.21836309523809525,0.01515625],[0.2202641369047619,0.01707217261904762],[0.2215438988095238,0.018095238095238095],[0.2215438988095238,0.018095238095238095],[0.22178943452380953,0.01857514880952381],[0.22178943452380953,0.01857514880952381],[0.22178943452380953,0.01857514880952381],[0.22178943452380953,0.01857514880952381],[0.22178943452380953,0.01857514880952381],[0.22178943452380953,0.01857514880952381],[0.22178943452380953,0.01857514880952381],[0.22178943452380953,0.01857514880952381],[0.22178943452380953,0.01857514880952381],[0.22178943452380953,0.01857514880952381],[0.22178943452380953,0.01857514880952381],[0.22178943452380953,0.01857514880952381]]]",1,[49],,,,,,,,,,,,,,hardwarestore1.jpg,space,2.454695,0,15,15,52,1,gasstation7.jpg,frontFoyer6.jpg,highway.jpg,forestpath2.jpg,,
Image_List_2,,,,,,,,,,,,,,,,44513,2020-11-12_14h20.03.030,analogCatScenes,2020.1.3,MacIntel,60,"[1680,1050]","[[[-0.0006398809523809524,-0.19824404761904763],[-0.0006398809523809524,-0.19824404761904763],[-0.0006398809523809524,-0.19824404761904763],[-0.0006398809523809524,-0.19824404761904763],[-0.0006398809523809524,-0.19824404761904763],[-0.0006398809523809524,-0.19824404761904763],[-0.0006398809523809524,-0.19824404761904763],[-0.0006398809523809524,-0.19824404761904763],[-0.0006398809523809524,-0.19824404761904763],[-0.0006398809523809524,-0.18887276785714285],[-0.0006398809523809524,-0.16866443452380953],[-0.0006398809523809524,-0.16866443452380953],[-0.0006398809523809524,-0.13946056547619048],[-0.0006398809523809524,-0.11678943452380952],[-0.0006398809523809524,-0.11678943452380952],[0.0013690476190476191,-0.10237723214285714],[0.003549107142857143,-0.09472470238095237],[0.006726190476190476,-0.08673363095238096],[0.007938988095238094,-0.08389880952380953],[0.014791666666666667,-0.07059151785714286],[0.014791666666666667,-0.07059151785714286],[0.020558035714285713,-0.059404761904761905],[0.021313244047619046,-0.05713541666666667],[0.02351934523809524,-0.04902157738095238],[0.02517857142857143,-0.03644717261904762],[0.026436011904761903,-0.026707589285714286],[0.026436011904761903,-0.024947916666666667],[0.027161458333333333,-0.014055059523809523],[0.027161458333333333,-0.010959821428571428],[0.027161458333333333,-0.01041294642857143],[0.027161458333333333,-0.008470982142857143],[0.027161458333333333,-0.008470982142857143],[0.027161458333333333,-0.007503720238095238],[0.027161458333333333,-0.007503720238095238],[0.027161458333333333,-0.006774553571428571],[0.027730654761904762,-0.0038876488095238096],[0.027730654761904762,-0.0038876488095238096],[0.028701636904761903,0.0013095238095238095],[0.029620535714285714,0.006603422619047619],[0.029620535714285714,0.006603422619047619],[0.029892113095238097,0.010386904761904762],[0.029892113095238097,0.010933779761904763],[0.029892113095238097,0.013121279761904761],[0.029892113095238097,0.014713541666666666],[0.029892113095238097,0.014713541666666666],[0.029892113095238097,0.016008184523809525],[0.029892113095238097,0.016257440476190477],[0.029892113095238097,0.016257440476190477],[0.029892113095238097,0.016257440476190477],[0.029892113095238097,0.016257440476190477],[0.029892113095238097,0.016257440476190477],[0.029892113095238097,0.016257440476190477],[0.029892113095238097,0.016257440476190477],[0.029892113095238097,0.016257440476190477]]]",1,[54],,,,,,,,,,,,,,elevatorOutside4.jpg,space,2.744145,0,16,16,38,1,dining_car2.jpg,dock1.jpg,driveway8.jpg,classroom1.jpg,,
Image_List_2,,,,,,,,,,,,,,,,44513,2020-11-12_14h20.03.030,analogCatScenes,2020.1.3,MacIntel,60,"[1680,1050]","[[[0.009148065476190476,-0.2006622023809524],[0.009148065476190476,-0.2006622023809524],[0.009148065476190476,-0.2006622023809524],[0.009148065476190476,-0.2006622023809524],[0.009148065476190476,-0.2006622023809524],[0.009148065476190476,-0.2006622023809524],[0.009148065476190476,-0.2006622023809524],[0.009148065476190476,-0.2004389880952381],[0.009148065476190476,-0.1955952380952381],[0.008660714285714285,-0.17616443452380953],[0.008660714285714285,-0.17616443452380953],[-0.0000037202380952380952,-0.13868675595238095],[-0.0000037202380952380952,-0.13868675595238095],[-0.010141369047619048,-0.110390625],[-0.02706845238095238,-0.08378720238095239],[-0.04900297619047619,-0.06408482142857143],[-0.05550595238095238,-0.05876488095238095],[-0.07951636904761905,-0.042053571428571426],[-0.09155133928571428,-0.03534970238095238],[-0.09500372023809524,-0.033623511904761906],[-0.10757068452380952,-0.026257440476190476],[-0.10757068452380952,-0.026257440476190476],[-0.12461681547619048,-0.014252232142857143],[-0.12461681547619048,-0.014252232142857143],[-0.14038318452380952,-0.003240327380952381],[-0.15588913690476192,0.009363839285714286],[-0.1695721726190476,0.02086309523809524],[-0.17087425595238095,0.021514136904761904],[-0.17976190476190476,0.02694940476190476],[-0.17976190476190476,0.02694940476190476],[-0.1893638392857143,0.031822916666666666],[-0.19163318452380954,0.032581845238095236],[-0.19969122023809524,0.035863095238095236],[-0.2049516369047619,0.038470982142857144],[-0.2049516369047619,0.038470982142857144],[-0.20818824404761904,0.04024553571428571],[-0.21010416666666668,0.04188988095238095],[-0.21171875,0.0432328869047619],[-0.212265625,0.04350818452380952],[-0.2138578869047619,0.044557291666666665],[-0.2138578869047619,0.044557291666666665],[-0.21569940476190477,0.04533110119047619],[-0.2159486607142857,0.045580357142857145],[-0.21642857142857144,0.04581473214285714],[-0.21642857142857144,0.04581473214285714],[-0.21642857142857144,0.04581473214285714]]]",1,[46],,,,,,,,,,,,,,ruralroad5.jpg,space,3.482715,0,17,17,81,1,promenadeDeck.jpg,promenadeDeck2.jpg,rainforest5.jpg,pasture8.jpg,,
Image_List_2,,,,,,,,,,,,,,,,44513,2020-11-12_14h20.03.030,analogCatScenes,2020.1.3,MacIntel,60,"[1680,1050]","[[[0.0069791666666666665,-0.20072544642857143],[0.0069791666666666665,-0.20072544642857143],[0.0069791666666666665,-0.20072544642857143],[0.012008928571428571,-0.199140625],[0.013764880952380952,-0.19843377976190477],[0.022827380952380953,-0.19653645833333333],[0.030807291666666667,-0.19572544642857143],[0.03307291666666667,-0.19534598214285714],[0.04501488095238095,-0.1924813988095238],[0.056391369047619044,-0.18805059523809523],[0.0635639880952381,-0.18494047619047618],[0.06582961309523809,-0.18380580357142856],[0.07529761904761904,-0.17869791666666668],[0.08341145833333333,-0.17014136904761903],[0.08341145833333333,-0.17014136904761903],[0.09342633928571428,-0.15351934523809524],[0.09342633928571428,-0.15351934523809524],[0.10114955357142857,-0.13275297619047619],[0.10399925595238095,-0.11894345238095239],[0.1044828869047619,-0.11409970238095238],[0.10574032738095238,-0.10091889880952382],[0.10574032738095238,-0.095078125],[0.10574032738095238,-0.09331845238095238],[0.10574032738095238,-0.09331845238095238],[0.1015811011904762,-0.0766108630952381],[0.09562872023809524,-0.06014880952380952],[0.08999627976190476,-0.04671130952380952],[0.08893973214285714,-0.04530133928571429],[0.08893973214285714,-0.04530133928571429],[0.08244419642857143,-0.03372395833333333],[0.08073660714285714,-0.03066220238095238],[0.07805431547619048,-0.026979166666666665],[0.07745535714285715,-0.026082589285714285],[0.0763578869047619,-0.024140625],[0.07610863095238095,-0.024140625],[0.07610863095238095,-0.024140625],[0.07610863095238095,-0.024140625],[0.07610863095238095,-0.024140625],[0.07610863095238095,-0.024140625],[0.07610863095238095,-0.024140625],[0.07610863095238095,-0.024140625],[0.07610863095238095,-0.024140625],[0.07610863095238095,-0.024140625],[0.07610863095238095,-0.024140625],[0.07610863095238095,-0.024140625],[0.07610863095238095,-0.024140625],[0.07610863095238095,-0.024140625],[0.07610863095238095,-0.024140625],[0.07812872023809524,-0.014970238095238095],[0.08272321428571429,-0.005245535714285714],[0.0869828869047619,0.004453125],[0.08730654761904762,0.0057552083333333335],[0.08730654761904762,0.0057552083333333335],[0.08938988095238096,0.011246279761904761],[0.09100818452380953,0.015197172619047619],[0.09133184523809523,0.016499255952380953],[0.09287202380952381,0.020546875],[0.09366071428571429,0.022139136904761905],[0.09389136904761905,0.022373511904761906],[0.09389136904761905,0.022373511904761906],[0.09436755952380953,0.022838541666666667],[0.09436755952380953,0.023065476190476192],[0.09436755952380953,0.023065476190476192],[0.09436755952380953,0.023292410714285713],[0.09436755952380953,0.023292410714285713],[0.0953608630952381,0.025431547619047618],[0.0953608630952381,0.025431547619047618],[0.09585193452380952,0.02642485119047619],[0.09736607142857143,0.03047247023809524],[0.09866071428571428,0.03437872023809524],[0.09898065476190476,0.035673363095238095],[0.10062872023809524,0.040933779761904765],[0.10062872023809524,0.040933779761904765],[0.10196056547619048,0.043619791666666664],[0.10334449404761904,0.04615699404761905],[0.10413318452380953,0.0475],[0.10437872023809523,0.04774925595238095],[0.10511532738095238,0.04824776785714286],[0.1053608630952381,0.04847842261904762],[0.1053608630952381,0.04847842261904762],[0.1053608630952381,0.04847842261904762],[0.10714285714285714,0.05055431547619048],[0.10787946428571428,0.05105282738095238],[0.10787946428571428,0.05105282738095238],[0.10810267857142856,0.05105282738095238],[0.10810267857142856,0.05105282738095238],[0.10810267857142856,0.05105282738095238],[0.10810267857142856,0.05105282738095238]]]",1,[88],,,,,,,,,,,,,,cafeteria5.jpg,space,3.885625,0,18,18,15,1,bambooforest4.jpg,bleachers8.jpg,cabinIndoors.jpg,bar8.jpg,,
Image_List_2,,,,,,,,,,,,,,,,44513,2020-11-12_14h20.03.030,analogCatScenes,2020.1.3,MacIntel,60,"[1680,1050]","[[[-0.0023251488095238095,-0.19769345238095237],[-0.0023251488095238095,-0.19769345238095237]],[[-0.0023251488095238095,-0.19769345238095237],[-0.0023251488095238095,-0.19769345238095237],[-0.0023251488095238095,-0.19769345238095237],[-0.0023251488095238095,-0.19769345238095237],[-0.0023251488095238095,-0.19769345238095237],[-0.0023251488095238095,-0.19769345238095237],[-0.0023251488095238095,-0.19769345238095237],[-0.0023251488095238095,-0.19769345238095237],[-0.0005877976190476191,-0.19769345238095237],[0.001677827380952381,-0.19769345238095237],[0.017585565476190477,-0.19769345238095237],[0.043430059523809524,-0.19769345238095237],[0.043430059523809524,-0.19769345238095237],[0.06836681547619047,-0.19769345238095237],[0.09592633928571428,-0.19822916666666668],[0.1023735119047619,-0.19876488095238096],[0.12904761904761905,-0.20093377976190477],[0.1515699404761905,-0.20144345238095238],[0.16609002976190476,-0.20144345238095238],[0.17093005952380952,-0.20144345238095238],[0.18726190476190477,-0.20144345238095238],[0.2001376488095238,-0.20144345238095238],[0.2001376488095238,-0.20144345238095238],[0.2116220238095238,-0.20144345238095238],[0.2218154761904762,-0.20144345238095238],[0.2218154761904762,-0.20144345238095238],[0.2275967261904762,-0.20144345238095238],[0.2275967261904762,-0.20144345238095238],[0.22936755952380952,-0.20144345238095238],[0.22936755952380952,-0.20144345238095238],[0.22959821428571428,-0.20144345238095238],[0.22982142857142857,-0.20144345238095238],[0.2305580357142857,-0.20144345238095238],[0.23080357142857144,-0.20144345238095238],[0.23488839285714286,-0.20144345238095238],[0.23488839285714286,-0.20144345238095238],[0.2516778273809524,-0.20144345238095238],[0.2516778273809524,-0.20144345238095238],[0.2660453869047619,-0.19890252976190476],[0.27345238095238095,-0.1973363095238095],[0.2775706845238095,-0.196875],[0.28708333333333336,-0.1956845238095238],[0.299296875,-0.1952232142857143],[0.30569196428571427,-0.1952232142857143],[0.30795758928571426,-0.1952232142857143],[0.316000744047619,-0.1952232142857143],[0.316000744047619,-0.1952232142857143],[0.32607886904761907,-0.1952232142857143],[0.32607886904761907,-0.1952232142857143],[0.33024925595238097,-0.19401785714285713],[0.3309858630952381,-0.1937686011904762],[0.3312313988095238,-0.19351934523809525],[0.33415550595238097,-0.19236607142857143],[0.33594122023809525,-0.19206473214285713],[0.3378162202380952,-0.1915141369047619],[0.3378162202380952,-0.1915141369047619],[0.3387983630952381,-0.19126488095238095],[0.3387983630952381,-0.19126488095238095],[0.3392671130952381,-0.19126488095238095],[0.3392671130952381,-0.19126488095238095],[0.3392671130952381,-0.19126488095238095],[0.3392671130952381,-0.19126488095238095],[0.3392671130952381,-0.19126488095238095],[0.3392671130952381,-0.19126488095238095],[0.3392671130952381,-0.19126488095238095]]]",2,"[2,65]",,,,,,,,,,,,,,firestation3.jpg,space,3.320515,0,19,19,42,1,exerciseequipment3.jpg,drymountains6.jpg,farm4.jpg,desertvegetation2.jpg,,
Image_List_2,,,,,,,,,,,,,,,,44513,2020-11-12_14h20.03.030,analogCatScenes,2020.1.3,MacIntel,60,"[1680,1050]","[[[0.0017373511904761904,-0.197734375],[0.0017373511904761904,-0.197734375],[0.0017373511904761904,-0.197734375],[0.0017373511904761904,-0.197734375],[0.0017373511904761904,-0.197734375],[0.0017373511904761904,-0.197734375],[0.0017373511904761904,-0.197734375],[0.0017373511904761904,-0.19706473214285714],[0.0017373511904761904,-0.19706473214285714],[0.0017373511904761904,-0.17749627976190477],[0.0017373511904761904,-0.17749627976190477],[0.0017373511904761904,-0.14547619047619048],[0.0032924107142857143,-0.12856026785714286],[0.0038020833333333335,-0.1229389880952381],[0.0038020833333333335,-0.1229389880952381],[0.0055766369047619046,-0.09981026785714285],[0.006302083333333333,-0.08871651785714285],[0.007403273809523809,-0.08241815476190475],[0.007403273809523809,-0.08065848214285715],[0.007403273809523809,-0.08065848214285715],[0.008374255952380952,-0.07238839285714285],[0.009799107142857142,-0.06473958333333334],[0.009799107142857142,-0.06247023809523809],[0.010822172619047618,-0.05634672619047619],[0.011119791666666667,-0.05400669642857143],[0.011119791666666667,-0.05311383928571429],[0.011119791666666667,-0.05311383928571429],[0.011391369047619048,-0.04727306547619048],[0.011391369047619048,-0.04368675595238095],[0.011391369047619048,-0.042641369047619046],[0.011391369047619048,-0.0423921130952381],[0.011391369047619048,-0.0423921130952381],[0.011391369047619048,-0.04191592261904762],[0.011391369047619048,-0.04191592261904762],[0.011391369047619048,-0.04191592261904762],[0.011391369047619048,-0.04191592261904762],[0.011391369047619048,-0.04191592261904762],[0.011391369047619048,-0.04191592261904762],[0.011391369047619048,-0.04191592261904762],[0.011391369047619048,-0.04191592261904762]]]",1,[40],,,,,,,,,,,,,,frontFoyer7.jpg,space,2.68205,0,20,20,45,1,fittingroom2.jpg,factory1.jpg,forestpath4.jpg,dock4.jpg,,
Image_List_2,,,,,,,,,,,,,,,,44513,2020-11-12_14h20.03.030,analogCatScenes,2020.1.3,MacIntel,60,"[1680,1050]","[[[-0.00005208333333333334,-0.20350074404761906],[-0.00005208333333333334,-0.20350074404761906],[0.002816220238095238,-0.20350074404761906],[0.005081845238095238,-0.20350074404761906],[0.017708333333333333,-0.20350074404761906],[0.037834821428571426,-0.20201636904761905],[0.037834821428571426,-0.20201636904761905],[0.0595796130952381,-0.2015029761904762],[0.0797172619047619,-0.20004464285714285],[0.0797172619047619,-0.20004464285714285],[0.10036086309523809,-0.19688244047619047],[0.11087425595238096,-0.19204613095238096],[0.11087425595238096,-0.19204613095238096],[0.12210565476190476,-0.183359375],[0.13802083333333334,-0.16839657738095237],[0.15069940476190477,-0.1546279761904762],[0.15427455357142858,-0.15002976190476192],[0.16527901785714286,-0.13425223214285714],[0.16527901785714286,-0.13425223214285714],[0.1846465773809524,-0.11094122023809525],[0.1846465773809524,-0.11094122023809525],[0.19936011904761905,-0.09244419642857143],[0.2073809523809524,-0.0786421130952381],[0.21015625,-0.07343005952380953],[0.21610491071428573,-0.06231770833333333],[0.21610491071428573,-0.06231770833333333],[0.21950892857142856,-0.056142113095238096],[0.2212686011904762,-0.05290550595238095],[0.2223028273809524,-0.0515625],[0.2223028273809524,-0.0515625],[0.2223028273809524,-0.0515625],[0.2225483630952381,-0.05106398809523809],[0.2225483630952381,-0.05106398809523809],[0.2225483630952381,-0.05106398809523809],[0.2225483630952381,-0.05106398809523809],[0.2225483630952381,-0.05106398809523809],[0.2225483630952381,-0.05106398809523809],[0.2225483630952381,-0.05106398809523809],[0.2225483630952381,-0.05106398809523809],[0.2225483630952381,-0.05106398809523809],[0.2225483630952381,-0.05106398809523809],[0.2225483630952381,-0.05106398809523809],[0.2225483630952381,-0.05106398809523809],[0.2225483630952381,-0.05106398809523809],[0.2225483630952381,-0.05106398809523809],[0.2225483630952381,-0.05106398809523809],[0.2225483630952381,-0.05106398809523809],[0.2225483630952381,-0.05062127976190476],[0.2225483630952381,-0.05062127976190476],[0.23102306547619048,-0.03975446428571429],[0.23360863095238096,-0.03716517857142857],[0.23981026785714285,-0.029408482142857142],[0.2429501488095238,-0.025658482142857143],[0.2429501488095238,-0.025658482142857143],[0.24537946428571428,-0.02167782738095238],[0.24934895833333334,-0.015383184523809525],[0.25164434523809526,-0.011774553571428571],[0.25305431547619045,-0.00978422619047619],[0.25305431547619045,-0.00978422619047619],[0.2540625,-0.008738839285714286],[0.2540625,-0.008508184523809524],[0.25428943452380953,-0.008508184523809524],[0.25428943452380953,-0.008508184523809524],[0.25428943452380953,-0.008508184523809524],[0.25428943452380953,-0.008508184523809524],[0.2545089285714286,-0.008508184523809524],[0.2545089285714286,-0.008508184523809524],[0.2545089285714286,-0.008508184523809524],[0.2545089285714286,-0.008508184523809524],[0.2545089285714286,-0.008508184523809524],[0.2545089285714286,-0.008508184523809524],[0.2545089285714286,-0.008508184523809524],[0.2545089285714286,-0.008508184523809524]]]",1,[73],,,,,,,,,,,,,,trainStation5.jpg,space,4.774165,0,21,21,91,1,shoestore2.jpg,skatepark5.jpg,ticket_counter6.jpg,sidewalk3.jpg,,
Image_List_2,,,,,,,,,,,,,,,,44513,2020-11-12_14h20.03.030,analogCatScenes,2020.1.3,MacIntel,60,"[1680,1050]","[[[-0.00203125,-0.19741071428571427],[-0.00203125,-0.19741071428571427],[-0.00203125,-0.19741071428571427],[-0.00203125,-0.19741071428571427],[-0.00203125,-0.19741071428571427],[-0.0015885416666666667,-0.19741071428571427],[-0.0015885416666666667,-0.19741071428571427],[0.007689732142857143,-0.19741071428571427],[0.02997395833333333,-0.19267113095238095],[0.036421130952380955,-0.19159598214285714],[0.06360863095238095,-0.18395461309523808],[0.06360863095238095,-0.18395461309523808],[0.10355654761904762,-0.17523809523809525],[0.1275669642857143,-0.1722470238095238],[0.13489955357142858,-0.1716815476190476],[0.157421875,-0.16914434523809524],[0.17322544642857143,-0.16509300595238094],[0.17322544642857143,-0.16509300595238094],[0.17322544642857143,-0.16509300595238094],[0.19286830357142856,-0.15567708333333333],[0.20373511904761904,-0.15200148809523809],[0.20600074404761906,-0.15124255952380952],[0.21358630952380953,-0.14909970238095238],[0.21358630952380953,-0.14909970238095238],[0.2170014880952381,-0.1474032738095238],[0.21724702380952382,-0.1469047619047619],[0.21786830357142858,-0.14356026785714285],[0.21854166666666666,-0.13596354166666666],[0.21854166666666666,-0.13596354166666666],[0.21854166666666666,-0.12739955357142857],[0.21854166666666666,-0.12739955357142857],[0.21821428571428572,-0.118671875],[0.21756324404761904,-0.11736979166666667],[0.21374255952380952,-0.11186755952380953],[0.20946056547619046,-0.10796502976190477],[0.20756696428571428,-0.10645089285714286],[0.20138020833333334,-0.10061755952380952],[0.20083333333333334,-0.10007068452380953],[0.19829613095238094,-0.09810267857142857],[0.19587425595238095,-0.09597842261904761],[0.19411458333333334,-0.094921875],[0.19411458333333334,-0.094921875],[0.18498511904761905,-0.08738095238095238],[0.18013020833333335,-0.08252604166666666],[0.17816592261904762,-0.07999255952380953],[0.17761904761904762,-0.07944568452380953],[0.17761904761904762,-0.07944568452380953],[0.17482886904761905,-0.07581473214285714],[0.17303199404761904,-0.07306919642857143],[0.17243303571428573,-0.07217261904761904],[0.16828869047619047,-0.06661830357142857],[0.1648735119047619,-0.06119419642857143],[0.1648735119047619,-0.06119419642857143],[0.1648735119047619,-0.06119419642857143],[0.16342261904761904,-0.05775669642857143],[0.16317336309523808,-0.057273065476190474],[0.16294642857142858,-0.057273065476190474],[0.16294642857142858,-0.057273065476190474],[0.16294642857142858,-0.057273065476190474],[0.16294642857142858,-0.057273065476190474],[0.16294642857142858,-0.057273065476190474],[0.16294642857142858,-0.057273065476190474],[0.16294642857142858,-0.057273065476190474],[0.16294642857142858,-0.05749255952380952],[0.16294642857142858,-0.05749255952380952],[0.16294642857142858,-0.05749255952380952]]]",1,[66],,,,,,,,,,,,,,church6.jpg,space,3.06746,0,22,22,22,1,bowlingalley5.jpg,cargo5.jpg,cemetery.jpg,bistrooutdoor6.jpg,,
Image_List_2,,,,,,,,,,,,,,,,44513,2020-11-12_14h20.03.030,analogCatScenes,2020.1.3,MacIntel,60,"[1680,1050]","[[[-0.003128720238095238,-0.19552083333333334],[-0.003128720238095238,-0.19552083333333334],[-0.003128720238095238,-0.19552083333333334],[-0.003128720238095238,-0.19552083333333334],[-0.003128720238095238,-0.19552083333333334],[-0.003128720238095238,-0.19552083333333334],[-0.00017485119047619047,-0.19552083333333334],[0.006603422619047619,-0.19552083333333334],[0.007496279761904762,-0.19521949404761904],[0.017689732142857142,-0.19208333333333333],[0.017689732142857142,-0.19208333333333333],[0.038385416666666665,-0.18617559523809524],[0.04250372023809524,-0.18479910714285713],[0.06261532738095238,-0.1808705357142857],[0.08591517857142857,-0.17621651785714285],[0.08591517857142857,-0.17621651785714285],[0.08591517857142857,-0.17621651785714285],[0.11649553571428571,-0.1732514880952381],[0.12864955357142857,-0.17206101190476192],[0.13091517857142856,-0.1716815476190476],[0.13660342261904762,-0.16969866071428572],[0.13660342261904762,-0.16969866071428572],[0.13872395833333334,-0.16785342261904762],[0.13872395833333334,-0.16710565476190475],[0.13872395833333334,-0.1668563988095238],[0.13847470238095239,-0.16556175595238096],[0.13797619047619047,-0.16451636904761904],[0.13797619047619047,-0.16451636904761904],[0.13797619047619047,-0.16451636904761904],[0.13742559523809525,-0.16156994047619047],[0.13742559523809525,-0.15447916666666667],[0.13742559523809525,-0.15271949404761906],[0.13742559523809525,-0.14467633928571427],[0.13742559523809525,-0.14467633928571427],[0.13742559523809525,-0.1383779761904762],[0.13742559523809525,-0.1372842261904762],[0.13742559523809525,-0.13623883928571429],[0.13742559523809525,-0.1357700892857143],[0.13742559523809525,-0.1357700892857143],[0.13742559523809525,-0.1357700892857143],[0.13742559523809525,-0.1357700892857143],[0.1371763392857143,-0.13531622023809523],[0.1371763392857143,-0.13531622023809523],[0.1371763392857143,-0.13531622023809523],[0.1371763392857143,-0.13531622023809523],[0.1371763392857143,-0.13531622023809523],[0.1371763392857143,-0.13531622023809523],[0.1371763392857143,-0.13531622023809523],[0.1371763392857143,-0.13531622023809523],[0.1371763392857143,-0.13531622023809523],[0.1371763392857143,-0.13531622023809523]]]",1,[51],,,,,,,,,,,,,,minigolf.jpg,space,3.38645,0,23,23,62,1,hotellobby2.jpg,horsebarn8.jpg,lab3.jpg,hayfield7.jpg,,
Image_List_2,,,,,,,,,,,,,,,,44513,2020-11-12_14h20.03.030,analogCatScenes,2020.1.3,MacIntel,60,"[1680,1050]","[[[0.006357886904761904,-0.198828125],[0.006357886904761904,-0.198828125],[0.006357886904761904,-0.198828125],[0.006357886904761904,-0.198828125],[0.006357886904761904,-0.198828125],[0.006357886904761904,-0.198828125],[0.0008705357142857143,-0.198828125],[-0.01904389880952381,-0.198828125],[-0.02388764880952381,-0.198828125],[-0.06238467261904762,-0.198828125],[-0.10692336309523809,-0.198828125],[-0.10692336309523809,-0.198828125],[-0.15240327380952381,-0.19815476190476192],[-0.18802083333333333,-0.19186011904761904],[-0.21131324404761906,-0.18369047619047618],[-0.21808407738095237,-0.17973958333333334],[-0.23993675595238095,-0.16025297619047618],[-0.23993675595238095,-0.16025297619047618],[-0.2589174107142857,-0.12133928571428572],[-0.2609635416666667,-0.11571800595238095],[-0.26640997023809526,-0.10030877976190476],[-0.2708147321428571,-0.0894828869047619],[-0.2708147321428571,-0.0894828869047619],[-0.274125744047619,-0.08321800595238095],[-0.274672619047619,-0.08294270833333334],[-0.2754947916666667,-0.08239583333333333],[-0.2754947916666667,-0.08239583333333333],[-0.2754947916666667,-0.08239583333333333],[-0.2754947916666667,-0.08239583333333333],[-0.2752752976190476,-0.08239583333333333],[-0.2752752976190476,-0.08239583333333333],[-0.2752752976190476,-0.08239583333333333],[-0.2752752976190476,-0.08239583333333333],[-0.2752752976190476,-0.08239583333333333],[-0.2752752976190476,-0.08239583333333333],[-0.2752752976190476,-0.08239583333333333],[-0.2752752976190476,-0.07827008928571429],[-0.27907738095238094,-0.06446056547619047],[-0.2800483630952381,-0.05961681547619048],[-0.28509300595238096,-0.03916666666666667],[-0.28509300595238096,-0.03916666666666667],[-0.29005580357142857,-0.009408482142857142],[-0.29051339285714284,-0.0053050595238095235],[-0.29051339285714284,0.006238839285714286],[-0.2908891369047619,0.013813244047619048],[-0.2908891369047619,0.013813244047619048],[-0.2908891369047619,0.013813244047619048],[-0.29187127976190474,0.022079613095238097],[-0.2925,0.026473214285714287],[-0.2927455357142857,0.0278125],[-0.2927455357142857,0.028061755952380953],[-0.2927455357142857,0.028061755952380953],[-0.2927455357142857,0.028311011904761905],[-0.2927455357142857,0.02853422619047619],[-0.2927455357142857,0.02853422619047619],[-0.2927455357142857,0.02853422619047619],[-0.29296875,0.02853422619047619],[-0.29296875,0.02853422619047619],[-0.29296875,0.02853422619047619]]]",1,[59],,,,,,,,,,,,,,banquetHall4.jpg,space,3.067985,0,24,24,7,1,attic2.jpg,backstage1.jpg,baggageClaim3.jpg,applestore2.jpg,,
Image_List_2,,,,,,,,,,,,,,,,44513,2020-11-12_14h20.03.030,analogCatScenes,2020.1.3,MacIntel,60,"[1680,1050]","[[[0.001759672619047619,-0.2010453869047619],[0.001759672619047619,-0.2010453869047619],[0.0026488095238095238,-0.2010453869047619],[0.0026488095238095238,-0.2010453869047619],[0.021294642857142856,-0.19920758928571428],[0.039988839285714284,-0.19295386904761905],[0.039988839285714284,-0.19295386904761905],[0.06917782738095238,-0.18043154761904762],[0.06917782738095238,-0.18043154761904762],[0.11285342261904761,-0.15494791666666666],[0.11905877976190476,-0.15099702380952382],[0.14209449404761904,-0.12740327380952382],[0.14660714285714285,-0.12119419642857143],[0.14660714285714285,-0.12119419642857143],[0.17274553571428572,-0.07252604166666667],[0.18949404761904762,-0.04265625],[0.18949404761904762,-0.04265625],[0.20331473214285714,-0.020267857142857143],[0.21922247023809524,-0.0010714285714285715],[0.21922247023809524,-0.0010714285714285715],[0.23594866071428572,0.016748511904761905],[0.24784598214285714,0.029575892857142856],[0.24784598214285714,0.029575892857142856],[0.2579278273809524,0.04021205357142857],[0.2579278273809524,0.04021205357142857],[0.2579278273809524,0.04021205357142857],[0.2579278273809524,0.04021205357142857],[0.2579278273809524,0.04021205357142857],[0.2579278273809524,0.04021205357142857],[0.2579278273809524,0.04021205357142857],[0.2579278273809524,0.04021205357142857],[0.2579278273809524,0.04021205357142857],[0.2579278273809524,0.04021205357142857],[0.2579278273809524,0.04021205357142857],[0.2579278273809524,0.04021205357142857],[0.2579278273809524,0.04021205357142857],[0.2583668154761905,0.0406547619047619],[0.2696763392857143,0.05068452380952381],[0.2696763392857143,0.05068452380952381],[0.2866815476190476,0.06533854166666667],[0.2880877976190476,0.06639508928571429],[0.29883184523809525,0.075859375],[0.308046875,0.08503720238095239],[0.308046875,0.08503720238095239],[0.308046875,0.08503720238095239],[0.31455357142857143,0.09164806547619048],[0.31531622023809525,0.09244419642857143],[0.31531622023809525,0.09244419642857143],[0.31531622023809525,0.09244419642857143],[0.31531622023809525,0.09244419642857143],[0.31531622023809525,0.09244419642857143],[0.31531622023809525,0.09244419642857143],[0.31531622023809525,0.09244419642857143],[0.31531622023809525,0.09244419642857143],[0.31531622023809525,0.09244419642857143],[0.31531622023809525,0.09244419642857143],[0.31531622023809525,0.09244419642857143]]]",1,[57],,,,,,,,,,,,,,poolhall2.jpeg,space,2.67467,0,25,25,79,1,pasture.jpg,playground9.jpg,pier2.jpg,observatory2.jpg,,
Image_List_2,,,,,,,,,,,,,,,,44513,2020-11-12_14h20.03.030,analogCatScenes,2020.1.3,MacIntel,60,"[1680,1050]","[[[-0.0008333333333333334,-0.19852306547619047],[-0.0008333333333333334,-0.19852306547619047],[-0.0008333333333333334,-0.19852306547619047],[-0.0008333333333333334,-0.19852306547619047],[-0.0008333333333333334,-0.19852306547619047],[-0.0008333333333333334,-0.19852306547619047],[-0.0008333333333333334,-0.19852306547619047],[-0.0008333333333333334,-0.19852306547619047],[-0.0012760416666666666,-0.19852306547619047],[-0.003545386904761905,-0.1977641369047619],[-0.023050595238095238,-0.18643973214285714],[-0.049155505952380954,-0.16929315476190476],[-0.053753720238095236,-0.1657142857142857],[-0.08845238095238095,-0.14549107142857143],[-0.11559151785714286,-0.13138392857142858],[-0.11559151785714286,-0.13138392857142858],[-0.1332998511904762,-0.120078125],[-0.1332998511904762,-0.120078125],[-0.15316964285714285,-0.10107142857142858],[-0.16644345238095237,-0.08484375],[-0.16644345238095237,-0.08484375],[-0.18560639880952381,-0.06670014880952381],[-0.19656622023809525,-0.05719122023809524],[-0.19977306547619048,-0.053984375],[-0.2157217261904762,-0.036610863095238096],[-0.21863095238095237,-0.032734375],[-0.22715029761904762,-0.02015625],[-0.22715029761904762,-0.02015625],[-0.23174479166666667,-0.011439732142857142],[-0.23174479166666667,-0.011439732142857142],[-0.23401785714285714,-0.007946428571428571],[-0.23401785714285714,-0.007946428571428571],[-0.2344828869047619,-0.0077157738095238095],[-0.2344828869047619,-0.0077157738095238095],[-0.2344828869047619,-0.0077157738095238095],[-0.2344828869047619,-0.0077157738095238095],[-0.2344828869047619,-0.0077157738095238095],[-0.2344828869047619,-0.0077157738095238095],[-0.2344828869047619,-0.0077157738095238095],[-0.2344828869047619,-0.0077157738095238095],[-0.2344828869047619,-0.0077157738095238095],[-0.2344828869047619,-0.0077157738095238095],[-0.2344828869047619,-0.0077157738095238095],[-0.2344828869047619,-0.0077157738095238095],[-0.2344828869047619,-0.0077157738095238095],[-0.2344828869047619,-0.0077157738095238095],[-0.2344828869047619,-0.007492559523809524],[-0.2352157738095238,0.0005580357142857143],[-0.2374888392857143,0.0075297619047619046],[-0.23824776785714286,0.009799107142857142],[-0.24044642857142856,0.01785342261904762],[-0.24112723214285714,0.02396949404761905],[-0.24112723214285714,0.02396949404761905],[-0.24112723214285714,0.02396949404761905],[-0.24112723214285714,0.027157738095238096],[-0.24112723214285714,0.027157738095238096],[-0.24112723214285714,0.027157738095238096],[-0.24112723214285714,0.027157738095238096],[-0.24112723214285714,0.027157738095238096],[-0.24066220238095237,0.026938244047619048],[-0.24066220238095237,0.026938244047619048],[-0.24066220238095237,0.026938244047619048],[-0.24066220238095237,0.026938244047619048],[-0.24066220238095237,0.026938244047619048],[-0.24066220238095237,0.026938244047619048],[-0.24066220238095237,0.026938244047619048],[-0.24066220238095237,0.026938244047619048],[-0.24066220238095237,0.026938244047619048],[-0.24066220238095237,0.026938244047619048],[-0.24066220238095237,0.026938244047619048],[-0.24066220238095237,0.026938244047619048],[-0.24066220238095237,0.026938244047619048],[-0.24066220238095237,0.026938244047619048],[-0.24066220238095237,0.026938244047619048],[-0.24066220238095237,0.026938244047619048],[-0.24066220238095237,0.026938244047619048],[-0.24066220238095237,0.026938244047619048],[-0.24066220238095237,0.026938244047619048],[-0.24066220238095237,0.026938244047619048],[-0.24066220238095237,0.026938244047619048],[-0.24066220238095237,0.026938244047619048],[-0.24066220238095237,0.026938244047619048],[-0.24066220238095237,0.026938244047619048],[-0.24066220238095237,0.026938244047619048],[-0.24066220238095237,0.026938244047619048],[-0.24066220238095237,0.026938244047619048],[-0.24066220238095237,0.026938244047619048],[-0.24104166666666665,0.029650297619047618],[-0.24104166666666665,0.029650297619047618],[-0.24496279761904763,0.03996651785714286],[-0.2484002976190476,0.048642113095238096],[-0.24899925595238095,0.04953869047619048],[-0.24957589285714285,0.05148065476190476],[-0.2498251488095238,0.05172991071428571],[-0.2498251488095238,0.05172991071428571],[-0.2498251488095238,0.05172991071428571],[-0.2498251488095238,0.05172991071428571],[-0.2498251488095238,0.05172991071428571],[-0.2498251488095238,0.05172991071428571],[-0.2498251488095238,0.05172991071428571]]]",1,[100],,,,,,,,,,,,,,museum6.jpg,space,4.363185,0,26,26,63,1,hut2.jpg,hotelRoom2.jpg,lab4.jpg,highway2.jpg,,
Image_List_2,,,,,,,,,,,,,,,,44513,2020-11-12_14h20.03.030,analogCatScenes,2020.1.3,MacIntel,60,"[1680,1050]","[[[0.0013950892857142857,-0.19419270833333332],[0.0013950892857142857,-0.19419270833333332],[0.0013950892857142857,-0.19419270833333332],[0.0013950892857142857,-0.19419270833333332],[0.0013950892857142857,-0.19419270833333332],[0.0013950892857142857,-0.19419270833333332],[0.0013950892857142857,-0.19419270833333332],[0.0013950892857142857,-0.19419270833333332],[0.0013950892857142857,-0.19419270833333332],[0.0013950892857142857,-0.19419270833333332],[0.0013950892857142857,-0.19419270833333332],[-0.00009300595238095238,-0.1926264880952381],[-0.0018526785714285715,-0.19191964285714286],[-0.01853422619047619,-0.179375],[-0.03986235119047619,-0.1651376488095238],[-0.04373883928571429,-0.16222842261904763],[-0.04373883928571429,-0.16222842261904763],[-0.09327752976190476,-0.12458333333333334],[-0.12394717261904761,-0.09646577380952381],[-0.14428199404761904,-0.07860119047619048],[-0.15796875,-0.06732886904761905],[-0.18551339285714286,-0.046253720238095236],[-0.18551339285714286,-0.046253720238095236],[-0.21680803571428572,-0.02341889880952381],[-0.22116815476190477,-0.02050967261904762],[-0.23346354166666666,-0.012898065476190476],[-0.239921875,-0.009084821428571428],[-0.24133184523809523,-0.00802827380952381],[-0.24133184523809523,-0.00802827380952381],[-0.24854910714285713,-0.0034151785714285716],[-0.25421502976190474,-0.0007552083333333333],[-0.25930059523809523,0.0025223214285714285],[-0.26228050595238095,0.004226190476190476],[-0.26228050595238095,0.004226190476190476],[-0.26228050595238095,0.004226190476190476],[-0.2775,0.018333333333333333],[-0.2789099702380952,0.019389880952380954],[-0.28524925595238093,0.023266369047619046],[-0.28937127976190474,0.02603050595238095],[-0.29112723214285713,0.026733630952380953],[-0.29112723214285713,0.026733630952380953],[-0.29915550595238094,0.03145089285714286],[-0.30279761904761904,0.0332514880952381],[-0.30443824404761904,0.03380208333333334],[-0.3046875,0.034051339285714285],[-0.3046875,0.034051339285714285],[-0.3056845238095238,0.03454985119047619],[-0.3056845238095238,0.034780505952380955],[-0.3056845238095238,0.034780505952380955],[-0.3056845238095238,0.034780505952380955],[-0.3056845238095238,0.034780505952380955],[-0.3056845238095238,0.034780505952380955],[-0.3056845238095238,0.034780505952380955],[-0.3056845238095238,0.034780505952380955],[-0.3056845238095238,0.034780505952380955],[-0.3056845238095238,0.034780505952380955]]]",1,[56],,,,,,,,,,,,,,jail1.jpg,space,2.74339,0,27,27,57,1,hayfield5.jpg,hallway4.jpg,hut5.jpg,gazebo.jpg,,
