image_list,key_resp_intructions.keys,key_resp_intructions.rt,key_resp_intructions_3.keys,key_resp_intructions_3.rt,PracticeComplete_2.keys,PracticeComplete_2.rt,PracticeComplete_3.keys,PracticeComplete_3.rt,demo_trials.thisRepN,demo_trials.thisTrialN,demo_trials.thisN,demo_trials.thisIndex,demo_trials.ran,demo_images,path_images,participant,date,expName,psychopyVersion,OS,frameRate,windowSize,practice_complete.keys,practice_complete.rt,boxes_checked,PracticeComplete.keys,PracticeComplete.rt,practice_trials.thisRepN,practice_trials.thisTrialN,practice_trials.thisN,practice_trials.thisIndex,practice_trials.ran,practice_images,feedback_images,key_resp_intructions_2.keys,key_resp_intructions_2.rt,Image_List_1,trial_complete.keys,trial_complete.rt,trial_mouse.x,trial_mouse.y,trial_mouse.leftButton,trial_mouse.midButton,trial_mouse.rightButton,trial_mouse.time,trial_mouse.clicked_name,trials.thisRepN,trials.thisTrialN,trials.thisN,trials.thisIndex,trials.ran,Image_List_2,Image_List_3,Image_List_4,Image_List_5,key_resp.keys,key_resp.rt
Image_List_1,space,5.277975,space,1.35308,space,3.517395,space,1.597745,0,0,0,2,1,ahead_right.jpg,ahead_right_path.jpg,44523,2020-11-18_13h31.13.181,lingCatScenes,2020.1.3,Linux x86_64,60,,,,,,,,,,,,,,,,,,,,,,,,,,,,,,,,,,,,
Image_List_1,,,,,space,4.489015,space,1.34294,0,1,1,6,1,right_left.jpg,right_left_path.jpg,44523,2020-11-18_13h31.13.181,lingCatScenes,2020.1.3,Linux x86_64,60,,,,,,,,,,,,,,,,,,,,,,,,,,,,,,,,,,,,
Image_List_1,,,,,space,1.55363,space,0.78831,0,2,2,4,1,left.jpg,left_path.jpg,44523,2020-11-18_13h31.13.181,lingCatScenes,2020.1.3,Linux x86_64,60,,,,,,,,,,,,,,,,,,,,,,,,,,,,,,,,,,,,
Image_List_1,,,,,space,1.2575,space,1.21227,0,3,3,3,1,ahead_right_left.jpg,ahead_right_left_path.jpg,44523,2020-11-18_13h31.13.181,lingCatScenes,2020.1.3,Linux x86_64,60,,,,,,,,,,,,,,,,,,,,,,,,,,,,,,,,,,,,
Image_List_1,,,,,space,1.7204,space,0.67903,0,4,4,1,1,ahead_left.jpg,ahead_left_path.jpg,44523,2020-11-18_13h31.13.181,lingCatScenes,2020.1.3,Linux x86_64,60,,,,,,,,,,,,,,,,,,,,,,,,,,,,,,,,,,,,
Image_List_1,,,,,space,0.96329,space,0.457955,0,5,5,5,1,right.jpg,right_path.jpg,44523,2020-11-18_13h31.13.181,lingCatScenes,2020.1.3,Linux x86_64,60,,,,,,,,,,,,,,,,,,,,,,,,,,,,,,,,,,,,
Image_List_1,,,,,space,0.873665,space,0.38252,0,6,6,0,1,ahead.jpg,ahead_path.jpg,44523,2020-11-18_13h31.13.181,lingCatScenes,2020.1.3,Linux x86_64,60,,,,,,,,,,,,,,,,,,,,,,,,,,,,,,,,,,,,
Image_List_1,,,,,,,,,,,,,,,,44523,2020-11-18_13h31.13.181,lingCatScenes,2020.1.3,Linux x86_64,60,"[1366,768]",space,16.63714,"[""ahead_box"",""slight_left_box""]",space,1.96896,0,0,0,4,1,left_2.jpg,left_2_path.jpg,,,,,,,,,,,,,,,,,,,,,,,
Image_List_1,,,,,,,,,,,,,,,,44523,2020-11-18_13h31.13.181,lingCatScenes,2020.1.3,Linux x86_64,60,"[1366,768]",space,2.86841,[],space,1.034045,0,1,1,2,1,ahead_right_2.jpg,ahead_right_2_path.jpg,,,,,,,,,,,,,,,,,,,,,,,
Image_List_1,,,,,,,,,,,,,,,,44523,2020-11-18_13h31.13.181,lingCatScenes,2020.1.3,Linux x86_64,60,"[1366,768]",space,5.5646,"[""sharp_right_box""]",space,0.62373,0,2,2,5,1,right_2.jpg,right_2_path.jpg,,,,,,,,,,,,,,,,,,,,,,,
Image_List_1,,,,,,,,,,,,,,,,44523,2020-11-18_13h31.13.181,lingCatScenes,2020.1.3,Linux x86_64,60,"[1366,768]",space,2.622035,"[""ahead_box""]",space,0.485905,0,3,3,0,1,ahead_2.jpg,ahead_2_path.jpg,,,,,,,,,,,,,,,,,,,,,,,
Image_List_1,,,,,,,,,,,,,,,,44523,2020-11-18_13h31.13.181,lingCatScenes,2020.1.3,Linux x86_64,60,"[1366,768]",space,3.32024,"[""slight_left_box"",""slight_right_box""]",space,0.53996,0,4,4,6,1,right_left_2.jpg,right_left_2_path.jpg,,,,,,,,,,,,,,,,,,,,,,,
Image_List_1,,,,,,,,,,,,,,,,44523,2020-11-18_13h31.13.181,lingCatScenes,2020.1.3,Linux x86_64,60,"[1366,768]",space,4.06958,"[""right_box""]",space,1.97456,0,5,5,3,1,ahead_right_left_2.jpg,ahead_right_left_2_path.jpg,,,,,,,,,,,,,,,,,,,,,,,
Image_List_1,,,,,,,,,,,,,,,,44523,2020-11-18_13h31.13.181,lingCatScenes,2020.1.3,Linux x86_64,60,"[1366,768]",space,8.02829,"[""sharp_right_box"",""ahead_box"",""right_box""]",space,1.81414,0,6,6,1,1,ahead_left_2.jpg,ahead_left_2_path.jpg,,,,,,,,,,,,,,,,,,,,,,,
Image_List_1,,,,,,,,,,,,,,,,44523,2020-11-18_13h31.13.181,lingCatScenes,2020.1.3,Linux x86_64,60,"[1366,768]",,,"[""trial_ahead_box"",""trial_slight_left_box"",""trial_left_box""]",,,,,,,,,,space,1.669695,homegarden7.jpg,space,5.471715,"[0.004485209782918294,-0.174115260442098,-0.18389383951822916,-0.3906160593032837]","[-0.2979803880055745,-0.28635938962300617,-0.2897440592447917,-0.3082173665364583]","[1,1,1,1]","[0,0,0,0]","[0,0,0,0]","[2.0772149999975227,2.700494999997318,3.2809199999974226,5.355639999997948]","[""trial_ahead_box"",""trial_slight_left_box"",""trial_left_box""]",0,0,0,59,1,library_aisle8.jpg,highway4.jpg,kindergarten_classroom5.jpg,grocerystore3.jpg,,
Image_List_1,,,,,,,,,,,,,,,,44523,2020-11-18_13h31.13.181,lingCatScenes,2020.1.3,Linux x86_64,60,"[1366,768]",,,"[""trial_slight_left_box""]",,,,,,,,,,,,staircase.jpg,space,1.70869,[-0.18447184562683105],[-0.2966454823811849],[1],[0],[0],[1.4012900000016089],"[""trial_slight_left_box""]",0,1,1,92,1,volleyballcourt.jpg,skatepark7.jpg,tvstudio2.jpg,soccerfield2.jpg,,
Image_List_1,,,,,,,,,,,,,,,,44523,2020-11-18_13h31.13.181,lingCatScenes,2020.1.3,Linux x86_64,60,"[1366,768]",,,"[""trial_ahead_box""]",,,,,,,,,,,,wineVineyard9.jpg,space,1.23887,[0.008188803990681967],[-0.30105145772298175],[1],[0],[0],[1.101269999999431],"[""trial_ahead_box""]",0,2,2,99,1,yogastudio4.jpg,windmill2.jpg,wrestlingring7.jpg,yogastudio1.jpg,,
Image_List_1,,,,,,,,,,,,,,,,44523,2020-11-18_13h31.13.181,lingCatScenes,2020.1.3,Linux x86_64,60,"[1366,768]",,,"[""trial_ahead_box""]",,,,,,,,,,,,library_aisle3.jpg,space,1.71615,[0.016597191492716473],[-0.3128361701965332],[1],[0],[0],[1.485820000001695],"[""trial_ahead_box""]",0,3,3,67,1,park7.jpg,laundromat4.jpg,liquorstore2.jpg,hospitalroom2.jpg,,
Image_List_1,,,,,,,,,,,,,,,,44523,2020-11-18_13h31.13.181,lingCatScenes,2020.1.3,Linux x86_64,60,"[1366,768]",,,"[""trial_left_box"",""trial_sharp_left_box""]",,,,,,,,,,,,hotellobby2.jpg,space,3.89467,"[-0.37647438049316406,-0.5640735228856405,-0.5771117409070333]","[-0.29024235407511395,-0.29753994941711426,-0.30426255861918133]","[1,1,1]","[0,0,0]","[0,0,0]","[2.2452299999965817,3.1656199999997625,3.701214999997319]","[""trial_left_box"",""trial_sharp_left_box""]",0,4,4,62,1,minigolf.jpg,horsebarn8.jpg,lab3.jpg,hayfield7.jpg,,
Image_List_1,,,,,,,,,,,,,,,,44523,2020-11-18_13h31.13.181,lingCatScenes,2020.1.3,Linux x86_64,60,"[1366,768]",,,"[""trial_left_box"",""trial_sharp_left_box""]",,,,,,,,,,,,liquorstore7.jpg,space,2.55219,"[-0.39768842856089276,-0.5853679180145264]","[-0.2955168883005778,-0.3027344544728597]","[1,1]","[0,0]","[0,0]","[1.672950000000128,2.357224999999744]","[""trial_left_box"",""trial_sharp_left_box""]",0,5,5,68,1,parkinglot.jpg,lightingstore4.jpg,lockerroom2.jpg,hospitalroom3.jpg,,
Image_List_1,,,,,,,,,,,,,,,,44523,2020-11-18_13h31.13.181,lingCatScenes,2020.1.3,Linux x86_64,60,"[1366,768]",,,"[""trial_ahead_box""]",,,,,,,,,,,,airplanecabin1.jpg,space,1.442285,[-0.002943118413289388],[-0.30846110979715985],[1],[0],[0],[1.194919999998092],"[""trial_ahead_box""]",0,6,6,0,1,alley2.jpg,appleorchard4.jpg,airplanecabin5.jpg,airplanecabin3.jpg,,
Image_List_1,,,,,,,,,,,,,,,,44523,2020-11-18_13h31.13.181,lingCatScenes,2020.1.3,Linux x86_64,60,"[1366,768]",,,"[""trial_ahead_box""]",,,,,,,,,,,,dining_car.jpg,space,4.918155,"[-0.01101247469584147,-0.20871901512145996,-0.18857487042744955]","[-0.27502989768981934,-0.29379479090372723,-0.2972417672475179]","[1,1,1]","[0,0,0]","[0,0,0]","[2.7632400000002235,3.4929850000005445,4.642424999998184]","[""trial_ahead_box"",""trial_slight_left_box"",""trial_slight_left_box""]",0,7,7,37,1,driveway4.jpg,dinosaur4.jpg,driveway7.jpg,citystreet9.jpg,,
Image_List_1,,,,,,,,,,,,,,,,44523,2020-11-18_13h31.13.181,lingCatScenes,2020.1.3,Linux x86_64,60,"[1366,768]",,,"[""trial_sharp_right_box"",""trial_sharp_left_box""]",,,,,,,,,,,,flowershop.jpg,space,7.147605,"[-0.42306435108184814,0.3909817536671956,0.611817995707194,0.42021433512369794,-0.5907534956932068,-0.38953908284505206]","[-0.3018191655476888,-0.30039358139038086,-0.3029975891113281,-0.29102834065755206,-0.3148387273152669,-0.31732813517252606]","[1,1,1,1,1,1]","[0,0,0,0,0,0]","[0,0,0,0,0,0]","[2.190425000000687,3.2893349999976635,4.182645000000775,4.944694999998319,6.155800000000454,6.957989999999199]","[""trial_left_box"",""trial_right_box"",""trial_sharp_right_box"",""trial_right_box"",""trial_sharp_left_box"",""trial_left_box""]",0,8,8,46,1,frontLawn5.jpg,farmersmarket4.jpg,fountain4.jpg,dormroom6.jpg,,
Image_List_1,,,,,,,,,,,,,,,,44523,2020-11-18_13h31.13.181,lingCatScenes,2020.1.3,Linux x86_64,60,"[1366,768]",,,"[""trial_left_box"",""trial_slight_left_box""]",,,,,,,,,,,,bus_shelter.jpg,space,2.408315,"[-0.3902319669723511,-0.19407184918721518]","[-0.3060939311981201,-0.30483007431030273]","[1,1]","[0,0]","[0,0]","[1.5501000000003842,2.291349999999511]","[""trial_left_box"",""trial_slight_left_box""]",0,9,9,23,1,church8.jpg,carmechanic4.jpeg,cemetery3.jpg,bleachers6.jpg,,
Image_List_1,,,,,,,,,,,,,,,,44523,2020-11-18_13h31.13.181,lingCatScenes,2020.1.3,Linux x86_64,60,"[1366,768]",,,"[""trial_ahead_box""]",,,,,,,,,,,,parkinglot3.jpg,space,1.512825,[0.024673064549763996],[-0.2930484612782796],[1],[0],[0],[0.9561900000007881],"[""trial_ahead_box""]",0,10,10,78,1,poolhall1.jpg,pier5.jpg,pavilion3.jpg,observatory1.jpg,,
Image_List_1,,,,,,,,,,,,,,,,44523,2020-11-18_13h31.13.181,lingCatScenes,2020.1.3,Linux x86_64,60,"[1366,768]",,,"[""trial_left_box"",""trial_sharp_left_box""]",,,,,,,,,,,,airportTerminal4.jpg,space,3.126755,"[-0.4213017225265503,-0.6011352936426798]","[-0.28533077239990234,-0.28196009000142414]","[1,1]","[0,0]","[0,0]","[1.484284999998863,2.578904999998713]","[""trial_left_box"",""trial_sharp_left_box""]",0,11,11,1,1,apartmentBuilding1.jpg,applestore1.jpg,airportTerminal3.jpg,airportTerminal2.jpg,,
Image_List_1,,,,,,,,,,,,,,,,44523,2020-11-18_13h31.13.181,lingCatScenes,2020.1.3,Linux x86_64,60,"[1366,768]",,,"[""trial_ahead_box"",""trial_sharp_left_box"",""trial_sharp_right_box""]",,,,,,,,,,,,shoestore2.jpg,space,4.262515,"[-0.017453908920288086,-0.4353557030359904,-0.6105080445607504,0.5892111460367838]","[-0.32332595189412433,-0.3029884497324626,-0.28149914741516113,-0.28044843673706055]","[1,1,1,1]","[0,0,0,0]","[0,0,0,0]","[1.5811299999986659,2.304564999998547,2.950300000000425,4.067344999999477]","[""trial_ahead_box"",""trial_sharp_left_box"",""trial_sharp_right_box""]",0,12,12,91,1,trainStation5.jpg,skatepark5.jpg,ticket_counter6.jpg,sidewalk3.jpg,,
Image_List_1,,,,,,,,,,,,,,,,44523,2020-11-18_13h31.13.181,lingCatScenes,2020.1.3,Linux x86_64,60,"[1366,768]",,,"[""trial_ahead_box"",""trial_slight_left_box"",""trial_left_box"",""trial_sharp_left_box"",""trial_slight_right_box"",""trial_right_box"",""trial_sharp_right_box""]",,,,,,,,,,,,hayfield5.jpg,space,8.43911,"[-0.018371184666951496,0.008025248845418295,-0.20062383015950522,-0.3885095516840617,-0.6241417725880941,0.16966144243876138,0.21316099166870117,0.39851657549540204,0.37580331166585285,0.5756637255350748]","[-0.3341051737467448,-0.31053916613260907,-0.2890970706939697,-0.3108498255411784,-0.2948572635650635,-0.2758059501647949,-0.29763364791870117,-0.2708284854888916,-0.30916651089986164,-0.29448525110880536]","[1,1,1,1,1,1,1,1,1,1]","[0,0,0,0,0,0,0,0,0,0]","[0,0,0,0,0,0,0,0,0,0]","[1.1767150000014226,1.887539999999717,2.6066400000020167,3.2051750000027823,3.773685000000114,4.84603000000061,5.567030000001978,6.534330000002228,7.346695000000182,8.104000000002998]","[""trial_ahead_box"",""trial_slight_left_box"",""trial_left_box"",""trial_sharp_left_box"",""trial_slight_right_box"",""trial_right_box"",""trial_sharp_right_box""]",0,13,13,57,1,jail1.jpg,hallway4.jpg,hut5.jpg,gazebo.jpg,,
Image_List_1,,,,,,,,,,,,,,,,44523,2020-11-18_13h31.13.181,lingCatScenes,2020.1.3,Linux x86_64,60,"[1366,768]",,,"[""trial_left_box"",""trial_sharp_left_box""]",,,,,,,,,,,,pantry5.jpg,space,5.80768,"[-0.41905776659647626,-0.6263487537701925,-0.6100806593894958]","[-0.278717835744222,-0.27006983757019043,-0.29001307487487793]","[1,1,1]","[0,0,0]","[0,0,0]","[4.413254999999481,5.082640000000538,5.629010000000562]","[""trial_left_box"",""trial_sharp_left_box""]",0,14,14,75,1,playground6.jpg,operatingroom4.jpg,park.jpg,lockerroom.jpg,,
Image_List_1,,,,,,,,,,,,,,,,44523,2020-11-18_13h31.13.181,lingCatScenes,2020.1.3,Linux x86_64,60,"[1366,768]",,,"[""trial_left_box"",""trial_slight_left_box"",""trial_sharp_left_box""]",,,,,,,,,,,,dugout4.jpg,space,8.422415,"[-0.3853159745534261,-0.19472686449686685,-0.5774679978688558]","[-0.3127041657765706,-0.31797289848327637,-0.2954440116882324]","[1,1,1]","[0,0,0]","[0,0,0]","[6.880189999999857,7.477150000002439,8.178250000000844]","[""trial_left_box"",""trial_slight_left_box"",""trial_sharp_left_box""]",0,15,15,41,1,farm3.jpg,drymountains3.jpg,fabricstore1.jpg,dentist2.jpg,,
Image_List_1,,,,,,,,,,,,,,,,44523,2020-11-18_13h31.13.181,lingCatScenes,2020.1.3,Linux x86_64,60,"[1366,768]",,,"[""trial_ahead_box"",""trial_left_box"",""trial_sharp_left_box""]",,,,,,,,,,,,warehouseoutside4.jpg,space,4.04146,"[-0.016244252522786457,-0.017675399780273438,-0.3784894545873006,-0.6067379315694174]","[-0.3396573066711426,-0.29998429616292316,-0.2993784745534261,-0.3032697041829427]","[1,1,1,1]","[0,0,0,0]","[0,0,0,0]","[1.1254449999978533,1.6742799999992712,2.5623299999970186,3.88604999999734]","[""trial_ahead_box"",""trial_left_box"",""trial_sharp_left_box""]",0,16,16,97,1,wineVineyard2.jpg,waitingroom4.jpg,winebarrel3.jpg,warehouseoutside3.jpg,,
Image_List_1,,,,,,,,,,,,,,,,44523,2020-11-18_13h31.13.181,lingCatScenes,2020.1.3,Linux x86_64,60,"[1366,768]",,,"[""trial_ahead_box"",""trial_slight_right_box"",""trial_right_box""]",,,,,,,,,,,,cornfield2.jpg,space,3.357885,"[0.01491999626159668,0.18114940325419107,0.37169329325358075,0.38261834780375165]","[-0.29339806238810223,-0.32327985763549805,-0.2799818515777588,-0.28528563181559247]","[1,1,1,1]","[0,0,0,0]","[0,0,0,0]","[1.1053199999987555,1.9243900000001304,2.6554250000008324,3.154385000001639]","[""trial_ahead_box"",""trial_slight_right_box"",""trial_right_box""]",0,17,17,29,1,deck2.jpg,cliff2.jpg,constructionSite4.jpg,bridalboutique3.jpg,,
Image_List_1,,,,,,,,,,,,,,,,44523,2020-11-18_13h31.13.181,lingCatScenes,2020.1.3,Linux x86_64,60,"[1366,768]",,,"[""trial_ahead_box"",""trial_right_box"",""trial_sharp_right_box""]",,,,,,,,,,,,dancestudio6.jpg,space,4.721365,"[0.012676159540812174,0.3973284562428792,0.5253683725992838,0.5806886355082194]","[-0.28788113594055176,-0.3002217610677083,-0.17090638478597006,-0.28128743171691895]","[1,1,1,1]","[0,0,0,0]","[0,0,0,0]","[1.6110050000024785,2.6720800000002782,3.592970000001742,4.593885000002047]","[""trial_ahead_box"",""trial_right_box"",""trial_sharp_right_box""]",0,18,18,32,1,diner12.jpg,constructionSite2.jpg,dentist4.jpg,cabin4.jpg,,
Image_List_1,,,,,,,,,,,,,,,,44523,2020-11-18_13h31.13.181,lingCatScenes,2020.1.3,Linux x86_64,60,"[1366,768]",,,"[""trial_ahead_box"",""trial_slight_left_box""]",,,,,,,,,,,,backyard2.jpg,space,2.051495,"[-0.004998366038004558,-0.18288898468017578]","[-0.303620179494222,-0.3198230266571045]","[1,1]","[0,0]","[0,0]","[1.1551550000006046,1.9297250000020085]","[""trial_ahead_box"",""trial_slight_left_box""]",0,19,19,11,1,basketballcourt4.jpg,bambooforest3.jpg,baywindow5.jpg,backyard1.jpg,,
Image_List_1,,,,,,,,,,,,,,,,44523,2020-11-18_13h31.13.181,lingCatScenes,2020.1.3,Linux x86_64,60,"[1366,768]",,,"[""trial_ahead_box""]",,,,,,,,,,,,museum5.jpg,space,1.29508,[0.02295517921447754],[-0.29316433270772296],[1],[0],[0],[0.9301849999972092],"[""trial_ahead_box""]",0,20,20,72,1,pharmacy4.jpg,musicStore1.jpg,museum4.jpg,kindergarten_classroom.jpg,,
Image_List_1,,,,,,,,,,,,,,,,44523,2020-11-18_13h31.13.181,lingCatScenes,2020.1.3,Linux x86_64,60,"[1366,768]",,,"[""trial_slight_left_box"",""trial_left_box""]",,,,,,,,,,,,artStudio3.jpg,space,2.402835,"[-0.169143279393514,-0.19994799296061197,-0.42226584752400714]","[-0.30809640884399414,-0.3006287415822347,-0.2813403606414795]","[1,1,1]","[0,0,0]","[0,0,0]","[0.8118650000033085,1.2514350000019476,1.9333150000020396]","[""trial_slight_left_box"",""trial_left_box""]",0,21,21,5,1,bambooforest.jpg,auto_showroom4.jpg,attic4.jpg,amusement3.jpg,,
Image_List_1,,,,,,,,,,,,,,,,44523,2020-11-18_13h31.13.181,lingCatScenes,2020.1.3,Linux x86_64,60,"[1366,768]",,,"[""trial_ahead_box"",""trial_right_box"",""trial_sharp_right_box""]",,,,,,,,,,,,promenadeDeck.jpg,space,3.96095,"[0.016503572463989258,0.403531551361084,0.41125114758809406,0.6487878163655599,0.6090132395426432]","[-0.31962402661641437,-0.33127649625142414,-0.3085149923960368,-0.3251245816548665,-0.31340233484903973]","[1,1,1,1,1]","[0,0,0,0,0]","[0,0,0,0,0]","[1.0394450000021607,1.820705000001908,2.40766000000076,3.1896250000027067,3.768650000002026]","[""trial_ahead_box"",""trial_right_box"",""trial_sharp_right_box""]",0,22,22,81,1,ruralroad5.jpg,promenadeDeck2.jpg,rainforest5.jpg,pasture8.jpg,,
Image_List_1,,,,,,,,,,,,,,,,44523,2020-11-18_13h31.13.181,lingCatScenes,2020.1.3,Linux x86_64,60,"[1366,768]",,,"[""trial_right_box"",""trial_sharp_right_box"",""trial_ahead_box""]",,,,,,,,,,,,diner14.jpg,space,20.48435,"[-0.18750691413879395,-0.20833476384480795,0.42157864570617676,0.5975198745727539,-0.001692056655883789]","[-0.301861047744751,-0.3018059730529785,-0.30753930409749347,-0.30422043800354004,-0.3003376324971517]","[1,1,1,1,1]","[0,0,0,0,0]","[0,0,0,0,0]","[16.754164999998466,17.623305000000983,18.48758000000089,19.492535000001226,20.335449999998673]","[""trial_slight_left_box"",""trial_slight_left_box"",""trial_right_box"",""trial_sharp_right_box"",""trial_ahead_box""]",0,23,23,36,1,dormroom9.jpg,dining_car3.jpg,doctor1.jpg,checkoutcounter9.jpg,,
Image_List_1,,,,,,,,,,,,,,,,44523,2020-11-18_13h31.13.181,lingCatScenes,2020.1.3,Linux x86_64,60,"[1366,768]",,,"[""trial_ahead_box""]",,,,,,,,,,,,frontLawn4.jpg,space,1.28974,[-0.001692056655883789],[-0.3003376324971517],[1],[0],[0],[0.777829999999085],"[""trial_ahead_box""]",0,24,24,50,1,grocerystore6.jpg,forestpath6.jpg,hallway2.jpg,fireplace4.jpg,,
Image_List_1,,,,,,,,,,,,,,,,44523,2020-11-18_13h31.13.181,lingCatScenes,2020.1.3,Linux x86_64,60,"[1366,768]",,,"[""trial_ahead_box"",""trial_sharp_left_box"",""trial_left_box""]",,,,,,,,,,,,boardwalk6.jpg,space,3.72242,"[-0.001692056655883789,-0.45928533871968585,-0.5126880407333374,-0.5908101201057434,-0.4102003177007039]","[-0.3003376324971517,-0.3046244780222575,-0.3167378902435303,-0.2762175401051839,-0.2828880151112874]","[1,1,1,1,1]","[0,0,0,0,0]","[0,0,0,0,0]","[0.675810000000638,1.360210000002553,1.811280000001716,2.599785000002157,3.6236300000018673]","[""trial_ahead_box"",""trial_sharp_left_box"",""trial_left_box""]",0,25,25,20,1,cave.jpg,campsite3.jpg,cave4.jpg,basketballcourt7.jpg,,
Image_List_1,,,,,,,,,,,,,,,,44523,2020-11-18_13h31.13.181,lingCatScenes,2020.1.3,Linux x86_64,60,"[1366,768]",,,"[""trial_ahead_box""]",,,,,,,,,,,,auto_showroom3.jpg,space,2.231595,"[-0.014386653900146484,0.005821704864501953]","[-0.2104029655456543,-0.30058542887369794]","[1,1]","[0,0]","[0,0]","[1.2583400000003166,2.000090000001137]","[""trial_ahead_box""]",0,26,26,9,1,bar2.jpg,ballroom2.jpg,basement5.jpg,arcade2.jpg,,
Image_List_1,,,,,,,,,,,,,,,,44523,2020-11-18_13h31.13.181,lingCatScenes,2020.1.3,Linux x86_64,60,"[1366,768]",,,"[""trial_left_box"",""trial_sharp_left_box""]",,,,,,,,,,,,igloo2.jpg,space,3.4822,"[-0.37633228302001953,-0.5729806224505106,-0.5733559926350912,-0.6134942372639974]","[-0.29277539253234863,-0.3028266429901123,-0.3028266429901123,-0.3024686972300212]","[1,1,1,1]","[0,0,0,0]","[0,0,0,0]","[1.412690000001021,2.098794999998063,2.724194999998872,3.2278650000007474]","[""trial_left_box"",""trial_sharp_left_box""]",0,27,27,64,1,newsstand5.jpg,jewelrystore8.jpg,lab5.jpg,homegarage2.jpg,,
Image_List_1,,,,,,,,,,,,,,,,44523,2020-11-18_13h31.13.181,lingCatScenes,2020.1.3,Linux x86_64,60,"[1366,768]",,,"[""trial_ahead_box"",""trial_right_box"",""trial_sharp_right_box""]",,,,,,,,,,,,highway7.jpg,space,4.119555,"[0.0020291010538736978,0.42262768745422363,0.5787580808003744]","[-0.3027581373850505,-0.29814982414245605,-0.28630415598551434]","[1,1,1]","[0,0,0]","[0,0,0]","[1.4998999999988882,2.5213800000019546,3.605535000002419]","[""trial_ahead_box"",""trial_right_box"",""trial_sharp_right_box""]",0,28,28,58,1,lab1.jpg,hedgemaze1.jpg,igloo4.jpg,grocerystore2.jpg,,
Image_List_1,,,,,,,,,,,,,,,,44523,2020-11-18_13h31.13.181,lingCatScenes,2020.1.3,Linux x86_64,60,"[1366,768]",,,"[""trial_ahead_box"",""trial_slight_left_box"",""trial_slight_right_box""]",,,,,,,,,,,,churchInside1.jpg,space,4.432655,"[0.015492836634318033,0.012116114298502604,-0.19132153193155924,0.19648035367329916]","[-0.33342750867207843,-0.3102814356486003,-0.2890387376149495,-0.30108030637105304]","[1,1,1,1]","[0,0,0,0]","[0,0,0,0]","[1.3011250000017753,1.9548500000018976,2.6095449999993434,4.269729999999981]","[""trial_ahead_box"",""trial_slight_left_box"",""trial_slight_right_box""]",0,29,29,28,1,dancestudio5.jpg,citystreet10.jpg,clothingstore5.jpg,bridalboutique2.jpg,,
Image_List_1,,,,,,,,,,,,,,,,44523,2020-11-18_13h31.13.181,lingCatScenes,2020.1.3,Linux x86_64,60,"[1366,768]",,,"[""trial_ahead_box""]",,,,,,,,,,,,attic2.jpg,space,17.471035,[-0.0017043749491373699],[-0.2822851339975993],[1],[0],[0],[17.317225000002736],"[""trial_ahead_box""]",0,30,30,7,1,banquetHall4.jpg,backstage1.jpg,baggageClaim3.jpg,applestore2.jpg,,
Image_List_1,,,,,,,,,,,,,,,,44523,2020-11-18_13h31.13.181,lingCatScenes,2020.1.3,Linux x86_64,60,"[1366,768]",,,"[""trial_ahead_box""]",,,,,,,,,,,,frontDoor3.jpg,space,0.90623,[-0.0018920103708902996],[-0.28266048431396484],[1],[0],[0],[0.7173949999996694],"[""trial_ahead_box""]",0,31,31,49,1,greenhouse5.jpg,flowershop3.jpg,greenhouse.jpg,farm2.jpg,,
Image_List_1,,,,,,,,,,,,,,,,44523,2020-11-18_13h31.13.181,lingCatScenes,2020.1.3,Linux x86_64,60,"[1366,768]",,,"[""trial_ahead_box""]",,,,,,,,,,,,attic3.jpg,space,0.952365,[-0.002808809280395508],[-0.30586719512939453],[1],[0],[0],[0.7450300000018615],"[""trial_ahead_box""]",0,32,32,8,1,banquetHall6.jpg,balconyIN.jpg,bar.jpg,applestore4.jpg,,
Image_List_1,,,,,,,,,,,,,,,,44523,2020-11-18_13h31.13.181,lingCatScenes,2020.1.3,Linux x86_64,60,"[1366,768]",,,"[""trial_ahead_box""]",,,,,,,,,,,,ballroom1.jpg,space,0.94955,[-0.002808809280395508],[-0.30586719512939453],[1],[0],[0],[0.6649199999994835],"[""trial_ahead_box""]",0,33,33,14,1,breakroom5.jpg,bistrooutdoor5.jpg,botanicalGarden5.jpg,ballroom3.jpg,,
Image_List_1,,,,,,,,,,,,,,,,44523,2020-11-18_13h31.13.181,lingCatScenes,2020.1.3,Linux x86_64,60,"[1366,768]",,,"[""trial_ahead_box"",""trial_right_box""]",,,,,,,,,,,,deck1.jpg,space,3.214695,"[-0.002808809280395508,0.39110390345255536,0.6740450859069824]","[-0.30586719512939453,-0.29147879282633465,-0.2873692512512207]","[1,1,1]","[0,0,0]","[0,0,0]","[0.6753449999996519,2.0180400000026566,2.6810650000006717]","[""trial_ahead_box"",""trial_right_box""]",0,34,34,33,1,diningroom1.jpg,courthouse2.jpg,diner10.jpg,cabinIndoors5.jpg,,
Image_List_1,,,,,,,,,,,,,,,,44523,2020-11-18_13h31.13.181,lingCatScenes,2020.1.3,Linux x86_64,60,"[1366,768]",,,"[""trial_ahead_box"",""trial_sharp_right_box""]",,,,,,,,,,,,alley1.jpg,space,6.88008,"[0.2048650582631429,0.1963191827138265,-0.08925326665242513,-0.051145076751708984,0.02643473943074544,0.013027667999267578,0.4821232159932454,0.5820425351460775]","[-0.28533244132995605,-0.3162906964619954,-0.30905604362487793,-0.3121527036031087,-0.31409454345703125,-0.3111418088277181,-0.27184875806172687,-0.2990068594614665]","[1,1,1,1,1,1,1,1]","[0,0,0,0,0,0,0,0]","[0,0,0,0,0,0,0,0]","[1.3938750000013442,2.103044999999611,3.032750000001897,3.606455000001006,4.451880000000301,5.221440000000939,5.956170000001066,6.747634999999491]","[""trial_slight_right_box"",""trial_slight_right_box"",""trial_ahead_box"",""trial_sharp_right_box""]",0,35,35,2,1,arcade1.jpg,applestore6.jpg,apartmentBuilding4.jpg,airportTerminal6.jpg,,
Image_List_1,,,,,,,,,,,,,,,,44523,2020-11-18_13h31.13.181,lingCatScenes,2020.1.3,Linux x86_64,60,"[1366,768]",,,"[""trial_ahead_box""]",,,,,,,,,,,,tollbooth8.jpg,space,2.04426,[-0.011819998423258463],[-0.31349953015645343],[1],[0],[0],[1.5936350000013135],"[""trial_ahead_box""]",0,36,36,93,1,volleyballcourt4.jpg,staircase4.jpg,warehouseoutside2.jpg,tenniscourt.jpg,,
Image_List_1,,,,,,,,,,,,,,,,44523,2020-11-18_13h31.13.181,lingCatScenes,2020.1.3,Linux x86_64,60,"[1366,768]",,,"[""trial_ahead_box"",""trial_right_box"",""trial_sharp_right_box""]",,,,,,,,,,,,readingroom1.jpg,space,4.964805,"[-0.011819998423258463,0.38948941230773926,0.6017508506774902]","[-0.31349953015645343,-0.27958424886067706,-0.2762606938680013]","[1,1,1]","[0,0,0]","[0,0,0]","[1.7502600000007078,3.8289499999991676,4.692814999998745]","[""trial_ahead_box"",""trial_right_box"",""trial_sharp_right_box""]",0,37,37,83,1,sculpturegarden1.jpg,promenadeDeck6.jpg,restaurant8.jpg,readingroom2.jpg,,
Image_List_1,,,,,,,,,,,,,,,,44523,2020-11-18_13h31.13.181,lingCatScenes,2020.1.3,Linux x86_64,60,"[1366,768]",,,"[""trial_right_box"",""trial_slight_right_box""]",,,,,,,,,,,,bowlingalley5.jpg,space,10.519395,"[0.39885751406351727,0.2126925786336263]","[-0.3183852831522624,-0.3193569978078206]","[1,1]","[0,0]","[0,0]","[9.479815000002418,10.276800000003277]","[""trial_right_box"",""trial_slight_right_box""]",0,38,38,22,1,church6.jpg,cargo5.jpg,cemetery.jpg,bistrooutdoor6.jpg,,
Image_List_1,,,,,,,,,,,,,,,,44523,2020-11-18_13h31.13.181,lingCatScenes,2020.1.3,Linux x86_64,60,"[1366,768]",,,"[""trial_ahead_box""]",,,,,,,,,,,,frontDoor2.jpg,space,1.425265,[-0.013846476872762045],[-0.2954395612080892],[1],[0],[0],[1.3059749999993073],"[""trial_ahead_box""]",0,39,39,48,1,golfcourse6.jpg,fittingroom5.jpg,golfcourse7.jpg,fabricstore2.jpg,,
Image_List_1,,,,,,,,,,,,,,,,44523,2020-11-18_13h31.13.181,lingCatScenes,2020.1.3,Linux x86_64,60,"[1366,768]",,,"[""trial_right_box"",""trial_sharp_right_box"",""trial_slight_left_box"",""trial_ahead_box""]",,,,,,,,,,,,campsite7.jpg,space,4.609035,"[0.39222296078999835,0.5901718139648438,-0.1834721565246582,0.046766042709350586,0.009071985880533854]","[-0.324862798055013,-0.2875055472056071,-0.3042284647623698,-0.28396105766296387,-0.29759685198465985]","[1,1,1,1,1]","[0,0,0,0,0]","[0,0,0,0,0]","[1.2645799999993415,2.094139999997651,3.231895000001032,3.9647799999986546,4.484659999998485]","[""trial_right_box"",""trial_sharp_right_box"",""trial_slight_left_box"",""trial_ahead_box""]",0,40,40,25,1,conference3.jpg,church3.jpg,checkoutcounter2.jpg,botanicalGarden4.jpg,,
Image_List_1,,,,,,,,,,,,,,,,44523,2020-11-18_13h31.13.181,lingCatScenes,2020.1.3,Linux x86_64,60,"[1366,768]",,,"[""trial_ahead_box""]",,,,,,,,,,,,gazebo3.jpg,space,0.98859,[0.009071985880533854],[-0.29759685198465985],[1],[0],[0],[0.6910400000015215],"[""trial_ahead_box""]",0,41,41,53,1,homeoffice.jpg,frontLawn3.jpg,homegarage3.jpg,fountain.jpg,,
Image_List_1,,,,,,,,,,,,,,,,44523,2020-11-18_13h31.13.181,lingCatScenes,2020.1.3,Linux x86_64,60,"[1366,768]",,,"[""trial_ahead_box""]",,,,,,,,,,,,courthouse1.jpg,space,0.880605,[0.009071985880533854],[-0.29759685198465985],[1],[0],[0],[0.6016149999995832],"[""trial_ahead_box""]",0,42,42,30,1,desertvegetation3.jpg,clothingstore2.jpg,copyroom2.jpg,bus_shelter3.jpg,,
Image_List_1,,,,,,,,,,,,,,,,44523,2020-11-18_13h31.13.181,lingCatScenes,2020.1.3,Linux x86_64,60,"[1366,768]",,,"[""trial_right_box""]",,,,,,,,,,,,balconyIN2.jpg,space,6.244425,"[-0.411080797513326,-0.3906544844309489,-0.5950208703676859,-0.5950208703676859,-0.37759188810984295,0.4032900333404541,0.5730636914571127]","[-0.253052552541097,-0.3103935718536377,-0.32850146293640137,-0.3268123467763265,-0.31023017565409344,-0.31781911849975586,-0.31519055366516113]","[1,1,1,1,1,1,1]","[0,0,0,0,0,0,0]","[0,0,0,0,0,0,0]","[1.287609999999404,1.8232250000000931,2.504399999997986,3.286290000000008,4.470744999998715,5.406930000001012,6.019524999999703]","[""trial_left_box"",""trial_left_box"",""trial_right_box""]",0,43,43,13,1,bowlingalley3.jpg,beach2.jpg,boardwalk4.jpg,backyard6.jpg,,
Image_List_1,,,,,,,,,,,,,,,,44523,2020-11-18_13h31.13.181,lingCatScenes,2020.1.3,Linux x86_64,60,"[1366,768]",,,"[""trial_sharp_right_box"",""trial_ahead_box""]",,,,,,,,,,,,lockerroom4.jpg,space,5.82121,"[0.4342203140258789,0.5853366851806641,0.5922220547993978,0.018703142801920574,0.019453763961791992]","[-0.2939796447753906,-0.3352653980255127,-0.3199028968811035,-0.3264773686726888,-0.3232868512471517]","[1,1,1,1,1]","[0,0,0,0,0]","[0,0,0,0,0]","[1.8014699999985169,3.2049950000000536,3.80935999999906,4.757369999999355,5.563579999998183]","[""trial_sharp_right_box"",""trial_ahead_box""]",0,44,44,70,1,pavilion.jpg,lockerroom3.jpg,minigolf8.jpg,igloo.jpg,,
Image_List_1,,,,,,,,,,,,,,,,44523,2020-11-18_13h31.13.181,lingCatScenes,2020.1.3,Linux x86_64,60,"[1366,768]",,,"[""trial_right_box""]",,,,,,,,,,,,fittingroom2.jpg,space,1.726915,[0.4086018403371175],[-0.2917274634043376],[1],[0],[0],[1.4478649999980462],"[""trial_right_box""]",0,45,45,45,1,frontFoyer7.jpg,factory1.jpg,forestpath4.jpg,dock4.jpg,,
Image_List_1,,,,,,,,,,,,,,,,44523,2020-11-18_13h31.13.181,lingCatScenes,2020.1.3,Linux x86_64,60,"[1366,768]",,,"[""trial_right_box"",""trial_sharp_right_box""]",,,,,,,,,,,,driveway6.jpg,space,3.750255,"[0.38825003306070965,0.5905280113220215]","[-0.3140432834625244,-0.3078966935475667]","[1,1]","[0,0]","[0,0]","[2.3229500000015832,3.6148600000014994]","[""trial_right_box"",""trial_sharp_right_box""]",0,46,46,39,1,eyeglassstore9.jpg,drycleaners6.jpg,drymountains5.jpg,cliff5.jpg,,
Image_List_1,,,,,,,,,,,,,,,,44523,2020-11-18_13h31.13.181,lingCatScenes,2020.1.3,Linux x86_64,60,"[1366,768]",,,"[""trial_ahead_box"",""trial_right_box"",""trial_sharp_right_box""]",,,,,,,,,,,,restaurantkitchen2.jpg,space,3.638095,"[0.010926008224487305,0.3842809200286865,0.6238452593485514]","[-0.2885160446166992,-0.3052387237548828,-0.29785577456156415]","[1,1,1]","[0,0,0]","[0,0,0]","[1.2027100000016162,2.139605000000529,3.1125849999991715]","[""trial_ahead_box"",""trial_right_box"",""trial_sharp_right_box""]",0,47,47,87,1,theater2.jpg,savanna.jpg,sculpturegarden2.jpg,RVinside2.jpg,,
Image_List_1,,,,,,,,,,,,,,,,44523,2020-11-18_13h31.13.181,lingCatScenes,2020.1.3,Linux x86_64,60,"[1366,768]",,,"[""trial_right_box"",""trial_sharp_right_box""]",,,,,,,,,,,,apartmentBuilding2.jpg,space,4.842175,"[0.0035905043284098306,-0.016019264856974285,0.3932083447774251,0.5671804745992025,0.5894511540730795]","[-0.31365966796875,-0.29220128059387207,-0.30205074946085614,-0.3018678029378255,-0.3042150338490804]","[1,1,1,1,1]","[0,0,0,0,0]","[0,0,0,0,0]","[1.4971650000006775,2.0758700000005774,3.0476450000026034,4.010945000001811,4.622600000002421]","[""trial_ahead_box"",""trial_ahead_box"",""trial_right_box"",""trial_sharp_right_box""]",0,48,48,3,1,attic1.jpg,aquarium1.jpg,appleorchard2.jpg,alley3.jpg,,
Image_List_1,,,,,,,,,,,,,,,,44523,2020-11-18_13h31.13.181,lingCatScenes,2020.1.3,Linux x86_64,60,"[1366,768]",,,"[""trial_ahead_box"",""trial_left_box""]",,,,,,,,,,,,grocerystore5.jpg,space,4.98287,"[0.02881630261739095,-0.00895086924235026,-0.38609103361765545]","[-0.3185088634490967,-0.30853112538655597,-0.2991231282552083]","[1,1,1]","[0,0,0]","[0,0,0]","[1.1885150000016438,1.7606999999989057,2.7438900000015565]","[""trial_ahead_box"",""trial_left_box""]",0,49,49,56,1,hut3.jpg,golfcourse10.jpg,hut1.jpg,gasstation2.jpg,,
Image_List_1,,,,,,,,,,,,,,,,44523,2020-11-18_13h31.13.181,lingCatScenes,2020.1.3,Linux x86_64,60,"[1366,768]",,,"[""trial_ahead_box"",""trial_left_box""]",,,,,,,,,,,,publicrestroom2.jpg,space,19.075085,"[0.03951613108317057,0.0032221476236979165,-0.37861915429433185,-0.40648066997528076]","[-0.2906634012858073,-0.3007613817850749,-0.33337100346883136,-0.31946436564127606]","[1,1,1,1]","[0,0,0,0]","[0,0,0,0]","[16.84287499999823,17.299639999997453,18.159009999999626,18.71493499999997]","[""trial_ahead_box"",""trial_left_box""]",0,50,50,82,1,sandDunes_desert_outdoor9.jpg,promenadeDeck3.jpg,readingroom4.jpg,postoffice4.jpg,,
Image_List_1,,,,,,,,,,,,,,,,44523,2020-11-18_13h31.13.181,lingCatScenes,2020.1.3,Linux x86_64,60,"[1366,768]",,,"[""trial_left_box"",""trial_sharp_left_box""]",,,,,,,,,,,,liquorstore8.jpg,space,3.054775,"[-0.3934899965922038,-0.5880680282910665]","[-0.31348458925882977,-0.31025997797648114]","[1,1]","[0,0]","[0,0]","[2.010964999997668,2.590759999999136]","[""trial_left_box"",""trial_sharp_left_box""]",0,51,51,69,1,parkinglot2.jpg,livingroom.jpg,metroInside1.jpg,icecream2.jpg,,
Image_List_1,,,,,,,,,,,,,,,,44523,2020-11-18_13h31.13.181,lingCatScenes,2020.1.3,Linux x86_64,60,"[1366,768]",,,"[""trial_sharp_right_box"",""trial_right_box""]",,,,,,,,,,,,drycleaners4.jpg,space,3.56875,"[0.4305845896402995,0.6324019432067871,0.5786943435668945,0.3956138292948405]","[-0.2814939816792806,-0.2537113030751546,-0.28569833437601727,-0.3123716513315837]","[1,1,1,1]","[0,0,0,0]","[0,0,0,0]","[1.6584549999970477,2.238484999998036,2.713094999999157,3.4341699999968114]","[""trial_sharp_right_box"",""trial_right_box""]",0,52,52,40,1,farm1.jpg,drymountains.jpg,dugout1.jpg,clothingstore3.jpg,,
Image_List_1,,,,,,,,,,,,,,,,44523,2020-11-18_13h31.13.181,lingCatScenes,2020.1.3,Linux x86_64,60,"[1366,768]",,,"[""trial_ahead_box""]",,,,,,,,,,,,bikerack1.jpg,space,1.785745,[-0.009610573450724283],[-0.28101642926534015],[1],[0],[0],[1.0112799999988056],"[""trial_ahead_box""]",0,53,53,17,1,campsite6.jpg,breakroom4.jpg,carmechanic.jpg,baseball6.jpg,,
Image_List_1,,,,,,,,,,,,,,,,44523,2020-11-18_13h31.13.181,lingCatScenes,2020.1.3,Linux x86_64,60,"[1366,768]",,,"[""trial_slight_left_box"",""trial_slight_right_box""]",,,,,,,,,,,,newsstand2.jpg,space,2.75299,"[-0.23538323243459067,-0.18760442733764648,0.20350106557210287]","[-0.30332517623901367,-0.3178035418192546,-0.30631740887959796]","[1,1,1]","[0,0,0]","[0,0,0]","[0.8122949999999491,1.6307949999975335,2.5837399999984427]","[""trial_slight_left_box"",""trial_slight_right_box""]",0,54,54,74,1,playground10.jpg,observatory4.jpeg,operatingroom1.jpg,lightingstore2.jpg,,
Image_List_1,,,,,,,,,,,,,,,,44523,2020-11-18_13h31.13.181,lingCatScenes,2020.1.3,Linux x86_64,60,"[1366,768]",,,"[""trial_ahead_box""]",,,,,,,,,,,,exerciseequipment3.jpg,space,1.67466,[0.0236205259958903],[-0.30083703994750977],[1],[0],[0],[1.3355000000010477],"[""trial_ahead_box""]",0,55,55,42,1,firestation3.jpg,drymountains6.jpg,farm4.jpg,desertvegetation2.jpg,,
Image_List_1,,,,,,,,,,,,,,,,44523,2020-11-18_13h31.13.181,lingCatScenes,2020.1.3,Linux x86_64,60,"[1366,768]",,,"[""trial_ahead_box""]",,,,,,,,,,,,parkinggarage.jpg,space,1.50816,[0.013803323109944662],[-0.30608534812927246],[1],[0],[0],[1.0672149999991234],"[""trial_ahead_box""]",0,56,56,76,1,playroom4.jpg,parkinggarage3.jpg,park2.jpg,lookout4.jpg,,
Image_List_1,,,,,,,,,,,,,,,,44523,2020-11-18_13h31.13.181,lingCatScenes,2020.1.3,Linux x86_64,60,"[1366,768]",,,"[""trial_ahead_box""]",,,,,,,,,,,,readingroom5.jpg,space,1.066375,[0.01661817232767741],[-0.30683596928914386],[1],[0],[0],[0.8169849999976577],"[""trial_ahead_box""]",0,57,57,84,1,sidewalk2.jpg,restaurant13.jpg,sandDunes_desert_outdoor.jpg,rooftop2.jpg,,
Image_List_1,,,,,,,,,,,,,,,,44523,2020-11-18_13h31.13.181,lingCatScenes,2020.1.3,Linux x86_64,60,"[1366,768]",,,"[""trial_ahead_box""]",,,,,,,,,,,,campsite.jpg,space,1.246825,[0.01661817232767741],[-0.30683596928914386],[1],[0],[0],[0.9715850000029604],"[""trial_ahead_box""]",0,58,58,24,1,cliff3.jpg,cave6.jpg,cemetery5.jpg,boardwalk.jpg,,
Image_List_1,,,,,,,,,,,,,,,,44523,2020-11-18_13h31.13.181,lingCatScenes,2020.1.3,Linux x86_64,60,"[1366,768]",,,"[""trial_right_box"",""trial_sharp_right_box""]",,,,,,,,,,,,ruralroad7.jpg,space,6.47153,"[0.01661817232767741,0.004853248596191406,0.40925439198811847,0.6136132876078287]","[-0.30683596928914386,-0.2956833044687907,-0.2975803216298421,-0.2931838035583496]","[1,1,1,1]","[0,0,0,0]","[0,0,0,0]","[0.7056250000023283,1.337110000000166,5.60196999999971,6.334800000000541]","[""trial_ahead_box"",""trial_ahead_box"",""trial_right_box"",""trial_sharp_right_box""]",0,59,59,89,1,track5.jpg,ShowJumping7.jpg,staircase7.jpg,sculpturegarden3.jpg,,
Image_List_1,,,,,,,,,,,,,,,,44523,2020-11-18_13h31.13.181,lingCatScenes,2020.1.3,Linux x86_64,60,"[1366,768]",,,"[""trial_ahead_box""]",,,,,,,,,,,,treehouse.jpg,space,1.434485,[-0.021893024444580078],[-0.2867472171783447],[1],[0],[0],[1.1798049999997602],"[""trial_ahead_box""]",0,60,60,94,1,waitingroom3.jpg,staircase6.jpg,weightroom.jpg,trainStation3.jpg,,
Image_List_1,,,,,,,,,,,,,,,,44523,2020-11-18_13h31.13.181,lingCatScenes,2020.1.3,Linux x86_64,60,"[1366,768]",,,"[""trial_ahead_box""]",,,,,,,,,,,,bambooforest4.jpg,space,0.911305,[-0.006605943044026692],[-0.2974122365315755],[1],[0],[0],[0.7650599999979022],"[""trial_ahead_box""]",0,61,61,15,1,cafeteria5.jpg,bleachers8.jpg,cabinIndoors.jpg,bar8.jpg,,
Image_List_1,,,,,,,,,,,,,,,,44523,2020-11-18_13h31.13.181,lingCatScenes,2020.1.3,Linux x86_64,60,"[1366,768]",,,"[""trial_ahead_box"",""trial_slight_right_box"",""trial_right_box"",""trial_sharp_right_box"",""trial_slight_left_box"",""trial_left_box"",""trial_sharp_left_box""]",,,,,,,,,,,,savanna5.jpg,space,7.047155,"[-0.006605943044026692,0.16266504923502603,0.19538092613220215,0.40025965372721356,0.6193108558654785,0.6038463910420736,-0.18360090255737305,-0.399299422899882,-0.6143635114034017]","[-0.2974122365315755,-0.2949410279591878,-0.29310091336568195,-0.2893086274464925,-0.26125137011210126,-0.28275442123413086,-0.2835170427958171,-0.29943354924519855,-0.3038264910380046]","[1,1,1,1,1,1,1,1,1]","[0,0,0,0,0,0,0,0,0]","[0,0,0,0,0,0,0,0,0]","[0.7802300000000741,1.5933550000008836,2.0750800000023446,3.194165000000794,3.873940000001312,4.390645000002905,5.392740000002959,6.155570000002626,6.875455000001239]","[""trial_ahead_box"",""trial_slight_right_box"",""trial_right_box"",""trial_sharp_right_box"",""trial_slight_left_box"",""trial_left_box"",""trial_sharp_left_box""]",0,62,62,90,1,trainStation1.jpg,sidewalk1.jpg,stripmall3.jpg,shoestore4.jpg,,
Image_List_1,,,,,,,,,,,,,,,,44523,2020-11-18_13h31.13.181,lingCatScenes,2020.1.3,Linux x86_64,60,"[1366,768]",,,"[""trial_ahead_box""]",,,,,,,,,,,,greenhouse2.jpg,space,1.952715,"[0.03155875205993652,0.01784976323445638]","[-0.3236936728159587,-0.30875523885091144]","[1,1]","[0,0]","[0,0]","[1.0085250000011001,1.657839999999851]","[""trial_ahead_box""]",0,63,63,54,1,horsebarn11.jpg,gazebo2.jpg,homegarage4.jpg,frontFoyer.jpg,,
Image_List_1,,,,,,,,,,,,,,,,44523,2020-11-18_13h31.13.181,lingCatScenes,2020.1.3,Linux x86_64,60,"[1366,768]",,,"[""trial_ahead_box"",""trial_slight_left_box""]",,,,,,,,,,,,greenmountains.jpg,space,4.024915,"[0.01784976323445638,-0.18198585510253906,-0.20932952562967935,-0.21383380889892578]","[-0.30875523885091144,-0.3176056543986003,-0.30510735511779785,-0.30491964022318524]","[1,1,1,1]","[0,0,0,0]","[0,0,0,0]","[0.5694199999998091,1.4681600000003527,2.519674999999552,3.1027050000011513]","[""trial_ahead_box"",""trial_slight_left_box"",""trial_slight_left_box"",""trial_slight_left_box""]",0,64,64,55,1,hotelRoom3.jpg,gazebo5.jpg,hotelRoom7.jpg,frontLawn2.jpg,,
Image_List_1,,,,,,,,,,,,,,,,44523,2020-11-18_13h31.13.181,lingCatScenes,2020.1.3,Linux x86_64,60,"[1366,768]",,,"[""trial_left_box"",""trial_sharp_left_box""]",,,,,,,,,,,,basement.jpg,space,2.390795,"[-0.4035936991373698,-0.597861627737681]","[-0.30801161130269367,-0.31715138753255206]","[1,1]","[0,0]","[0,0]","[1.6529100000009294,2.229030000002467]","[""trial_left_box"",""trial_sharp_left_box""]",0,65,65,16,1,cafeteria6.jpg,breakroom2.jpg,campusquad4.jpg,barbershop2.jpg,,
Image_List_1,,,,,,,,,,,,,,,,44523,2020-11-18_13h31.13.181,lingCatScenes,2020.1.3,Linux x86_64,60,"[1366,768]",,,"[""trial_left_box"",""trial_sharp_left_box""]",,,,,,,,,,,,campusquad2.jpg,space,5.426435,"[-0.014030853907267252,-0.014030853907267252,-0.3815871477127075,-0.6206796169281006]","[-0.3069791793823242,-0.3069791793823242,-0.2940182685852051,-0.30077187220255536]","[1,1,1,1]","[0,0,0,0]","[0,0,0,0]","[1.3855899999980466,2.247654999999213,2.983639999998559,5.204579999997804]","[""trial_ahead_box"",""trial_ahead_box"",""trial_left_box"",""trial_sharp_left_box""]",0,66,66,26,1,cornfield4.jpg,church4.jpg,churchInside3.jpg,botanicalGarden7.jpg,,
Image_List_1,,,,,,,,,,,,,,,,44523,2020-11-18_13h31.13.181,lingCatScenes,2020.1.3,Linux x86_64,60,"[1366,768]",,,"[""trial_ahead_box""]",,,,,,,,,,,,igloo5.jpg,space,1.294235,[0.010927359263102213],[-0.28074057896931964],[1],[0],[0],[1.085360000000719],"[""trial_ahead_box""]",0,67,67,65,1,newsstand7.jpg,laundromat2.jpeg,labClass7.jpg,homeoffice8.jpg,,
Image_List_1,,,,,,,,,,,,,,,,44523,2020-11-18_13h31.13.181,lingCatScenes,2020.1.3,Linux x86_64,60,"[1366,768]",,,"[""trial_ahead_box""]",,,,,,,,,,,,frontDoor.jpg,space,0.84523,[0.0024817784627278647],[-0.28749704360961914],[1],[0],[0],[0.7050649999982852],"[""trial_ahead_box""]",0,68,68,47,1,gasstation8.jpg,firestation4.jpg,fountain7.jpg,elevatorOutside2.jpg,,
Image_List_1,,,,,,,,,,,,,,,,44523,2020-11-18_13h31.13.181,lingCatScenes,2020.1.3,Linux x86_64,60,"[1366,768]",,,"[""trial_ahead_box""]",,,,,,,,,,,,warehouse4.jpg,space,0.76949,[0.0024817784627278647],[-0.28749704360961914],[1],[0],[0],[0.5352850000019771],"[""trial_ahead_box""]",0,69,69,96,1,warehouseoutside1.jpg,tenniscourt3.jpg,windmill1.jpg,warehouse1.jpg,,
Image_List_1,,,,,,,,,,,,,,,,44523,2020-11-18_13h31.13.181,lingCatScenes,2020.1.3,Linux x86_64,60,"[1366,768]",,,"[""trial_left_box"",""trial_right_box""]",,,,,,,,,,,,gasstation6.jpg,space,3.76051,"[0.0024817784627278647,0.0021064281463623047,-0.429984450340271,-0.40803809960683185,0.40452130635579425]","[-0.28768467903137207,-0.28768467903137207,-0.27448805173238117,-0.28725775082906085,-0.3015937805175781]","[1,1,1,1,1]","[0,0,0,0,0]","[0,0,0,0,0]","[0.8609700000015437,1.3476300000002084,2.0467500000013388,2.468925000001036,3.452764999997953]","[""trial_ahead_box"",""trial_ahead_box"",""trial_left_box"",""trial_right_box""]",0,70,70,51,1,hallway5.jpg,frontDoor5.jpg,hayfield4.jpg,firestation5.jpg,,
Image_List_1,,,,,,,,,,,,,,,,44523,2020-11-18_13h31.13.181,lingCatScenes,2020.1.3,Linux x86_64,60,"[1366,768]",,,"[""trial_slight_right_box"",""trial_ahead_box"",""trial_right_box""]",,,,,,,,,,,,deck5.jpg,space,17.33049,"[0.21966870625813803,0.009802103042602539,0.39887364705403644]","[-0.2925097147623698,-0.3121500809987386,-0.32100145022074383]","[1,1,1]","[0,0,0]","[0,0,0]","[14.946454999997513,15.602419999999256,17.177459999998973]","[""trial_slight_right_box"",""trial_ahead_box"",""trial_right_box""]",0,71,71,35,1,dock3.jpg,cubicle7.jpg,dining_car6.jpg,carmechanic2.jpg,,
Image_List_1,,,,,,,,,,,,,,,,44523,2020-11-18_13h31.13.181,lingCatScenes,2020.1.3,Linux x86_64,60,"[1366,768]",,,"[""trial_sharp_right_box"",""trial_sharp_left_box""]",,,,,,,,,,,,botanicalGarden6.jpg,space,3.824615,"[0.6475392977396647,0.5979080200195312,-0.6190619667371114]","[-0.2722599506378174,-0.2913769880930583,-0.30896774927775067]","[1,1,1]","[0,0,0]","[0,0,0]","[1.9093099999990955,2.401494999998249,3.682834999999841]","[""trial_sharp_right_box"",""trial_sharp_left_box""]",0,72,72,21,1,cemetery6.jpg,campusquad3.jpg,cave5.jpg,beach1.jpeg,,
Image_List_1,,,,,,,,,,,,,,,,44523,2020-11-18_13h31.13.181,lingCatScenes,2020.1.3,Linux x86_64,60,"[1366,768]",,,"[""trial_ahead_box""]",,,,,,,,,,,,ATM1.jpg,space,1.564535,[-0.002281745274861654],[-0.31365617116292316],[1],[0],[0],[1.3945300000013958],"[""trial_ahead_box""]",0,73,73,6,1,banquetHall2.jpg,auto_showroom5.jpg,baggageClaim1.jpg,apartmentBuilding3.jpg,,
Image_List_1,,,,,,,,,,,,,,,,44523,2020-11-18_13h31.13.181,lingCatScenes,2020.1.3,Linux x86_64,60,"[1366,768]",,,"[""trial_ahead_box""]",,,,,,,,,,,,waitingroom2.jpg,space,1.08502,[-0.002281745274861654],[-0.31365617116292316],[1],[0],[0],[0.8160100000022794],"[""trial_ahead_box""]",0,74,74,95,1,warehouse2.jpg,stripmall6.jpg,weightroom4.jpg,tvstudio3.jpg,,
Image_List_1,,,,,,,,,,,,,,,,44523,2020-11-18_13h31.13.181,lingCatScenes,2020.1.3,Linux x86_64,60,"[1366,768]",,,"[""trial_sharp_left_box""]",,,,,,,,,,,,cubicle4.jpg,space,3.40331,"[-0.002281745274861654,-0.027463992436726887,-0.01122434933980306,-0.6073139309883118]","[-0.31365617116292316,-0.3147987524668376,-0.30930320421854657,-0.2847708861033122]","[1,1,1,1]","[0,0,0,0]","[0,0,0,0]","[0.7590500000005704,1.3646800000024086,2.3804050000035204,3.28126500000144]","[""trial_ahead_box"",""trial_ahead_box"",""trial_sharp_left_box""]",0,75,75,31,1,desertvegetation6.jpg,conference4.jpg,courtroom2.jpg,cabin3.jpg,,
Image_List_1,,,,,,,,,,,,,,,,44523,2020-11-18_13h31.13.181,lingCatScenes,2020.1.3,Linux x86_64,60,"[1366,768]",,,"[""trial_ahead_box""]",,,,,,,,,,,,library_aisle10.jpg,space,2.004785,[0.024976253509521484],[-0.3070689042409261],[1],[0],[0],[1.5183549999999286],"[""trial_ahead_box""]",0,76,76,66,1,office3.jpg,laundromat3.jpg,liquorstore.jpg,horsebarn9.jpg,,
Image_List_1,,,,,,,,,,,,,,,,44523,2020-11-18_13h31.13.181,lingCatScenes,2020.1.3,Linux x86_64,60,"[1366,768]",,,"[""trial_right_box""]",,,,,,,,,,,,hut2.jpg,space,2.00034,[0.40893324216206867],[-0.290413777033488],[1],[0],[0],[1.8496249999989232],"[""trial_right_box""]",0,77,77,63,1,museum6.jpg,hotelRoom2.jpg,lab4.jpg,highway2.jpg,,
Image_List_1,,,,,,,,,,,,,,,,44523,2020-11-18_13h31.13.181,lingCatScenes,2020.1.3,Linux x86_64,60,"[1366,768]",,,"[""trial_ahead_box"",""trial_slight_left_box"",""trial_slight_right_box""]",,,,,,,,,,,,artStudio1.jpg,space,2.63328,"[0.012556950251261393,-0.18031573295593262,0.19743887583414713]","[-0.2865048249562581,-0.3079434235890706,-0.3141295909881592]","[1,1,1]","[0,0,0]","[0,0,0]","[1.112539999998262,1.750899999999092,2.539534999999887]","[""trial_ahead_box"",""trial_slight_left_box"",""trial_slight_right_box""]",0,78,78,4,1,baggageClaim2.jpg,auto_showroom1.jpg,appleorchard3.jpg,alley4.jpg,,
Image_List_1,,,,,,,,,,,,,,,,44523,2020-11-18_13h31.13.181,lingCatScenes,2020.1.3,Linux x86_64,60,"[1366,768]",,,"[""trial_ahead_box"",""trial_sharp_left_box""]",,,,,,,,,,,,bleachers5.jpg,space,3.858105,"[-0.018509864807128906,-0.5946770509084066]","[-0.29427536328633624,-0.3002189000447591]","[1,1]","[0,0]","[0,0]","[0.9578350000010687,3.720150000001013]","[""trial_ahead_box"",""trial_sharp_left_box""]",0,79,79,18,1,casino1.jpg,brewery4.jpg,castle2.jpg,basement6.jpg,,
Image_List_1,,,,,,,,,,,,,,,,44523,2020-11-18_13h31.13.181,lingCatScenes,2020.1.3,Linux x86_64,60,"[1366,768]",,,"[""trial_ahead_box""]",,,,,,,,,,,,deck4.jpg,space,1.128975,[-0.009119272232055664],[-0.30708710352579754],[1],[0],[0],[0.995969999999943],"[""trial_ahead_box""]",0,80,80,34,1,diningroom5.jpg,courthouse4.jpg,diner11.jpg,campusquad1.jpg,,
Image_List_1,,,,,,,,,,,,,,,,44523,2020-11-18_13h31.13.181,lingCatScenes,2020.1.3,Linux x86_64,60,"[1366,768]",,,"[""trial_ahead_box""]",,,,,,,,,,,,pavilion2.jpg,space,1.640425,[0.00035881996154785156],[-0.31910864512125653],[1],[0],[0],[0.9871199999979581],"[""trial_ahead_box""]",0,81,81,80,1,racecarcourse2.jpg,porch.jpg,poolhall5.jpg,parkinggarage4.jpg,,
Image_List_1,,,,,,,,,,,,,,,,44523,2020-11-18_13h31.13.181,lingCatScenes,2020.1.3,Linux x86_64,60,"[1366,768]",,,"[""trial_ahead_box""]",,,,,,,,,,,,HorseRaceTrack.jpg,space,6.42206,"[0.6104629834493002,0.6104629834493002,0.021791458129882812,-0.42683998743693036]","[-0.29533712069193524,-0.29533712069193524,-0.30017979939778644,-0.2971615791320801]","[1,1,1,1]","[0,0,0,0]","[0,0,0,0]","[1.610145000002376,2.5044850000012957,5.122380000000476,6.28354500000205]","[""trial_sharp_right_box"",""trial_sharp_right_box"",""trial_ahead_box""]",0,82,82,61,1,metroInside4.jpg,homegarden6.jpg,kindergarten_classroom7.jpg,hayfield6.jpg,,
Image_List_1,,,,,,,,,,,,,,,,44523,2020-11-18_13h31.13.181,lingCatScenes,2020.1.3,Linux x86_64,60,"[1366,768]",,,"[""trial_left_box"",""trial_sharp_left_box""]",,,,,,,,,,,,backstage2.jpg,space,3.88877,"[-0.5160196224848429,-0.43234459559122723,-0.4166375796000163,-0.6060085693995158]","[-0.285732905069987,-0.2995726267496745,-0.3001357714335124,-0.3073495229085286]","[1,1,1,1]","[0,0,0,0]","[0,0,0,0]","[1.9484799999991083,2.5361100000009174,3.129385000000184,3.763474999999744]","[""trial_left_box"",""trial_sharp_left_box""]",0,83,83,10,1,barbershop3.jpg,ballroom4.jpg,basketballcourt3.jpg,ATM4.jpg,,
Image_List_1,,,,,,,,,,,,,,,,44523,2020-11-18_13h31.13.181,lingCatScenes,2020.1.3,Linux x86_64,60,"[1366,768]",,,"[""trial_ahead_box""]",,,,,,,,,,,,weightroom5.jpg,space,2.210825,"[0.03530414899190267,0.004189650217692058]","[-0.2965521812438965,-0.30521202087402344]","[1,1]","[0,0]","[0,0]","[1.1463299999995797,1.5391049999998359]","[""trial_ahead_box""]",0,84,84,98,1,wineVineyard8.jpg,warehouse3.jpg,winebarrel4.jpg,winebarrel2.jpg,,
Image_List_1,,,,,,,,,,,,,,,,44523,2020-11-18_13h31.13.181,lingCatScenes,2020.1.3,Linux x86_64,60,"[1366,768]",,,"[""trial_sharp_right_box"",""trial_right_box""]",,,,,,,,,,,,hometheater2.jpg,space,2.30428,"[0.6134511629740397,0.4059720039367676]","[-0.2921595573425293,-0.31318457921346027]","[1,1]","[0,0]","[0,0]","[1.5238949999982196,2.1731399999985115]","[""trial_sharp_right_box"",""trial_right_box""]",0,85,85,60,1,lightingstore3.jpg,homegarage.jpg,kindergarten_classroom6.jpg,hallway.jpg,,
Image_List_1,,,,,,,,,,,,,,,,44523,2020-11-18_13h31.13.181,lingCatScenes,2020.1.3,Linux x86_64,60,"[1366,768]",,,"[""trial_ahead_box"",""trial_slight_right_box"",""trial_right_box"",""trial_sharp_right_box""]",,,,,,,,,,,,pasture.jpg,space,4.956955,"[0.02324056625366211,0.20442446072896323,0.4369933605194092,0.41578276952107746,0.5775640805562338]","[-0.3024427890777588,-0.29166142145792645,-0.28345028559366864,-0.2893572648366292,-0.29715561866760254]","[1,1,1,1,1]","[0,0,0,0,0]","[0,0,0,0,0]","[1.4651549999980489,2.2020549999979266,3.0725249999995867,3.60454000000027,4.704024999999092]","[""trial_ahead_box"",""trial_slight_right_box"",""trial_right_box"",""trial_sharp_right_box""]",0,86,86,79,1,poolhall2.jpeg,playground9.jpg,pier2.jpg,observatory2.jpg,,
Image_List_1,,,,,,,,,,,,,,,,44523,2020-11-18_13h31.13.181,lingCatScenes,2020.1.3,Linux x86_64,60,"[1366,768]",,,"[""trial_ahead_box""]",,,,,,,,,,,,firestation2.jpg,space,1.441725,[0.006085395812988281],[-0.3002598285675049],[1],[0],[0],[1.1065200000011828],"[""trial_ahead_box""]",0,87,87,44,1,frontFoyer4.jpg,elevatorOutside1.jpg,foodcourt6.jpg,dock2.jpg,,
Image_List_1,,,,,,,,,,,,,,,,44523,2020-11-18_13h31.13.181,lingCatScenes,2020.1.3,Linux x86_64,60,"[1366,768]",,,"[""trial_left_box"",""trial_sharp_left_box"",""trial_right_box""]",,,,,,,,,,,,exerciseequipment5.jpg,space,4.80258,"[-0.4284493128458659,-0.4192288319269816,-0.5972215930620829,0.4307798544565837,0.4046200116475423]","[-0.2934207121531169,-0.29289762179056805,-0.3011314074198405,-0.293082316716512,-0.2938219706217448]","[1,1,1,1,1]","[0,0,0,0,0]","[0,0,0,0,0]","[1.0641349999971226,2.263960000000452,3.012949999996863,4.118694999997615,4.60080000000039]","[""trial_left_box"",""trial_sharp_left_box"",""trial_right_box""]",0,88,88,43,1,forestpath10.jpg,dugout2.jpg,foodcourt.jpg,diningroom3.jpg,,
Image_List_1,,,,,,,,,,,,,,,,44523,2020-11-18_13h31.13.181,lingCatScenes,2020.1.3,Linux x86_64,60,"[1366,768]",,,"[""trial_left_box"",""trial_sharp_left_box""]",,,,,,,,,,,,gasstation7.jpg,space,15.33644,"[-0.32230329513549805,-0.3740938901901245,0.40186484654744464,-0.36332595348358154,-0.3840707143147786,-0.6225484013557434,0.3818846543629964]","[-0.2776827812194824,-0.29676302274068195,-0.28355733553568524,-0.3249572118123372,-0.3227977752685547,-0.29706112543741864,-0.3003477255503337]","[1,1,1,1,1,1,1]","[0,0,0,0,0,0,0]","[0,0,0,0,0,0,0]","[11.08639499999822,11.561989999998104,12.5316049999999,13.336344999999483,13.77387999999678,14.368179999997437,15.22591499999885]","[""trial_right_box"",""trial_left_box"",""trial_sharp_left_box"",""trial_right_box""]",0,89,89,52,1,hardwarestore1.jpg,frontFoyer6.jpg,highway.jpg,forestpath2.jpg,,
Image_List_1,,,,,,,,,,,,,,,,44523,2020-11-18_13h31.13.181,lingCatScenes,2020.1.3,Linux x86_64,60,"[1366,768]",,,"[""trial_ahead_box"",""trial_left_box"",""trial_sharp_left_box"",""trial_sharp_right_box""]",,,,,,,,,,,,restaurant14.jpg,space,5.62295,"[0.04399871826171875,0.023342370986938477,-0.39326278368632,-0.6527741352717081,-0.5321703751881918,-0.6014318664868673,0.5621740023295084,0.5773517290751139]","[-0.29119547208150226,-0.2970012029012044,-0.29654526710510254,-0.29239678382873535,-0.29364752769470215,-0.3096558252970378,-0.316482941309611,-0.31102148691813153]","[1,1,1,1,1,1,1,1]","[0,0,0,0,0,0,0,0]","[0,0,0,0,0,0,0,0]","[0.8132200000000012,1.241715000000113,1.9447699999984707,2.5076649999973597,3.252440000000206,3.7719699999981913,4.791419999997743,5.391834999998537]","[""trial_ahead_box"",""trial_left_box"",""trial_sharp_left_box"",""trial_sharp_right_box""]",0,90,90,86,1,stripmall.jpg,ruralroad3.jpg,sandDunes_desert_outdoor8.jpg,rooftop4.jpg,,
Image_List_1,,,,,,,,,,,,,,,,44523,2020-11-18_13h31.13.181,lingCatScenes,2020.1.3,Linux x86_64,60,"[1366,768]",,,"[""trial_ahead_box""]",,,,,,,,,,,,castle3.jpg,space,1.162455,[0.010594685872395834],[-0.30373311042785645],[1],[0],[0],[1.0405099999989034],"[""trial_ahead_box""]",0,91,91,27,1,courtroom3.jpg,churchInside4.jpg,closet.jpg,brewery2.jpg,,
Image_List_1,,,,,,,,,,,,,,,,44523,2020-11-18_13h31.13.181,lingCatScenes,2020.1.3,Linux x86_64,60,"[1366,768]",,,"[""trial_ahead_box""]",,,,,,,,,,,,rooftop1.jpg,space,3.2695,"[-0.005166212717692058,0.42534931500752765]","[-0.2976671059926351,-0.31094829241434735]","[1,1]","[0,0]","[0,0]","[1.281050000001187,3.0375050000002375]","[""trial_ahead_box""]",0,92,92,88,1,track.jpg,sculpturegarden4.jpg,soccerfield.jpg,sandbox.jpg,,
Image_List_1,,,,,,,,,,,,,,,,44523,2020-11-18_13h31.13.181,lingCatScenes,2020.1.3,Linux x86_64,60,"[1366,768]",,,"[""trial_ahead_box"",""trial_left_box"",""trial_sharp_left_box""]",,,,,,,,,,,,recordingstudio4.jpg,space,4.19402,"[0.06711443265279134,0.01832437515258789,-0.3731091817220052,-0.3796778917312622,-0.616315225760142]","[-0.3035084406534831,-0.2961726188659668,-0.28129808108011883,-0.28580236434936523,-0.30910031000773114]","[1,1,1,1,1]","[0,0,0,0,0]","[0,0,0,0,0]","[1.4047600000012608,1.9362750000000233,2.699445000002015,3.1154700000006414,3.7523849999997765]","[""trial_ahead_box"",""trial_left_box"",""trial_sharp_left_box""]",0,93,93,85,1,sidewalk5.jpg,ruralroad2.jpg,sandDunes_desert_outdoor3.jpg,rooftop3.jpg,,
Image_List_1,,,,,,,,,,,,,,,,44523,2020-11-18_13h31.13.181,lingCatScenes,2020.1.3,Linux x86_64,60,"[1366,768]",,,"[""trial_ahead_box"",""trial_left_box""]",,,,,,,,,,,,baggageClaim4.jpg,space,23.640655,"[0.02761244773864746,-0.0646217664082845,-0.026946544647216797,-0.0026504198710123696,-0.4007433255513509]","[-0.3148633639017741,-0.3152611255645752,-0.3144185543060303,-0.31836620966593426,-0.3043812910715739]","[1,1,1,1,1]","[0,0,0,0,0]","[0,0,0,0,0]","[1.806075000000419,2.2231750000028114,2.8759100000024773,3.378615000001446,4.507770000000164]","[""trial_ahead_box"",""trial_left_box""]",0,94,94,12,1,bedroom6.jpg,bambooforest5.jpg,bleachers7.jpg,backyard5.jpg,,
Image_List_1,,,,,,,,,,,,,,,,44523,2020-11-18_13h31.13.181,lingCatScenes,2020.1.3,Linux x86_64,60,"[1366,768]",,,"[""trial_ahead_box"",""trial_right_box""]",,,,,,,,,,,,parkinggarage2.jpg,space,3.16358,"[-0.025745709737141926,0.00832819938659668,0.4089175860087077]","[-0.28630534807840985,-0.2924806276957194,-0.28763659795125324]","[1,1,1]","[0,0,0]","[0,0,0]","[1.0644949999987148,1.9394149999970978,2.9761799999978393]","[""trial_ahead_box"",""trial_right_box""]",0,95,95,77,1,playroom6.jpg,pasture9.jpg,park8.jpg,mallindoor6.jpg,,
Image_List_1,,,,,,,,,,,,,,,,44523,2020-11-18_13h31.13.181,lingCatScenes,2020.1.3,Linux x86_64,60,"[1366,768]",,,"[""trial_ahead_box"",""trial_sharp_left_box""]",,,,,,,,,,,,boardwalk2.jpg,space,3.909605,"[0.002903461456298828,-0.6080109079678854]","[-0.3086512088775635,-0.3034454981486003]","[1,1]","[0,0]","[0,0]","[2.7265800000022864,3.72104500000205]","[""trial_ahead_box"",""trial_sharp_left_box""]",0,96,96,19,1,casino3.jpg,cafeteria1.jpg,castle4.jpg,basketballcourt.jpg,,
Image_List_1,,,,,,,,,,,,,,,,44523,2020-11-18_13h31.13.181,lingCatScenes,2020.1.3,Linux x86_64,60,"[1366,768]",,,"[""trial_ahead_box""]",,,,,,,,,,,,metroInside2.jpg,space,1.82103,[-0.023737033208211262],[-0.27532235781351727],[1],[0],[0],[1.2875549999989744],"[""trial_ahead_box""]",0,97,97,71,1,pavilion5.jpg,metroInside3.jpg,museum3.jpg,jewelrystore.jpg,,
Image_List_1,,,,,,,,,,,,,,,,44523,2020-11-18_13h31.13.181,lingCatScenes,2020.1.3,Linux x86_64,60,"[1366,768]",,,"[""trial_left_box"",""trial_sharp_left_box""]",,,,,,,,,,,,dining_car2.jpg,space,3.40476,"[-0.43602649370829266,-0.411690632502238,-0.5945645570755005]","[-0.27953537305196124,-0.29470332463582355,-0.3133224646250407]","[1,1,1]","[0,0,0]","[0,0,0]","[2.045079999999871,2.5490849999987404,3.2551649999986694]","[""trial_left_box"",""trial_sharp_left_box""]",0,98,98,38,1,elevatorOutside4.jpg,dock1.jpg,driveway8.jpg,classroom1.jpg,,
Image_List_1,,,,,,,,,,,,,,,,44523,2020-11-18_13h31.13.181,lingCatScenes,2020.1.3,Linux x86_64,60,"[1366,768]",,,"[""trial_ahead_box"",""trial_sharp_left_box"",""trial_left_box""]",,,,,,,,,,,,musicStore3.jpg,space,3.826665,"[-0.009773969650268555,-0.5927906036376953,-0.4155988295873006,-0.3907394011815389]","[-0.2995625336964925,-0.29754161834716797,-0.3383706410725911,-0.28325557708740234]","[1,1,1,1]","[0,0,0,0]","[0,0,0,0]","[1.2923750000009022,2.08606499999928,3.1109399999986636,3.576419999997597]","[""trial_ahead_box"",""trial_sharp_left_box"",""trial_left_box""]",0,99,99,73,1,photographer_studio2.jpg,nursery.jpg,nursery4.jpg,library_aisle9.jpg,,
Image_List_1,,,,,,,,,,,,,,,,44523,2020-11-18_13h31.13.181,lingCatScenes,2020.1.3,Linux x86_64,60,,,,,,,,,,,,,,,,,,,,,,,,,,,,,,,,,,,space,3.556425
