image_list,key_resp_intructions.keys,key_resp_intructions.rt,key_resp_intructions_3.keys,key_resp_intructions_3.rt,PracticeComplete_2.keys,PracticeComplete_2.rt,PracticeComplete_3.keys,PracticeComplete_3.rt,demo_trials.thisRepN,demo_trials.thisTrialN,demo_trials.thisN,demo_trials.thisIndex,demo_trials.ran,demo_images,path_images,participant,date,expName,psychopyVersion,OS,frameRate,windowSize,drawing,numDrawings,drawingSizes,practice_complete.keys,practice_complete.rt,PracticeComplete.keys,PracticeComplete.rt,practice_trials.thisRepN,practice_trials.thisTrialN,practice_trials.thisN,practice_trials.thisIndex,practice_trials.ran,practice_images,feedback_images,key_resp_intructions_2.keys,key_resp_intructions_2.rt,Image_List_5,trial_complete.keys,trial_complete.rt,trials.thisRepN,trials.thisTrialN,trials.thisN,trials.thisIndex,trials.ran,Image_List_1,Image_List_2,Image_List_3,Image_List_4,key_resp.keys,key_resp.rt
Image_List_5,space,23.39514,space,5.164135,space,9.18517,space,2.560095,0,0,0,5,1,right.jpg,right_path.jpg,44532,2020-11-03_20h36.52.303,analogCatScenes,2020.1.3,Win32,60,,,,,,,,,,,,,,,,,,,,,,,,,,,,,,,
Image_List_5,,,,,space,1.23762,space,5.374755,0,1,1,3,1,ahead_right_left.jpg,ahead_right_left_path.jpg,44532,2020-11-03_20h36.52.303,analogCatScenes,2020.1.3,Win32,60,,,,,,,,,,,,,,,,,,,,,,,,,,,,,,,
Image_List_5,,,,,space,0.913305,space,0.83697,0,2,2,1,1,ahead_left.jpg,ahead_left_path.jpg,44532,2020-11-03_20h36.52.303,analogCatScenes,2020.1.3,Win32,60,,,,,,,,,,,,,,,,,,,,,,,,,,,,,,,
Image_List_5,,,,,space,0.691665,space,0.524885,0,3,3,0,1,ahead.jpg,ahead_path.jpg,44532,2020-11-03_20h36.52.303,analogCatScenes,2020.1.3,Win32,60,,,,,,,,,,,,,,,,,,,,,,,,,,,,,,,
Image_List_5,,,,,space,0.488065,space,0.46958,0,4,4,6,1,right_left.jpg,right_left_path.jpg,44532,2020-11-03_20h36.52.303,analogCatScenes,2020.1.3,Win32,60,,,,,,,,,,,,,,,,,,,,,,,,,,,,,,,
Image_List_5,,,,,space,0.574345,space,1.18461,0,5,5,4,1,left.jpg,left_path.jpg,44532,2020-11-03_20h36.52.303,analogCatScenes,2020.1.3,Win32,60,,,,,,,,,,,,,,,,,,,,,,,,,,,,,,,
Image_List_5,,,,,space,3.21974,space,0.46746,0,6,6,2,1,ahead_right.jpg,ahead_right_path.jpg,44532,2020-11-03_20h36.52.303,analogCatScenes,2020.1.3,Win32,60,,,,,,,,,,,,,,,,,,,,,,,,,,,,,,,
Image_List_5,,,,,,,,,,,,,,,,44532,2020-11-03_20h36.52.303,analogCatScenes,2020.1.3,Win32,60,"[1500,1000]",[],0,[],space,0.768565,space,1.37711,0,0,0,4,1,left_2.jpg,left_2_path.jpg,,,,,,,,,,,,,,,,
Image_List_5,,,,,,,,,,,,,,,,44532,2020-11-03_20h36.52.303,analogCatScenes,2020.1.3,Win32,60,"[1500,1000]",[],0,[],space,0.825295,space,0.8286,0,1,1,5,1,right_2.jpg,right_2_path.jpg,,,,,,,,,,,,,,,,
Image_List_5,,,,,,,,,,,,,,,,44532,2020-11-03_20h36.52.303,analogCatScenes,2020.1.3,Win32,60,"[1500,1000]",[],0,[],space,0.84315,space,0.63496,0,2,2,2,1,ahead_right_2.jpg,ahead_right_2_path.jpg,,,,,,,,,,,,,,,,
Image_List_5,,,,,,,,,,,,,,,,44532,2020-11-03_20h36.52.303,analogCatScenes,2020.1.3,Win32,60,"[1500,1000]","[[[-0.0035,-0.1945],[-0.0035,-0.1945],[-0.0035,-0.1945],[-0.0035,-0.1945],[-0.0035,-0.1945],[-0.0035,-0.1945],[-0.0035,-0.1945],[-0.0035,-0.1945],[-0.0035,-0.1945],[-0.0035,-0.1945],[-0.0035,-0.1925],[-0.0035,-0.1765],[-0.0035,-0.1595],[-0.0035,-0.147],[-0.0035,-0.1295],[-0.0035,-0.121],[-0.0035,-0.112],[-0.0015,-0.0905],[-0.0015,-0.08],[-0.001,-0.071],[-0.001,-0.058],[-0.001,-0.053],[-0.001,-0.049],[-0.0015,-0.0415],[-0.0015,-0.033],[-0.0025,-0.018],[-0.0025,-0.004],[-0.0025,0],[-0.0025,0.004],[-0.002,0.0125],[-0.002,0.021],[-0.0015,0.03],[-0.0015,0.043],[-0.0005,0.055],[0,0.0635],[0.0025,0.082],[0.0035,0.093],[0.0045,0.1],[0.0045,0.1045],[0.0045,0.1065],[0.0045,0.108],[0.0045,0.1115]]]",1,[42],space,9.82441,space,1.342725,0,3,3,0,1,ahead_2.jpg,ahead_2_path.jpg,,,,,,,,,,,,,,,,
Image_List_5,,,,,,,,,,,,,,,,44532,2020-11-03_20h36.52.303,analogCatScenes,2020.1.3,Win32,60,"[1500,1000]","[[[-0.009,-0.1975],[-0.009,-0.1975],[-0.009,-0.1975],[-0.009,-0.1975],[-0.009,-0.1975],[-0.009,-0.1975],[-0.009,-0.1975],[-0.009,-0.1975],[-0.009,-0.1975],[-0.009,-0.1975],[-0.058,-0.188],[-0.078,-0.1855],[-0.09,-0.1855],[-0.1,-0.1845],[-0.113,-0.184],[-0.126,-0.182],[-0.139,-0.1805],[-0.161,-0.178],[-0.176,-0.1755],[-0.1915,-0.1725],[-0.208,-0.169],[-0.222,-0.1655],[-0.239,-0.161],[-0.244,-0.16],[-0.246,-0.1595],[-0.247,-0.1595],[-0.248,-0.1585],[-0.249,-0.1585],[-0.25,-0.158],[-0.25,-0.158],[-0.25,-0.158],[-0.25,-0.157],[-0.25,-0.157],[-0.25,-0.157],[-0.25,-0.157],[-0.25,-0.157]],[[0.002,-0.1985],[0.002,-0.1985],[0.002,-0.1985],[0.002,-0.1985],[0.002,-0.1985],[0.005,-0.1945],[0.019,-0.177],[0.048,-0.1495],[0.085,-0.1135],[0.113,-0.0885],[0.1225,-0.0795],[0.1415,-0.0635],[0.1505,-0.056],[0.155,-0.052],[0.16,-0.049],[0.1615,-0.0475],[0.1625,-0.047],[0.163,-0.0465],[0.1635,-0.046],[0.1655,-0.0455],[0.168,-0.0435],[0.1685,-0.0435]],[[0.001,-0.1905],[0.001,-0.1905],[0.001,-0.1905],[0.001,-0.1905],[0.001,-0.1905],[0.001,-0.1905],[0.001,-0.1905],[0.001,-0.1905],[0.001,-0.1765],[0.001,-0.126],[0.001,-0.106],[0.001,-0.089],[0.002,-0.077],[0.002,-0.0745],[0.002,-0.0735],[0.002,-0.073],[0.002,-0.073],[0.002,-0.074]]]",3,"[36,22,18]",space,6.929585,space,1.07738,0,4,4,3,1,ahead_right_left_2.jpg,ahead_right_left_2_path.jpg,,,,,,,,,,,,,,,,
Image_List_5,,,,,,,,,,,,,,,,44532,2020-11-03_20h36.52.303,analogCatScenes,2020.1.3,Win32,60,"[1500,1000]","[[[-0.008,-0.202],[-0.008,-0.202],[-0.008,-0.202],[-0.008,-0.202],[-0.008,-0.202],[-0.008,-0.202],[-0.008,-0.202],[-0.008,-0.202],[-0.008,-0.202],[-0.008,-0.202],[-0.0185,-0.169],[-0.0315,-0.134],[-0.036,-0.1205],[-0.039,-0.1115],[-0.0465,-0.0935],[-0.052,-0.081],[-0.0585,-0.071],[-0.066,-0.061],[-0.0705,-0.0525],[-0.0745,-0.044],[-0.079,-0.0335],[-0.0855,-0.0205],[-0.0885,-0.0125],[-0.0955,0.002],[-0.099,0.0085]],[[0.0065,-0.1985],[0.0065,-0.1985],[0.0065,-0.1985],[0.0065,-0.1985],[0.0065,-0.1985],[0.0065,-0.1985],[0.0065,-0.1985],[0.0065,-0.1985],[0.0065,-0.1985],[0.0065,-0.1985],[0.0065,-0.1985],[0.0065,-0.1985],[0.008,-0.1925],[0.011,-0.1845],[0.014,-0.173],[0.017,-0.1635],[0.0185,-0.1595],[0.02,-0.155],[0.021,-0.15],[0.0265,-0.134],[0.0275,-0.1295],[0.03,-0.1215],[0.031,-0.118],[0.032,-0.115],[0.034,-0.11],[0.037,-0.1005],[0.0395,-0.0915],[0.041,-0.087],[0.0415,-0.085],[0.0425,-0.082],[0.0455,-0.074],[0.0495,-0.0625],[0.0525,-0.0555],[0.0555,-0.0485],[0.058,-0.044],[0.06,-0.0395],[0.065,-0.0285],[0.0685,-0.0225],[0.072,-0.018],[0.074,-0.013],[0.0745,-0.011],[0.076,-0.008],[0.078,-0.0035],[0.08,-0.0005],[0.081,0.002],[0.084,0.0085],[0.086,0.011],[0.088,0.0135],[0.0915,0.018],[0.0935,0.0205],[0.0945,0.0215],[0.0965,0.0245],[0.0985,0.0275],[0.101,0.0315],[0.1035,0.0365],[0.105,0.039],[0.107,0.0415],[0.1085,0.044],[0.11,0.047],[0.112,0.05],[0.114,0.0535],[0.118,0.0595],[0.12,0.062],[0.1225,0.064],[0.1265,0.069],[0.1305,0.0745],[0.136,0.0825],[0.139,0.088],[0.1405,0.0915],[0.142,0.093],[0.143,0.0945],[0.144,0.096],[0.148,0.099],[0.1505,0.101],[0.152,0.1025],[0.153,0.1035],[0.153,0.1035]]]",2,"[25,77]",space,6.57288,space,1.02992,0,5,5,6,1,right_left_2.jpg,right_left_2_path.jpg,,,,,,,,,,,,,,,,
Image_List_5,,,,,,,,,,,,,,,,44532,2020-11-03_20h36.52.303,analogCatScenes,2020.1.3,Win32,60,"[1500,1000]","[[[0.0035,-0.197],[0.0035,-0.197],[0.0035,-0.197],[0.0035,-0.197],[0.0035,-0.196],[0.003,-0.1945],[0.003,-0.189],[0.0055,-0.1755],[0.0085,-0.158],[0.013,-0.136],[0.016,-0.111],[0.0205,-0.084],[0.022,-0.0575],[0.022,-0.0165],[0.024,0.0075],[0.026,0.028],[0.0305,0.0445],[0.0335,0.061],[0.033,0.0785],[0.0285,0.096],[0.0225,0.1185],[0.0205,0.1295],[0.0205,0.1395],[0.019,0.1465],[0.019,0.15],[0.019,0.1535],[0.019,0.165],[0.018,0.1705],[0.016,0.1815],[0.014,0.193],[0.014,0.2],[0.014,0.2025],[0.014,0.203],[0.014,0.203],[0.014,0.203],[0.014,0.203],[0.014,0.203],[0.014,0.203],[0.014,0.203],[0.014,0.2035],[0.014,0.2045]],[[-0.0075,-0.197],[-0.0075,-0.1965],[-0.0085,-0.1955],[-0.0115,-0.1945],[-0.0175,-0.1925],[-0.033,-0.188],[-0.064,-0.182],[-0.102,-0.1765],[-0.151,-0.1705],[-0.1975,-0.165],[-0.223,-0.1605],[-0.2395,-0.1575],[-0.248,-0.1565],[-0.2505,-0.1565],[-0.2515,-0.1565],[-0.2525,-0.1565],[-0.2545,-0.1565],[-0.2545,-0.1565],[-0.2545,-0.1565],[-0.2555,-0.1565],[-0.256,-0.1565],[-0.256,-0.1565],[-0.256,-0.1565],[-0.256,-0.1565],[-0.256,-0.1565],[-0.256,-0.1565]]]",2,"[41,26]",space,5.08419,space,1.00269,0,6,6,1,1,ahead_left_2.jpg,ahead_left_2_path.jpg,,,,,,,,,,,,,,,,
Image_List_5,,,,,,,,,,,,,,,,44532,2020-11-03_20h36.52.303,analogCatScenes,2020.1.3,Win32,60,"[1500,1000]","[[[-0.0045,-0.191],[-0.0045,-0.191],[-0.0045,-0.191],[-0.0045,-0.191],[-0.0045,-0.191],[-0.0045,-0.19],[-0.0045,-0.186],[-0.0045,-0.1745],[-0.002,-0.158],[0.003,-0.131],[0.003,-0.107],[0,-0.08],[-0.0065,-0.056],[-0.0105,-0.039],[-0.0145,-0.024],[-0.0175,-0.01],[-0.0195,0.0025],[-0.0215,0.0135],[-0.0225,0.034],[-0.0245,0.0455],[-0.0255,0.0565],[-0.026,0.0675],[-0.028,0.0745],[-0.0295,0.081],[-0.0325,0.0895],[-0.034,0.096],[-0.0365,0.102],[-0.038,0.1065],[-0.039,0.111],[-0.0395,0.1145],[-0.0415,0.119],[-0.0425,0.123],[-0.043,0.1265],[-0.044,0.1295],[-0.044,0.133],[-0.0445,0.136],[-0.0445,0.1375],[-0.045,0.1395],[-0.046,0.142],[-0.0465,0.1445],[-0.0465,0.1485],[-0.0465,0.1505],[-0.0465,0.152],[-0.0465,0.154],[-0.0465,0.1555],[-0.0465,0.158],[-0.0465,0.1605],[-0.0465,0.162],[-0.0465,0.164],[-0.047,0.1655],[-0.047,0.167],[-0.047,0.1695],[-0.047,0.171],[-0.0475,0.1735],[-0.0485,0.176],[-0.049,0.18],[-0.049,0.182],[-0.049,0.1835],[-0.049,0.1845],[-0.049,0.186],[-0.049,0.1875],[-0.0495,0.1905],[-0.0495,0.191],[-0.0505,0.1925],[-0.051,0.195],[-0.051,0.196],[-0.051,0.1965],[-0.051,0.1975],[-0.051,0.1975],[-0.051,0.198],[-0.051,0.1995],[-0.0515,0.2],[-0.0515,0.201],[-0.0515,0.201],[-0.0515,0.2015],[-0.0515,0.2015],[-0.0515,0.2015],[-0.0515,0.2015],[-0.0515,0.2015],[-0.0515,0.2015],[-0.0515,0.2015],[-0.0515,0.2015]],[[-0.001,-0.2025],[-0.001,-0.2025],[-0.001,-0.2025],[-0.001,-0.2025],[-0.001,-0.202],[-0.001,-0.2],[0.002,-0.1935],[0.0055,-0.1835],[0.0095,-0.1705],[0.0135,-0.159],[0.017,-0.1465],[0.023,-0.128],[0.027,-0.114],[0.031,-0.101],[0.035,-0.0905],[0.037,-0.085],[0.04,-0.0815],[0.0415,-0.079],[0.0445,-0.076],[0.0465,-0.073],[0.049,-0.0705],[0.053,-0.066],[0.0555,-0.063],[0.0585,-0.061],[0.061,-0.0585],[0.065,-0.0555],[0.0685,-0.0525],[0.077,-0.044],[0.085,-0.038],[0.096,-0.031],[0.1055,-0.0245],[0.1135,-0.018],[0.1205,-0.0115],[0.125,-0.008],[0.1305,-0.002],[0.138,0.007],[0.1425,0.011],[0.146,0.014],[0.149,0.0165],[0.1515,0.0195],[0.1545,0.0225],[0.1575,0.0255],[0.16,0.028],[0.1645,0.0325],[0.1675,0.0355],[0.171,0.038],[0.1745,0.041],[0.179,0.044],[0.183,0.047],[0.1855,0.05],[0.19,0.0535],[0.193,0.056],[0.1965,0.0585],[0.199,0.0605],[0.202,0.0625],[0.2045,0.0645],[0.209,0.067],[0.212,0.069],[0.2145,0.0695],[0.2185,0.072],[0.2215,0.073],[0.224,0.074],[0.227,0.075],[0.229,0.0765],[0.2325,0.077],[0.2355,0.0785],[0.238,0.08],[0.2425,0.0815],[0.246,0.083],[0.2495,0.084],[0.253,0.085],[0.2555,0.0855],[0.257,0.0855],[0.2585,0.086],[0.2625,0.087],[0.265,0.0875],[0.2675,0.0875],[0.2705,0.088],[0.272,0.088],[0.2735,0.088],[0.274,0.088],[0.2755,0.088],[0.277,0.088],[0.277,0.088],[0.277,0.088],[0.277,0.088],[0.277,0.088],[0.277,0.088],[0.277,0.0875]],[[-0.0065,-0.1935],[-0.007,-0.193],[-0.007,-0.193],[-0.007,-0.193],[-0.0075,-0.1925],[-0.0085,-0.192],[-0.0135,-0.186],[-0.0215,-0.174],[-0.034,-0.159],[-0.0425,-0.143],[-0.0525,-0.126],[-0.061,-0.109],[-0.074,-0.0895],[-0.08,-0.078],[-0.0845,-0.07],[-0.091,-0.0615],[-0.1005,-0.053],[-0.1105,-0.044],[-0.1185,-0.039],[-0.122,-0.036],[-0.1265,-0.033],[-0.1305,-0.03],[-0.1345,-0.024],[-0.1385,-0.0205],[-0.145,-0.015],[-0.151,-0.011],[-0.1555,-0.0075],[-0.1615,-0.0025],[-0.1695,0.004],[-0.173,0.007],[-0.176,0.01],[-0.1785,0.0125],[-0.1805,0.0145],[-0.1825,0.0165],[-0.184,0.0185],[-0.1865,0.0215],[-0.1895,0.024],[-0.1905,0.025],[-0.1925,0.026],[-0.1925,0.027],[-0.193,0.027],[-0.1935,0.0275],[-0.194,0.028],[-0.1945,0.0285],[-0.195,0.029],[-0.1975,0.031],[-0.2005,0.0335],[-0.203,0.0355],[-0.205,0.0375],[-0.2075,0.0395],[-0.2105,0.041],[-0.2135,0.0425],[-0.214,0.043],[-0.2155,0.0435],[-0.216,0.0435],[-0.216,0.0435],[-0.216,0.0435],[-0.216,0.0435],[-0.216,0.0435],[-0.216,0.0435],[-0.216,0.0435],[-0.216,0.0435],[-0.216,0.0435],[-0.216,0.0435],[-0.216,0.0435]]]",3,"[82,89,65]",,,,,,,,,,,,space,5.1023,sidewalk3.jpg,space,17.723405,0,0,0,91,1,shoestore2.jpg,trainStation5.jpg,skatepark5.jpg,ticket_counter6.jpg,,
Image_List_5,,,,,,,,,,,,,,,,44532,2020-11-03_20h36.52.303,analogCatScenes,2020.1.3,Win32,60,"[1500,1000]","[[[0.01,-0.197],[0.009,-0.196],[0.007,-0.1935],[0.004,-0.1905],[0.0015,-0.188],[-0.0015,-0.185],[-0.0045,-0.182],[-0.0075,-0.1755],[-0.0115,-0.164],[-0.0155,-0.1485],[-0.0185,-0.124],[-0.0205,-0.109],[-0.0225,-0.094],[-0.0235,-0.082],[-0.0235,-0.0685],[-0.0235,-0.0525],[-0.0235,-0.0375],[-0.0255,-0.0145],[-0.0265,-0.002],[-0.0275,0.0125],[-0.0275,0.0275],[-0.026,0.0385],[-0.0235,0.05],[-0.0215,0.061],[-0.0175,0.0725],[-0.0135,0.0825],[-0.012,0.086],[-0.011,0.089],[-0.01,0.0915],[-0.0095,0.094],[-0.0095,0.096],[-0.0095,0.1]]]",1,[32],,,,,,,,,,,,,,alley4.jpg,space,1.558265,0,1,1,4,1,artStudio1.jpg,baggageClaim2.jpg,auto_showroom1.jpg,appleorchard3.jpg,,
Image_List_5,,,,,,,,,,,,,,,,44532,2020-11-03_20h36.52.303,analogCatScenes,2020.1.3,Win32,60,"[1500,1000]","[[[-0.0055,-0.19],[-0.0055,-0.19],[-0.0055,-0.19],[-0.0055,-0.19],[-0.0055,-0.19],[-0.0055,-0.19],[-0.0055,-0.19],[-0.0055,-0.19],[-0.0055,-0.19],[-0.005,-0.191],[0.0035,-0.1945],[0.016,-0.1965],[0.031,-0.1985],[0.051,-0.1985],[0.0725,-0.198],[0.1205,-0.1905],[0.1645,-0.185],[0.1955,-0.18],[0.224,-0.1755],[0.2445,-0.1715],[0.2595,-0.1675],[0.2715,-0.1635],[0.277,-0.159],[0.28,-0.156],[0.283,-0.1515],[0.2845,-0.143],[0.2885,-0.129],[0.2925,-0.1175],[0.2955,-0.106],[0.295,-0.1],[0.2935,-0.0955],[0.2895,-0.0895],[0.2865,-0.086],[0.2825,-0.083],[0.277,-0.078],[0.264,-0.071],[0.2505,-0.065],[0.227,-0.0555],[0.21,-0.0505],[0.192,-0.046],[0.177,-0.043],[0.167,-0.0405],[0.157,-0.0375],[0.1465,-0.035],[0.138,-0.032],[0.1305,-0.0295],[0.1135,-0.026],[0.099,-0.022],[0.084,-0.0185],[0.0715,-0.016],[0.0625,-0.013],[0.055,-0.0115],[0.0485,-0.008],[0.0365,-0.004],[0.025,0],[0.0135,0.004],[-0.0005,0.008],[-0.016,0.012],[-0.0315,0.016],[-0.0455,0.02],[-0.0665,0.026],[-0.083,0.0305],[-0.0995,0.0355],[-0.115,0.0395],[-0.1255,0.0435],[-0.133,0.0465],[-0.1385,0.05],[-0.1465,0.0535],[-0.151,0.0565],[-0.1565,0.0595],[-0.162,0.064],[-0.1675,0.067],[-0.1725,0.07],[-0.176,0.073],[-0.1795,0.075],[-0.183,0.077],[-0.184,0.078],[-0.185,0.0795],[-0.187,0.081],[-0.1895,0.084],[-0.191,0.085],[-0.192,0.087],[-0.194,0.088],[-0.195,0.09],[-0.198,0.092],[-0.2005,0.0955],[-0.2035,0.0985],[-0.208,0.1025],[-0.21,0.1055],[-0.213,0.1085],[-0.2155,0.111],[-0.2175,0.114],[-0.2205,0.117],[-0.2225,0.119],[-0.2245,0.121],[-0.2245,0.122],[-0.2245,0.1225],[-0.2245,0.123],[-0.2245,0.1245],[-0.2245,0.1245],[-0.2245,0.1245],[-0.2245,0.1245],[-0.2245,0.125],[-0.2245,0.125],[-0.2245,0.125],[-0.2245,0.125],[-0.2245,0.125],[-0.2245,0.125],[-0.2245,0.125],[-0.2245,0.125],[-0.2245,0.125],[-0.2245,0.1265]]]",1,[112],,,,,,,,,,,,,,dock4.jpg,space,4.14183,0,2,2,45,1,fittingroom2.jpg,frontFoyer7.jpg,factory1.jpg,forestpath4.jpg,,
Image_List_5,,,,,,,,,,,,,,,,44532,2020-11-03_20h36.52.303,analogCatScenes,2020.1.3,Win32,60,"[1500,1000]","[[[-0.001,-0.1895],[-0.0035,-0.189],[-0.007,-0.187],[-0.018,-0.1815],[-0.0275,-0.178],[-0.04,-0.173],[-0.0585,-0.1625],[-0.0785,-0.148],[-0.1,-0.131],[-0.1305,-0.11],[-0.156,-0.0915],[-0.176,-0.0775],[-0.1955,-0.063],[-0.206,-0.055],[-0.21,-0.0515],[-0.21,-0.05],[-0.21,-0.0485],[-0.21,-0.046],[-0.2095,-0.0435],[-0.204,-0.0355],[-0.1995,-0.0235],[-0.189,-0.0115],[-0.178,-0.0005],[-0.1645,0.008],[-0.1505,0.014],[-0.136,0.021],[-0.112,0.0305],[-0.086,0.0385],[-0.0605,0.045],[-0.0335,0.052],[-0.01,0.061],[0.019,0.0715],[0.0455,0.081],[0.0695,0.0865],[0.0875,0.0905],[0.11,0.0965],[0.1215,0.1005],[0.1305,0.103],[0.137,0.1065],[0.1405,0.1085],[0.1445,0.1115],[0.1555,0.1165],[0.162,0.12],[0.17,0.1245],[0.1755,0.1285],[0.18,0.132],[0.184,0.135],[0.1875,0.137],[0.19,0.1395],[0.193,0.1415],[0.197,0.145],[0.202,0.148],[0.207,0.1505],[0.2105,0.1525],[0.215,0.1545],[0.2185,0.156],[0.2215,0.1585],[0.224,0.159],[0.224,0.159],[0.224,0.159],[0.224,0.159],[0.224,0.159],[0.224,0.159],[0.224,0.159],[0.2245,0.159]]]",1,[65],,,,,,,,,,,,,,dock2.jpg,space,2.392265,0,3,3,44,1,firestation2.jpg,frontFoyer4.jpg,elevatorOutside1.jpg,foodcourt6.jpg,,
Image_List_5,,,,,,,,,,,,,,,,44532,2020-11-03_20h36.52.303,analogCatScenes,2020.1.3,Win32,60,"[1500,1000]","[[[-0.0015,-0.1905],[-0.0015,-0.1905],[-0.0015,-0.19],[-0.0025,-0.189],[-0.0035,-0.187],[-0.007,-0.1795],[-0.011,-0.1655],[-0.0185,-0.1435],[-0.0285,-0.1135],[-0.041,-0.0815],[-0.0595,-0.039],[-0.065,-0.016],[-0.0685,0.0095],[-0.0695,0.035],[-0.0655,0.055],[-0.0625,0.069],[-0.0625,0.0785],[-0.0655,0.0865],[-0.0665,0.089],[-0.0665,0.0915],[-0.0675,0.0935],[-0.0675,0.0955],[-0.0675,0.097],[-0.068,0.0995],[-0.068,0.1005],[-0.0685,0.104],[-0.069,0.1055]]]",1,[27],,,,,,,,,,,,,,hallway.jpg,space,1.285375,0,4,4,60,1,hometheater2.jpg,lightingstore3.jpg,homegarage.jpg,kindergarten_classroom6.jpg,,
Image_List_5,,,,,,,,,,,,,,,,44532,2020-11-03_20h36.52.303,analogCatScenes,2020.1.3,Win32,60,"[1500,1000]","[[[-0.0035,-0.201],[-0.0045,-0.1975],[-0.005,-0.195],[-0.005,-0.1925],[-0.005,-0.192],[-0.005,-0.192],[-0.005,-0.192],[-0.005,-0.192],[-0.0045,-0.192],[0.002,-0.192],[0.0145,-0.1945],[0.0375,-0.1985],[0.0745,-0.2075],[0.1425,-0.2285],[0.218,-0.248]],[[0.003,-0.1945],[0.003,-0.1945],[0.003,-0.1945],[0.0025,-0.194],[0.0025,-0.194],[0.002,-0.193],[0.0005,-0.1905],[0,-0.187],[-0.001,-0.1795],[-0.001,-0.169],[-0.001,-0.1525],[-0.001,-0.1405],[-0.001,-0.131],[-0.0005,-0.1235],[0,-0.115],[0.001,-0.108],[0.0025,-0.1005],[0.005,-0.093],[0.006,-0.089],[0.008,-0.0845],[0.0085,-0.082],[0.009,-0.0805],[0.01,-0.0785],[0.01,-0.0775],[0.0105,-0.076],[0.011,-0.075],[0.0115,-0.0745],[0.0135,-0.0725],[0.0145,-0.0715],[0.0165,-0.069],[0.0185,-0.0675],[0.0205,-0.0655],[0.021,-0.0635],[0.023,-0.061],[0.0265,-0.057],[0.028,-0.054],[0.03,-0.0495],[0.0325,-0.047],[0.035,-0.044],[0.0375,-0.0415],[0.04,-0.039],[0.043,-0.0365],[0.0465,-0.032],[0.0495,-0.0295],[0.0515,-0.0265],[0.0535,-0.0245],[0.0545,-0.023],[0.055,-0.0225],[0.0555,-0.0215],[0.057,-0.021],[0.0575,-0.021],[0.0575,-0.0205],[0.0575,-0.0205],[0.058,-0.0205],[0.0585,-0.0205],[0.0585,-0.0205]],[[-0.01,-0.199],[-0.01,-0.199],[-0.01,-0.199],[-0.01,-0.1985],[-0.0105,-0.1985],[-0.0115,-0.1975],[-0.0135,-0.1925],[-0.0175,-0.187],[-0.022,-0.1765],[-0.027,-0.165],[-0.033,-0.1545],[-0.0375,-0.1425],[-0.0435,-0.1335],[-0.048,-0.1255],[-0.053,-0.117],[-0.0595,-0.105],[-0.0625,-0.098],[-0.0655,-0.0935],[-0.0685,-0.089],[-0.0715,-0.0845],[-0.076,-0.0805],[-0.0915,-0.072],[-0.0995,-0.0685],[-0.106,-0.0655],[-0.1095,-0.0625],[-0.1125,-0.0605],[-0.116,-0.0575],[-0.1185,-0.056],[-0.1225,-0.0545],[-0.126,-0.053],[-0.1295,-0.052],[-0.1375,-0.0495],[-0.1465,-0.047],[-0.158,-0.045],[-0.169,-0.043],[-0.1775,-0.042],[-0.185,-0.0405],[-0.1895,-0.039],[-0.1955,-0.0375],[-0.2,-0.037],[-0.2025,-0.0355],[-0.205,-0.035],[-0.207,-0.034],[-0.2095,-0.033],[-0.2125,-0.0315],[-0.215,-0.031],[-0.219,-0.03],[-0.2215,-0.03],[-0.2235,-0.03],[-0.2245,-0.0295],[-0.2255,-0.0295],[-0.227,-0.0295],[-0.2295,-0.029],[-0.231,-0.0285],[-0.2325,-0.0285],[-0.234,-0.0275],[-0.2355,-0.027],[-0.237,-0.0265],[-0.239,-0.0265],[-0.24,-0.026],[-0.241,-0.026],[-0.2435,-0.0255],[-0.245,-0.0255],[-0.2465,-0.0255],[-0.2475,-0.0245],[-0.249,-0.0245],[-0.25,-0.024],[-0.251,-0.024],[-0.2515,-0.024],[-0.252,-0.024],[-0.253,-0.024],[-0.253,-0.024],[-0.253,-0.024],[-0.2535,-0.024],[-0.254,-0.024]]]",3,"[15,56,75]",,,,,,,,,,,,,,kindergarten_classroom.jpg,space,8.882185,0,5,5,72,1,museum5.jpg,pharmacy4.jpg,musicStore1.jpg,museum4.jpg,,
Image_List_5,,,,,,,,,,,,,,,,44532,2020-11-03_20h36.52.303,analogCatScenes,2020.1.3,Win32,60,"[1500,1000]","[[[-0.003,-0.191],[-0.003,-0.1905],[-0.003,-0.1905],[-0.003,-0.1905],[-0.003,-0.1905],[-0.003,-0.1905],[-0.001,-0.1895],[0.0035,-0.1875],[0.0125,-0.184],[0.0245,-0.179],[0.036,-0.173],[0.0455,-0.1675],[0.0505,-0.1615],[0.0575,-0.151],[0.0605,-0.1465],[0.0635,-0.143],[0.065,-0.1365],[0.0685,-0.1275],[0.0685,-0.117],[0.0685,-0.106],[0.067,-0.0945],[0.0635,-0.0775],[0.0595,-0.066],[0.056,-0.056],[0.052,-0.047],[0.0485,-0.038],[0.045,-0.029],[0.0415,-0.02],[0.038,-0.012],[0.033,-0.002],[0.03,0.0025],[0.0285,0.006],[0.0265,0.009],[0.025,0.0125],[0.0235,0.015],[0.023,0.019],[0.0215,0.0215],[0.02,0.0245],[0.019,0.027],[0.018,0.03],[0.0175,0.0315],[0.017,0.0335],[0.017,0.0345],[0.0165,0.0365],[0.0165,0.039],[0.0165,0.04],[0.0165,0.04],[0.0165,0.0405],[0.016,0.041],[0.016,0.0415],[0.015,0.042],[0.0145,0.042]]]",1,[52],,,,,,,,,,,,,,forestpath2.jpg,space,1.821175,0,6,6,52,1,gasstation7.jpg,hardwarestore1.jpg,frontFoyer6.jpg,highway.jpg,,
Image_List_5,,,,,,,,,,,,,,,,44532,2020-11-03_20h36.52.303,analogCatScenes,2020.1.3,Win32,60,"[1500,1000]","[[[-0.0015,-0.2025],[-0.0015,-0.2025],[-0.0015,-0.202],[-0.0025,-0.201],[-0.0045,-0.197],[-0.0075,-0.194],[-0.0105,-0.1885],[-0.015,-0.1795],[-0.019,-0.1705],[-0.0235,-0.1585],[-0.0275,-0.147],[-0.033,-0.131],[-0.0365,-0.1245],[-0.037,-0.119],[-0.04,-0.116],[-0.0415,-0.112],[-0.0425,-0.1075],[-0.044,-0.104],[-0.0445,-0.1005],[-0.045,-0.098],[-0.046,-0.095],[-0.047,-0.092],[-0.047,-0.0895],[-0.047,-0.087],[-0.048,-0.0835],[-0.0485,-0.08],[-0.049,-0.078],[-0.05,-0.076],[-0.05,-0.076],[-0.0505,-0.076],[-0.0505,-0.076]],[[-0.0075,-0.2],[-0.0075,-0.2],[-0.0075,-0.2],[-0.0075,-0.2],[-0.007,-0.1995],[-0.006,-0.199],[-0.0025,-0.197],[0.003,-0.194],[0.0145,-0.19],[0.042,-0.184],[0.0585,-0.181],[0.0725,-0.177],[0.0825,-0.175],[0.089,-0.1725],[0.092,-0.172],[0.093,-0.171],[0.093,-0.171],[0.094,-0.1705],[0.096,-0.1705],[0.0985,-0.17],[0.1095,-0.166],[0.1185,-0.162],[0.1245,-0.1605],[0.128,-0.16],[0.1305,-0.16],[0.1325,-0.16],[0.141,-0.159],[0.1515,-0.159],[0.159,-0.159],[0.167,-0.1585],[0.1695,-0.1585],[0.171,-0.1585],[0.172,-0.1585],[0.172,-0.1585],[0.172,-0.1585],[0.172,-0.1585],[0.172,-0.1585],[0.172,-0.1585]],[[-0.0075,-0.197],[-0.0075,-0.197],[-0.0075,-0.197],[-0.0075,-0.197],[-0.0075,-0.1965],[-0.009,-0.1955],[-0.026,-0.1945],[-0.045,-0.1935],[-0.073,-0.1915],[-0.101,-0.1905],[-0.13,-0.189],[-0.1565,-0.187],[-0.1715,-0.184],[-0.1785,-0.182],[-0.181,-0.1795],[-0.1875,-0.178],[-0.191,-0.1775],[-0.1945,-0.1765],[-0.197,-0.176],[-0.1975,-0.176],[-0.1975,-0.176],[-0.1975,-0.176],[-0.1975,-0.176],[-0.1975,-0.176],[-0.198,-0.176]]]",3,"[31,38,25]",,,,,,,,,,,,,,citystreet9.jpg,space,3.835695,0,7,7,37,1,dining_car.jpg,driveway4.jpg,dinosaur4.jpg,driveway7.jpg,,
Image_List_5,,,,,,,,,,,,,,,,44532,2020-11-03_20h36.52.303,analogCatScenes,2020.1.3,Win32,60,"[1500,1000]","[[[-0.0045,-0.204],[-0.0045,-0.204],[-0.0045,-0.202],[-0.0045,-0.1995],[-0.0045,-0.196],[-0.0015,-0.183],[0.0025,-0.1715],[0.0065,-0.16],[0.01,-0.1485],[0.014,-0.137],[0.018,-0.1265],[0.0215,-0.1165],[0.0295,-0.099],[0.034,-0.087],[0.0385,-0.0805],[0.0425,-0.0745],[0.047,-0.067],[0.0505,-0.0555],[0.0545,-0.044],[0.0595,-0.0325],[0.065,-0.014],[0.068,-0.005],[0.0705,0.0105],[0.0715,0.015],[0.073,0.019],[0.0745,0.022],[0.076,0.0245],[0.078,0.029],[0.0785,0.0315],[0.079,0.034],[0.08,0.0355],[0.0805,0.0365],[0.0805,0.037],[0.0805,0.037],[0.0805,0.037],[0.0805,0.037]],[[-0.0005,-0.1965],[-0.001,-0.1965],[-0.001,-0.1965],[-0.002,-0.196],[-0.0025,-0.196],[-0.004,-0.196],[-0.0085,-0.195],[-0.025,-0.1935],[-0.045,-0.1935],[-0.064,-0.194],[-0.08,-0.194],[-0.0935,-0.195],[-0.106,-0.196],[-0.1305,-0.199],[-0.1465,-0.201],[-0.1655,-0.203],[-0.179,-0.204],[-0.1905,-0.206],[-0.2015,-0.208],[-0.21,-0.2085],[-0.2145,-0.2085],[-0.2175,-0.2095],[-0.225,-0.211],[-0.2315,-0.2125],[-0.236,-0.213],[-0.2375,-0.214],[-0.2395,-0.214],[-0.242,-0.214],[-0.2435,-0.214],[-0.2475,-0.214],[-0.25,-0.214],[-0.2525,-0.214],[-0.255,-0.214],[-0.258,-0.2135],[-0.259,-0.2135],[-0.259,-0.2135],[-0.259,-0.2135],[-0.259,-0.2135],[-0.259,-0.2135],[-0.259,-0.2135]]]",2,"[36,40]",,,,,,,,,,,,,,brewery2.jpg,space,2.91562,0,8,8,27,1,castle3.jpg,courtroom3.jpg,churchInside4.jpg,closet.jpg,,
Image_List_5,,,,,,,,,,,,,,,,44532,2020-11-03_20h36.52.303,analogCatScenes,2020.1.3,Win32,60,"[1500,1000]","[[[-0.0055,-0.2005],[-0.006,-0.1995],[-0.008,-0.198],[-0.0145,-0.194],[-0.028,-0.187],[-0.046,-0.1775],[-0.068,-0.1675],[-0.101,-0.1575],[-0.153,-0.1495],[-0.1855,-0.146],[-0.2105,-0.143],[-0.2275,-0.1385],[-0.2425,-0.1345],[-0.253,-0.131],[-0.2605,-0.1285],[-0.264,-0.127],[-0.2675,-0.127],[-0.2715,-0.1255],[-0.275,-0.125],[-0.282,-0.123],[-0.286,-0.122],[-0.2885,-0.1205],[-0.2915,-0.1185],[-0.2945,-0.1165],[-0.2965,-0.1155],[-0.2985,-0.1135],[-0.3,-0.112],[-0.302,-0.111],[-0.303,-0.1105],[-0.303,-0.1105],[-0.303,-0.1105],[-0.3015,-0.1105]],[[-0.002,-0.1975],[-0.002,-0.1975],[-0.002,-0.197],[-0.002,-0.197],[-0.002,-0.197],[-0.0015,-0.197],[0.0035,-0.197],[0.009,-0.196],[0.0385,-0.195],[0.065,-0.195],[0.0955,-0.195],[0.123,-0.195],[0.1435,-0.1955],[0.1595,-0.1965],[0.173,-0.1965],[0.184,-0.1965],[0.1955,-0.1965],[0.199,-0.1965],[0.2025,-0.1955],[0.2075,-0.195],[0.2105,-0.1935],[0.212,-0.193],[0.2135,-0.193],[0.214,-0.193],[0.214,-0.193],[0.214,-0.193],[0.214,-0.193]]]",2,"[32,27]",,,,,,,,,,,,,,observatory2.jpg,space,3.169425,0,9,9,79,1,pasture.jpg,poolhall2.jpeg,playground9.jpg,pier2.jpg,,
Image_List_5,,,,,,,,,,,,,,,,44532,2020-11-03_20h36.52.303,analogCatScenes,2020.1.3,Win32,60,"[1500,1000]","[[[0.0015,-0.1935],[0.0015,-0.1935],[0.0015,-0.1935],[0.0015,-0.1925],[0.0015,-0.1925],[0.0015,-0.1925],[0.0015,-0.1915],[-0.0005,-0.1865],[-0.0025,-0.174],[-0.0035,-0.1575],[-0.0045,-0.1415],[-0.0055,-0.125],[-0.0055,-0.1215],[-0.0055,-0.121],[-0.006,-0.1205],[-0.006,-0.1205],[-0.008,-0.1185]]]",1,[17],,,,,,,,,,,,,,observatory1.jpg,space,1.77721,0,10,10,78,1,parkinglot3.jpg,poolhall1.jpg,pier5.jpg,pavilion3.jpg,,
Image_List_5,,,,,,,,,,,,,,,,44532,2020-11-03_20h36.52.303,analogCatScenes,2020.1.3,Win32,60,"[1500,1000]","[[[-0.005,-0.202],[-0.005,-0.202],[-0.005,-0.202],[-0.005,-0.202],[-0.005,-0.202],[-0.005,-0.2015],[-0.003,-0.2015],[-0.0015,-0.2015],[0.005,-0.1995],[0.0185,-0.1975],[0.043,-0.1935],[0.081,-0.188],[0.1275,-0.1825],[0.1785,-0.176],[0.2405,-0.168],[0.2605,-0.164],[0.2775,-0.1595],[0.295,-0.1555],[0.317,-0.151],[0.336,-0.147]]]",1,[20],,,,,,,,,,,,,,bar8.jpg,space,1.361205,0,11,11,15,1,bambooforest4.jpg,cafeteria5.jpg,bleachers8.jpg,cabinIndoors.jpg,,
Image_List_5,,,,,,,,,,,,,,,,44532,2020-11-03_20h36.52.303,analogCatScenes,2020.1.3,Win32,60,"[1500,1000]","[[[0.006,-0.195],[0.004,-0.195],[-0.0005,-0.195],[-0.005,-0.195],[-0.014,-0.195],[-0.0225,-0.194],[-0.0335,-0.192],[-0.0485,-0.19],[-0.07,-0.189],[-0.094,-0.187],[-0.122,-0.1855],[-0.1385,-0.1845],[-0.155,-0.1815],[-0.1715,-0.1785],[-0.1825,-0.1765],[-0.1935,-0.1755],[-0.196,-0.175],[-0.198,-0.175],[-0.198,-0.175],[-0.198,-0.175],[-0.198,-0.175]],[[0.0045,-0.1995],[0.0045,-0.1995],[0.0045,-0.1995],[0.0045,-0.1995],[0.0045,-0.1995],[0.0045,-0.1995],[0.012,-0.1975],[0.056,-0.195],[0.1145,-0.19],[0.1855,-0.19],[0.2095,-0.19],[0.215,-0.19],[0.215,-0.19],[0.215,-0.19],[0.215,-0.19],[0.215,-0.19],[0.2155,-0.19]]]",2,"[21,17]",,,,,,,,,,,,,,ATM4.jpg,space,2.072385,0,12,12,10,1,backstage2.jpg,barbershop3.jpg,ballroom4.jpg,basketballcourt3.jpg,,
Image_List_5,,,,,,,,,,,,,,,,44532,2020-11-03_20h36.52.303,analogCatScenes,2020.1.3,Win32,60,"[1500,1000]","[[[-0.0075,-0.1915],[-0.0115,-0.1885],[-0.0215,-0.185],[-0.0355,-0.181],[-0.052,-0.1765],[-0.0795,-0.1705],[-0.0945,-0.1665],[-0.1085,-0.1635],[-0.121,-0.1605],[-0.134,-0.1565],[-0.1495,-0.1525],[-0.162,-0.1475],[-0.1785,-0.141],[-0.183,-0.139],[-0.1895,-0.1345],[-0.1935,-0.1315],[-0.1985,-0.1235],[-0.204,-0.1155],[-0.2095,-0.1085],[-0.212,-0.1055],[-0.2125,-0.1045],[-0.213,-0.1045],[-0.213,-0.1045],[-0.213,-0.1045],[-0.213,-0.1045],[-0.213,-0.1045]],[[-0.007,-0.201],[-0.0065,-0.201],[-0.006,-0.201],[-0.006,-0.201],[-0.0045,-0.2005],[-0.0025,-0.2005],[0.0085,-0.1995],[0.026,-0.1985],[0.0525,-0.1975],[0.093,-0.196],[0.137,-0.196],[0.1855,-0.1965],[0.2,-0.1975],[0.21,-0.1985],[0.215,-0.1985],[0.217,-0.1985],[0.2175,-0.1985],[0.2175,-0.1985],[0.2175,-0.199],[0.2175,-0.199]]]",2,"[26,20]",,,,,,,,,,,,,,hospitalroom3.jpg,space,2.216595,0,13,13,68,1,liquorstore7.jpg,parkinglot.jpg,lightingstore4.jpg,lockerroom2.jpg,,
Image_List_5,,,,,,,,,,,,,,,,44532,2020-11-03_20h36.52.303,analogCatScenes,2020.1.3,Win32,60,"[1500,1000]","[[[0.0015,-0.201],[0.0015,-0.199],[0.0015,-0.1965],[0.0035,-0.194],[0.0065,-0.191],[0.0095,-0.1865],[0.0125,-0.18],[0.0165,-0.1735],[0.027,-0.1615],[0.034,-0.1545],[0.0415,-0.147],[0.0485,-0.1395],[0.0525,-0.134],[0.059,-0.1255],[0.064,-0.1165],[0.0695,-0.1065],[0.0725,-0.102],[0.076,-0.0955],[0.078,-0.091],[0.079,-0.089],[0.079,-0.087],[0.079,-0.0865],[0.0785,-0.086],[0.0775,-0.0855]],[[-0.0065,-0.1975],[-0.0065,-0.1975],[-0.0065,-0.197],[-0.0065,-0.1965],[-0.0065,-0.195],[-0.0045,-0.192],[-0.0015,-0.188],[0.002,-0.1815],[0.0045,-0.176],[0.007,-0.1705],[0.0075,-0.167],[0.0085,-0.163],[0.01,-0.159],[0.0105,-0.1565],[0.012,-0.154],[0.014,-0.151],[0.0155,-0.147],[0.0155,-0.1445],[0.014,-0.1425],[0.011,-0.141],[0.009,-0.139],[0.006,-0.137],[0.0025,-0.134],[-0.0025,-0.1295],[-0.0055,-0.127],[-0.008,-0.1245],[-0.0125,-0.122],[-0.0155,-0.1205],[-0.016,-0.12],[-0.0165,-0.12],[-0.017,-0.12],[-0.0175,-0.12],[-0.019,-0.12],[-0.0195,-0.12],[-0.02,-0.12],[-0.02,-0.12],[-0.02,-0.12],[-0.02,-0.1205]],[[0.007,-0.2035],[0.0045,-0.204],[0.003,-0.2045],[0.001,-0.2045],[-0.001,-0.2045],[-0.006,-0.2045],[-0.016,-0.2065],[-0.031,-0.2095],[-0.061,-0.215],[-0.0825,-0.219],[-0.0925,-0.221],[-0.0955,-0.222],[-0.097,-0.2225],[-0.1,-0.2225],[-0.104,-0.224],[-0.1145,-0.226],[-0.1165,-0.227],[-0.1165,-0.227],[-0.1165,-0.227],[-0.1165,-0.2275],[-0.1165,-0.2275]],[[0.0065,-0.2065],[0.0075,-0.206],[0.0075,-0.206],[0.0075,-0.206],[0.0075,-0.206],[0.009,-0.206],[0.014,-0.207],[0.0345,-0.211],[0.108,-0.22],[0.1805,-0.2265],[0.237,-0.2315],[0.267,-0.235],[0.2765,-0.236],[0.277,-0.2365],[0.277,-0.2365],[0.277,-0.2365],[0.277,-0.2365],[0.277,-0.2375],[0.277,-0.2375]]]",4,"[24,38,21,19]",,,,,,,,,,,,,,bridalboutique3.jpg,space,3.97838,0,14,14,29,1,cornfield2.jpg,deck2.jpg,cliff2.jpg,constructionSite4.jpg,,
Image_List_5,,,,,,,,,,,,,,,,44532,2020-11-03_20h36.52.303,analogCatScenes,2020.1.3,Win32,60,"[1500,1000]","[[[-0.0125,-0.193],[-0.012,-0.193],[-0.0115,-0.193],[-0.011,-0.193],[-0.0105,-0.193],[-0.008,-0.193],[-0.007,-0.193],[0.004,-0.193],[0.0175,-0.19],[0.037,-0.1835],[0.055,-0.176],[0.077,-0.1695],[0.103,-0.1615],[0.125,-0.154],[0.149,-0.1455],[0.159,-0.142],[0.164,-0.139],[0.1665,-0.136],[0.1695,-0.133],[0.1725,-0.1305],[0.174,-0.1275],[0.175,-0.125],[0.1755,-0.123],[0.177,-0.1205],[0.178,-0.1165],[0.178,-0.114],[0.177,-0.112],[0.175,-0.11],[0.1725,-0.1075],[0.1705,-0.106],[0.1685,-0.1035],[0.1655,-0.1005],[0.1605,-0.096],[0.156,-0.093],[0.1505,-0.09],[0.145,-0.087],[0.1415,-0.0855],[0.138,-0.0825],[0.135,-0.08],[0.131,-0.0755],[0.1285,-0.073],[0.128,-0.0715],[0.1275,-0.0705],[0.1255,-0.0685],[0.124,-0.0675],[0.1225,-0.067],[0.122,-0.0665],[0.1205,-0.0655],[0.119,-0.065]]]",1,[49],,,,,,,,,,,,,,jewelrystore.jpg,space,8.659975,0,15,15,71,1,metroInside2.jpg,pavilion5.jpg,metroInside3.jpg,museum3.jpg,,
Image_List_5,,,,,,,,,,,,,,,,44532,2020-11-03_20h36.52.303,analogCatScenes,2020.1.3,Win32,60,"[1500,1000]","[[[-0.001,-0.1955],[-0.0015,-0.1955],[-0.0015,-0.195],[-0.0015,-0.195],[-0.0015,-0.1935],[-0.0015,-0.192],[-0.003,-0.189],[-0.005,-0.1855],[-0.0065,-0.177],[-0.0085,-0.1655],[-0.0115,-0.153],[-0.0175,-0.131],[-0.0195,-0.1145],[-0.024,-0.098],[-0.028,-0.0815],[-0.031,-0.065],[-0.033,-0.0485],[-0.035,-0.032],[-0.036,-0.016],[-0.039,-0.002],[-0.044,0.015],[-0.0465,0.0225],[-0.049,0.029],[-0.0515,0.0355],[-0.054,0.0445],[-0.055,0.054],[-0.0555,0.0595],[-0.0555,0.063],[-0.0565,0.065],[-0.0565,0.0655],[-0.0565,0.0655],[-0.0565,0.0655],[-0.0565,0.067],[-0.057,0.068],[-0.057,0.069],[-0.0575,0.07],[-0.0575,0.0715],[-0.0575,0.0725]]]",1,[38],,,,,,,,,,,,,,basketballcourt.jpg,space,1.678545,0,16,16,19,1,boardwalk2.jpg,casino3.jpg,cafeteria1.jpg,castle4.jpg,,
Image_List_5,,,,,,,,,,,,,,,,44532,2020-11-03_20h36.52.303,analogCatScenes,2020.1.3,Win32,60,"[1500,1000]","[[[-0.003,-0.1955],[-0.003,-0.1955],[-0.003,-0.1955],[-0.003,-0.1955],[-0.003,-0.1955],[-0.001,-0.1975],[0.0045,-0.201],[0.019,-0.2085],[0.0355,-0.215],[0.0535,-0.219],[0.0885,-0.2235],[0.115,-0.2235],[0.1415,-0.2235],[0.1645,-0.2195],[0.19,-0.215],[0.217,-0.2085],[0.2385,-0.204],[0.2585,-0.196],[0.2645,-0.19],[0.2705,-0.1805],[0.275,-0.169],[0.282,-0.1555],[0.292,-0.1385],[0.299,-0.124],[0.302,-0.1115],[0.306,-0.1],[0.3065,-0.0845],[0.304,-0.077],[0.301,-0.0725],[0.2995,-0.069],[0.298,-0.066],[0.2975,-0.064],[0.2965,-0.0625],[0.2955,-0.0615],[0.2935,-0.0595]],[[-0.006,-0.209],[-0.006,-0.2095],[-0.0055,-0.2095],[-0.0055,-0.2095],[-0.0055,-0.2095],[-0.0055,-0.209],[-0.0055,-0.209],[-0.0055,-0.209],[-0.0055,-0.209],[-0.0065,-0.209],[-0.0155,-0.212],[-0.0295,-0.216],[-0.0595,-0.2225],[-0.085,-0.227],[-0.115,-0.2315],[-0.1355,-0.236],[-0.1445,-0.2375],[-0.147,-0.2385],[-0.148,-0.2385],[-0.1485,-0.239],[-0.1485,-0.239],[-0.1485,-0.239],[-0.1485,-0.239],[-0.1485,-0.2395],[-0.1485,-0.2395]]]",2,"[35,25]",,,,,,,,,,,,,,cabinIndoors5.jpg,space,2.762995,0,17,17,33,1,deck1.jpg,diningroom1.jpg,courthouse2.jpg,diner10.jpg,,
Image_List_5,,,,,,,,,,,,,,,,44532,2020-11-03_20h36.52.303,analogCatScenes,2020.1.3,Win32,60,"[1500,1000]","[[[-0.0035,-0.2065],[-0.0035,-0.2065],[-0.0035,-0.2065],[-0.0005,-0.207],[0.0025,-0.2075],[0.0135,-0.2075],[0.0295,-0.207],[0.0525,-0.205],[0.086,-0.2015],[0.106,-0.1985],[0.1275,-0.195],[0.147,-0.191],[0.162,-0.187],[0.175,-0.183],[0.184,-0.1795],[0.191,-0.1755],[0.201,-0.162],[0.208,-0.15],[0.214,-0.1385],[0.22,-0.1265],[0.2245,-0.115],[0.2285,-0.1045],[0.23,-0.097],[0.233,-0.0915],[0.2335,-0.089],[0.2335,-0.086],[0.2335,-0.085],[0.2335,-0.085],[0.2325,-0.085]]]",1,[29],,,,,,,,,,,,,,applestore2.jpg,space,4.08489,0,18,18,7,1,attic2.jpg,banquetHall4.jpg,backstage1.jpg,baggageClaim3.jpg,,
Image_List_5,,,,,,,,,,,,,,,,44532,2020-11-03_20h36.52.303,analogCatScenes,2020.1.3,Win32,60,"[1500,1000]","[[[-0.008,-0.198],[-0.008,-0.198],[-0.008,-0.198],[-0.008,-0.198],[-0.008,-0.198],[-0.008,-0.198],[-0.008,-0.198],[-0.008,-0.1975],[-0.008,-0.195],[-0.008,-0.1915],[-0.0115,-0.1825],[-0.015,-0.1735],[-0.019,-0.162],[-0.026,-0.1395],[-0.036,-0.1215],[-0.0455,-0.104],[-0.054,-0.087],[-0.058,-0.0705],[-0.058,-0.0545],[-0.058,-0.0385],[-0.058,-0.025],[-0.063,-0.008],[-0.0665,0.0035],[-0.0705,0.014],[-0.074,0.0205],[-0.077,0.027],[-0.0785,0.0325],[-0.0795,0.035],[-0.08,0.04],[-0.08,0.0425],[-0.08,0.0435],[-0.08,0.0435],[-0.08,0.0435],[-0.08,0.0435]]]",1,[34],,,,,,,,,,,,,,tenniscourt.jpg,space,1.837825,0,19,19,93,1,tollbooth8.jpg,volleyballcourt4.jpg,staircase4.jpg,warehouseoutside2.jpg,,
Image_List_5,,,,,,,,,,,,,,,,44532,2020-11-03_20h36.52.303,analogCatScenes,2020.1.3,Win32,60,"[1500,1000]","[[[-0.005,-0.198],[-0.005,-0.198],[-0.005,-0.1965],[-0.0055,-0.195],[-0.007,-0.192],[-0.0075,-0.1895],[-0.0075,-0.1845],[-0.0075,-0.171],[-0.01,-0.1365],[-0.0155,-0.1095],[-0.0255,-0.0775],[-0.0325,-0.048],[-0.0355,-0.0225],[-0.037,0.0025],[-0.038,0.0295],[-0.038,0.043],[-0.0385,0.0495],[-0.0385,0.0525],[-0.0385,0.054],[-0.0385,0.0555],[-0.0385,0.057],[-0.0385,0.0595],[-0.0385,0.0605],[-0.0385,0.0605],[-0.0385,0.0605]]]",1,[25],,,,,,,,,,,,,,readingroom2.jpg,space,1.055135,0,20,20,83,1,readingroom1.jpg,sculpturegarden1.jpg,promenadeDeck6.jpg,restaurant8.jpg,,
Image_List_5,,,,,,,,,,,,,,,,44532,2020-11-03_20h36.52.303,analogCatScenes,2020.1.3,Win32,60,"[1500,1000]","[[[0.0055,-0.2035],[0.0055,-0.2035],[0.0055,-0.2035],[0.0055,-0.2035],[0.0055,-0.2035],[0.0055,-0.2025],[0.0055,-0.202],[0.002,-0.1915],[-0.0005,-0.179],[-0.006,-0.1625],[-0.0155,-0.144],[-0.0265,-0.1255],[-0.0395,-0.1085],[-0.052,-0.0945],[-0.077,-0.0705],[-0.0945,-0.0565],[-0.1095,-0.0435],[-0.1245,-0.031],[-0.1365,-0.0195],[-0.143,-0.0125],[-0.145,-0.01],[-0.1465,-0.0085],[-0.147,-0.008],[-0.147,-0.008],[-0.1475,-0.008],[-0.1475,-0.008],[-0.1475,-0.008]],[[-0.0025,-0.189],[-0.0025,-0.189],[-0.0025,-0.189],[-0.0025,-0.189],[-0.0025,-0.189],[-0.0025,-0.189],[-0.0015,-0.187],[0.0005,-0.1785],[0.0055,-0.155],[0.0085,-0.1385],[0.013,-0.122],[0.021,-0.106],[0.034,-0.0915],[0.0455,-0.0775],[0.058,-0.064],[0.0685,-0.0505],[0.076,-0.04],[0.081,-0.0315],[0.083,-0.0295],[0.0835,-0.0295],[0.0835,-0.0295],[0.0835,-0.0295],[0.0835,-0.029],[0.083,-0.0285]],[[-0.002,-0.1925],[-0.002,-0.1925],[-0.002,-0.1925],[-0.002,-0.1925],[-0.002,-0.1905],[-0.002,-0.1865],[-0.002,-0.1795],[-0.002,-0.1685],[-0.0025,-0.156],[-0.0035,-0.1425],[-0.0045,-0.126],[-0.0045,-0.115],[-0.0045,-0.1055],[-0.004,-0.096],[-0.002,-0.086],[0,-0.075],[0.0005,-0.0625],[0.0035,-0.047],[0.005,-0.0425],[0.005,-0.04],[0.005,-0.039],[0.003,-0.036],[0.0015,-0.035],[0.0005,-0.034],[0,-0.0315],[-0.0015,-0.0285],[-0.0015,-0.0255]]]",3,"[27,24,27]",,,,,,,,,,,,,,cabin3.jpg,space,3.671345,0,21,21,31,1,cubicle4.jpg,desertvegetation6.jpg,conference4.jpg,courtroom2.jpg,,
Image_List_5,,,,,,,,,,,,,,,,44532,2020-11-03_20h36.52.303,analogCatScenes,2020.1.3,Win32,60,"[1500,1000]","[[[-0.007,-0.194],[-0.007,-0.194],[-0.007,-0.194],[-0.007,-0.194],[-0.005,-0.192],[-0.001,-0.1785],[0.002,-0.157],[0.0065,-0.1315],[0.011,-0.106],[0.015,-0.088],[0.0195,-0.0725],[0.0265,-0.0515],[0.0325,-0.0345],[0.0415,-0.014],[0.049,0.0045],[0.054,0.021],[0.059,0.0325],[0.065,0.043],[0.0675,0.0455],[0.069,0.0485],[0.07,0.051],[0.0705,0.054],[0.072,0.0565],[0.0725,0.0585],[0.073,0.06],[0.073,0.0615],[0.073,0.0615],[0.073,0.0615],[0.073,0.0605]],[[-0.0025,-0.1935],[-0.0025,-0.1945],[-0.002,-0.1945],[-0.0005,-0.195],[0.0005,-0.195],[0.003,-0.196],[0.008,-0.1975],[0.023,-0.1995],[0.046,-0.204],[0.091,-0.2085],[0.1245,-0.21],[0.1485,-0.211],[0.1645,-0.211],[0.171,-0.2105],[0.173,-0.21],[0.174,-0.21],[0.1745,-0.21],[0.1745,-0.21],[0.1745,-0.21]],[[-0.004,-0.2035],[-0.004,-0.2025],[-0.005,-0.202],[-0.0105,-0.1995],[-0.029,-0.1935],[-0.053,-0.19],[-0.085,-0.1865],[-0.114,-0.1845],[-0.1485,-0.1805],[-0.174,-0.1775],[-0.193,-0.173],[-0.2075,-0.169],[-0.2175,-0.1655],[-0.2235,-0.1615],[-0.2265,-0.16],[-0.2285,-0.1595],[-0.2295,-0.159],[-0.23,-0.1585]]]",3,"[29,19,18]",,,,,,,,,,,,,,trainStation3.jpg,space,2.856415,0,22,22,94,1,treehouse.jpg,waitingroom3.jpg,staircase6.jpg,weightroom.jpg,,
Image_List_5,,,,,,,,,,,,,,,,44532,2020-11-03_20h36.52.303,analogCatScenes,2020.1.3,Win32,60,"[1500,1000]","[[[0.001,-0.1945],[0.001,-0.1945],[0.001,-0.1945],[0.001,-0.1945],[0.001,-0.193],[0.002,-0.1795],[0.003,-0.1545],[0.0025,-0.1305],[0.0025,-0.1105],[0.0025,-0.096],[0.005,-0.0845],[0.0065,-0.0705],[0.0075,-0.0595],[0.0075,-0.0495],[0.0075,-0.0425],[0.0085,-0.0385],[0.0085,-0.0365],[0.0085,-0.036],[0.0085,-0.036],[0.0085,-0.036],[0.0085,-0.036]],[[0.0035,-0.1985],[0.0035,-0.198],[0.0035,-0.198],[0.0035,-0.198],[0.0035,-0.198],[0.0045,-0.197],[0.0175,-0.1925],[0.046,-0.1815],[0.083,-0.168],[0.1245,-0.153],[0.1605,-0.1465],[0.168,-0.145],[0.1695,-0.145],[0.1695,-0.145],[0.1695,-0.145],[0.1695,-0.145],[0.1695,-0.145]],[[-0.007,-0.204],[-0.007,-0.204],[-0.007,-0.204],[-0.007,-0.204],[-0.007,-0.204],[-0.0075,-0.2035],[-0.012,-0.2005],[-0.021,-0.195],[-0.038,-0.1865],[-0.0775,-0.171],[-0.1295,-0.1555],[-0.1715,-0.141],[-0.188,-0.135],[-0.197,-0.13],[-0.199,-0.128],[-0.2005,-0.1275],[-0.2015,-0.1275]]]",3,"[21,17,17]",,,,,,,,,,,,,,yogastudio1.jpg,space,4.57267,0,23,23,99,1,wineVineyard9.jpg,yogastudio4.jpg,windmill2.jpg,wrestlingring7.jpg,,
Image_List_5,,,,,,,,,,,,,,,,44532,2020-11-03_20h36.52.303,analogCatScenes,2020.1.3,Win32,60,"[1500,1000]","[[[0.006,-0.1955],[0.0035,-0.195],[0.0015,-0.194],[-0.002,-0.191],[-0.01,-0.1855],[-0.0235,-0.174],[-0.0455,-0.148],[-0.0625,-0.1275],[-0.091,-0.0955],[-0.1295,-0.0585],[-0.1635,-0.024],[-0.196,0.004],[-0.224,0.0245],[-0.239,0.0395],[-0.257,0.0615],[-0.2665,0.074],[-0.2695,0.0805],[-0.2725,0.084],[-0.2755,0.087],[-0.2765,0.089],[-0.277,0.09],[-0.2775,0.0905],[-0.2775,0.091]],[[-0.004,-0.2025],[-0.004,-0.2025],[-0.004,-0.202],[-0.004,-0.202],[-0.004,-0.202],[-0.0005,-0.202],[0.083,-0.196],[0.1765,-0.1885],[0.2725,-0.1825]]]",2,"[23,9]",,,,,,,,,,,,,,grocerystore3.jpg,space,9.59069,0,24,24,59,1,homegarden7.jpg,library_aisle8.jpg,highway4.jpg,kindergarten_classroom5.jpg,,
Image_List_5,,,,,,,,,,,,,,,,44532,2020-11-03_20h36.52.303,analogCatScenes,2020.1.3,Win32,60,"[1500,1000]","[[[0,-0.199],[0,-0.199],[-0.0025,-0.198],[-0.007,-0.1955],[-0.019,-0.1885],[-0.0515,-0.1655],[-0.1125,-0.119],[-0.1995,-0.0555],[-0.348,0.042]],[[-0.005,-0.196],[-0.005,-0.196],[-0.005,-0.196],[-0.0045,-0.196],[0.0035,-0.194],[0.0555,-0.177],[0.1375,-0.151],[0.223,-0.1165],[0.2975,-0.0755]]]",2,"[9,9]",,,,,,,,,,,,,,hospitalroom2.jpg,space,3.022975,0,25,25,67,1,library_aisle3.jpg,park7.jpg,laundromat4.jpg,liquorstore2.jpg,,
Image_List_5,,,,,,,,,,,,,,,,44532,2020-11-03_20h36.52.303,analogCatScenes,2020.1.3,Win32,60,"[1500,1000]","[[[0.001,-0.202],[0.001,-0.202],[0.001,-0.2015],[0.0025,-0.201],[0.005,-0.1985],[0.013,-0.194],[0.0235,-0.1875],[0.0385,-0.1755],[0.057,-0.159],[0.076,-0.1415],[0.1,-0.115],[0.114,-0.0975],[0.1275,-0.0805],[0.139,-0.0645],[0.1485,-0.051],[0.153,-0.038],[0.1575,-0.0225],[0.1625,-0.002],[0.168,0.0135],[0.174,0.0345],[0.1775,0.0445],[0.179,0.051],[0.18,0.054],[0.18,0.055],[0.18,0.0555],[0.18,0.0555],[0.18,0.056],[0.1785,0.0575],[0.1765,0.0585],[0.1755,0.0585]],[[-0.0055,-0.1885],[-0.0055,-0.1895],[-0.005,-0.1895],[-0.005,-0.1895],[-0.005,-0.1895],[-0.005,-0.1895],[-0.005,-0.1895],[-0.006,-0.189],[-0.01,-0.1865],[-0.0205,-0.1745],[-0.034,-0.1545],[-0.0495,-0.1285],[-0.0625,-0.112],[-0.0685,-0.1005],[-0.074,-0.0885],[-0.083,-0.071],[-0.091,-0.0615],[-0.1015,-0.0525],[-0.1085,-0.047],[-0.1125,-0.0435],[-0.115,-0.0405],[-0.1175,-0.0375],[-0.1195,-0.035],[-0.1215,-0.0325],[-0.1215,-0.0325],[-0.122,-0.0325],[-0.122,-0.0325],[-0.122,-0.0325],[-0.1225,-0.0325],[-0.1225,-0.0325],[-0.1225,-0.0325],[-0.123,-0.032]]]",2,"[30,32]",,,,,,,,,,,,,,parkinggarage4.jpg,space,4.00453,0,26,26,80,1,pavilion2.jpg,racecarcourse2.jpg,porch.jpg,poolhall5.jpg,,
Image_List_5,,,,,,,,,,,,,,,,44532,2020-11-03_20h36.52.303,analogCatScenes,2020.1.3,Win32,60,"[1500,1000]","[[[0,-0.198],[0,-0.198],[0,-0.198],[0,-0.198],[0,-0.197],[0.0015,-0.1945],[0.012,-0.184],[0.031,-0.165],[0.0495,-0.1415],[0.0745,-0.1145],[0.1055,-0.082],[0.121,-0.0655],[0.133,-0.054],[0.143,-0.0445],[0.152,-0.0325],[0.1615,-0.0175],[0.166,-0.0085],[0.168,-0.0055],[0.169,-0.005],[0.1695,-0.004],[0.171,-0.002],[0.174,0],[0.177,0.003],[0.179,0.0055],[0.181,0.0085],[0.182,0.0095],[0.1825,0.01],[0.1825,0.01],[0.1825,0.01]],[[0,-0.1975],[0,-0.197],[0,-0.197],[0,-0.197],[0.004,-0.197],[0.017,-0.197],[0.0435,-0.197],[0.083,-0.196],[0.129,-0.196],[0.1705,-0.196],[0.2075,-0.1945],[0.221,-0.1945],[0.2255,-0.1935],[0.2255,-0.1935],[0.227,-0.1935],[0.227,-0.1935],[0.227,-0.1935],[0.227,-0.1935],[0.2275,-0.1935]]]",2,"[29,19]",,,,,,,,,,,,,,icecream2.jpg,space,2.78537,0,27,27,69,1,liquorstore8.jpg,parkinglot2.jpg,livingroom.jpg,metroInside1.jpg,,
Image_List_5,,,,,,,,,,,,,,,,44532,2020-11-03_20h36.52.303,analogCatScenes,2020.1.3,Win32,60,"[1500,1000]","[[[0.0025,-0.1935],[0.0025,-0.1935],[0.0025,-0.1935],[0.0025,-0.1935],[0.003,-0.194],[0.018,-0.196],[0.034,-0.196],[0.053,-0.194],[0.077,-0.192],[0.1035,-0.19],[0.1275,-0.1875],[0.152,-0.183],[0.171,-0.181],[0.1915,-0.178],[0.2025,-0.176],[0.2135,-0.1755],[0.226,-0.1735],[0.2315,-0.1725],[0.234,-0.171],[0.237,-0.17],[0.2395,-0.167],[0.245,-0.1625],[0.2485,-0.157],[0.253,-0.149],[0.257,-0.139],[0.2605,-0.1285],[0.2615,-0.1225],[0.2635,-0.119],[0.265,-0.116],[0.265,-0.113],[0.2635,-0.11],[0.2605,-0.108]],[[0.003,-0.1985],[0.003,-0.1985],[0.003,-0.1985],[-0.0015,-0.1985],[-0.0075,-0.1985],[-0.0215,-0.199],[-0.035,-0.199],[-0.0535,-0.199],[-0.0735,-0.1975],[-0.0915,-0.1945],[-0.1035,-0.1945],[-0.107,-0.1945],[-0.1165,-0.193],[-0.126,-0.192],[-0.1385,-0.19],[-0.1545,-0.189],[-0.1685,-0.188],[-0.1795,-0.186],[-0.191,-0.183],[-0.2025,-0.1805],[-0.226,-0.174],[-0.244,-0.17],[-0.2605,-0.166],[-0.277,-0.1615],[-0.291,-0.1575],[-0.3025,-0.154],[-0.314,-0.15],[-0.3185,-0.1475],[-0.32,-0.1465],[-0.32,-0.146],[-0.32,-0.144],[-0.315,-0.14],[-0.303,-0.132],[-0.2835,-0.1155],[-0.2745,-0.111],[-0.2705,-0.108],[-0.268,-0.1075],[-0.266,-0.107],[-0.2645,-0.107],[-0.26,-0.104]]]",2,"[32,40]",,,,,,,,,,,,,,sculpturegarden3.jpg,space,3.063575,0,28,28,89,1,ruralroad7.jpg,track5.jpg,ShowJumping7.jpg,staircase7.jpg,,
Image_List_5,,,,,,,,,,,,,,,,44532,2020-11-03_20h36.52.303,analogCatScenes,2020.1.3,Win32,60,"[1500,1000]","[[[-0.004,-0.202],[-0.004,-0.202],[-0.004,-0.202],[-0.004,-0.202],[-0.0035,-0.202],[0,-0.2005],[0.0065,-0.199],[0.02,-0.196],[0.038,-0.193],[0.0595,-0.19],[0.088,-0.1855],[0.122,-0.1775],[0.132,-0.174],[0.1385,-0.1725],[0.142,-0.17],[0.147,-0.1685],[0.156,-0.166],[0.1735,-0.16],[0.177,-0.157],[0.18,-0.1545],[0.1825,-0.1515],[0.1855,-0.1485],[0.189,-0.1395],[0.194,-0.127],[0.2015,-0.111],[0.2075,-0.0995],[0.211,-0.089],[0.2145,-0.08],[0.2145,-0.076],[0.214,-0.0695],[0.2125,-0.062],[0.2105,-0.0555],[0.2065,-0.05],[0.2035,-0.0455],[0.2005,-0.0415],[0.1975,-0.038],[0.1945,-0.0335],[0.186,-0.025],[0.181,-0.019],[0.1725,-0.0095],[0.17,-0.007],[0.162,0],[0.158,0.004],[0.1555,0.0065],[0.154,0.0095],[0.152,0.012],[0.1505,0.015],[0.1495,0.0175],[0.149,0.0195],[0.148,0.021],[0.148,0.0215],[0.1475,0.022],[0.1475,0.022],[0.1475,0.022],[0.1475,0.022],[0.1475,0.022]],[[-0.006,-0.195],[-0.006,-0.195],[-0.0055,-0.195],[-0.0045,-0.1955],[-0.0035,-0.1955],[-0.001,-0.1955],[0.0035,-0.1965],[0.0095,-0.1965],[0.0255,-0.1965],[0.052,-0.1955],[0.082,-0.1945],[0.12,-0.1935],[0.1455,-0.1925],[0.1735,-0.19],[0.2,-0.189],[0.223,-0.1855],[0.2455,-0.1835],[0.2665,-0.1785],[0.27,-0.1785],[0.27,-0.1785],[0.27,-0.1785],[0.27,-0.1785],[0.27,-0.1785]]]",2,"[56,23]",,,,,,,,,,,,,,farm2.jpg,space,3.32772,0,29,29,49,1,frontDoor3.jpg,greenhouse5.jpg,flowershop3.jpg,greenhouse.jpg,,
Image_List_5,,,,,,,,,,,,,,,,44532,2020-11-03_20h36.52.303,analogCatScenes,2020.1.3,Win32,60,"[1500,1000]","[[[0.003,-0.1985],[0.003,-0.1985],[0.003,-0.198],[0.003,-0.1975],[0.003,-0.1965],[0.002,-0.1925],[0.002,-0.19],[0.0035,-0.1825],[0.003,-0.1705],[0.001,-0.1525],[-0.0005,-0.135],[-0.0025,-0.119],[-0.0035,-0.1025],[-0.0065,-0.0755],[-0.0095,-0.059],[-0.0135,-0.0415],[-0.017,-0.025],[-0.021,-0.0095],[-0.0245,0.0005],[-0.0245,0.004],[-0.0245,0.006],[-0.0245,0.0075],[-0.0245,0.0075],[-0.0245,0.0075],[-0.0245,0.007]],[[0.011,-0.2015],[0.0125,-0.2015],[0.013,-0.2015],[0.013,-0.2015],[0.013,-0.2015],[0.013,-0.2015],[0.0135,-0.2],[0.0135,-0.197],[0.019,-0.1775],[0.0255,-0.1605],[0.034,-0.1425],[0.046,-0.125],[0.059,-0.108],[0.0725,-0.0865],[0.094,-0.064],[0.1165,-0.0425],[0.1575,-0.0105],[0.1765,0.006],[0.1925,0.02],[0.204,0.031],[0.211,0.0365],[0.2145,0.0395],[0.216,0.04],[0.216,0.04],[0.216,0.04],[0.2155,0.04]],[[-0.006,-0.197],[-0.0095,-0.193],[-0.013,-0.189],[-0.019,-0.1785],[-0.026,-0.164],[-0.037,-0.1455],[-0.05,-0.1185],[-0.067,-0.087],[-0.0835,-0.058],[-0.0965,-0.029],[-0.1005,-0.015],[-0.104,-0.007],[-0.106,-0.004],[-0.106,-0.003],[-0.1065,-0.003],[-0.1065,-0.003],[-0.1065,-0.003],[-0.1065,-0.003]],[[-0.0025,-0.2015],[-0.0025,-0.2015],[-0.0025,-0.2005],[-0.005,-0.1995],[-0.0065,-0.199],[-0.0095,-0.198],[-0.0135,-0.1965],[-0.0215,-0.194],[-0.0385,-0.1885],[-0.054,-0.1835],[-0.0695,-0.179],[-0.086,-0.174],[-0.1015,-0.17],[-0.1165,-0.166],[-0.131,-0.161],[-0.157,-0.1535],[-0.1735,-0.1495],[-0.1865,-0.1455],[-0.191,-0.143],[-0.193,-0.1425],[-0.194,-0.141],[-0.1985,-0.139],[-0.2045,-0.136],[-0.211,-0.1325],[-0.2165,-0.1295],[-0.22,-0.127],[-0.224,-0.126],[-0.226,-0.125],[-0.2265,-0.1245],[-0.229,-0.1225],[-0.231,-0.1215],[-0.2335,-0.12],[-0.234,-0.1195],[-0.234,-0.1195],[-0.234,-0.1195],[-0.233,-0.12],[-0.2255,-0.1225],[-0.2185,-0.1245]],[[-0.003,-0.198],[-0.003,-0.198],[-0.0025,-0.198],[-0.001,-0.198],[0.0005,-0.198],[0.004,-0.1995],[0.0115,-0.2],[0.0185,-0.201],[0.029,-0.2005],[0.0395,-0.199],[0.0535,-0.197],[0.0685,-0.194],[0.085,-0.191],[0.1015,-0.1875],[0.125,-0.1815],[0.139,-0.1775],[0.152,-0.1735],[0.1635,-0.17],[0.17,-0.168],[0.1735,-0.167],[0.176,-0.166],[0.178,-0.1655],[0.18,-0.164],[0.1855,-0.162],[0.193,-0.1585],[0.202,-0.156],[0.2175,-0.152],[0.235,-0.1475],[0.2515,-0.1435],[0.2645,-0.1395],[0.2765,-0.136],[0.281,-0.1345],[0.2845,-0.1325],[0.2875,-0.1305],[0.289,-0.13],[0.289,-0.129],[0.289,-0.129],[0.289,-0.129],[0.289,-0.129],[0.289,-0.129],[0.289,-0.129],[0.289,-0.129],[0.289,-0.129],[0.289,-0.129],[0.289,-0.129],[0.289,-0.129]]]",5,"[25,26,18,38,46]",,,,,,,,,,,,,,rooftop4.jpg,space,7.321455,0,30,30,86,1,restaurant14.jpg,stripmall.jpg,ruralroad3.jpg,sandDunes_desert_outdoor8.jpg,,
Image_List_5,,,,,,,,,,,,,,,,44532,2020-11-03_20h36.52.303,analogCatScenes,2020.1.3,Win32,60,"[1500,1000]","[[[-0.0035,-0.194],[-0.0035,-0.1935],[-0.0035,-0.1935],[-0.0035,-0.1935],[-0.0035,-0.1935],[-0.0035,-0.193],[-0.0055,-0.191],[-0.01,-0.187],[-0.0185,-0.1785],[-0.0275,-0.1665],[-0.0355,-0.1545],[-0.046,-0.142],[-0.0585,-0.13],[-0.0745,-0.1135],[-0.0795,-0.1085],[-0.0895,-0.097],[-0.097,-0.0875],[-0.1075,-0.076],[-0.1155,-0.064],[-0.124,-0.0535],[-0.133,-0.0445],[-0.139,-0.0375],[-0.145,-0.0315],[-0.148,-0.028],[-0.151,-0.024],[-0.155,-0.0185],[-0.1595,-0.0105],[-0.1625,-0.005],[-0.1705,0.0075],[-0.1745,0.013],[-0.1795,0.02],[-0.184,0.0265],[-0.1865,0.0295],[-0.1895,0.0325],[-0.19,0.034],[-0.1905,0.0345],[-0.1905,0.0345],[-0.192,0.035],[-0.192,0.036],[-0.192,0.036],[-0.192,0.036],[-0.192,0.036],[-0.192,0.036],[-0.192,0.036],[-0.192,0.036],[-0.192,0.036],[-0.192,0.036],[-0.192,0.036],[-0.192,0.036]],[[-0.0015,-0.197],[-0.0015,-0.1965],[-0.001,-0.1965],[-0.001,-0.1965],[0.0005,-0.1965],[0.003,-0.1965],[0.009,-0.1965],[0.017,-0.1965],[0.0305,-0.199],[0.046,-0.203],[0.064,-0.207],[0.083,-0.2095],[0.099,-0.2115],[0.122,-0.2135],[0.1435,-0.2155],[0.1675,-0.2175],[0.188,-0.2185],[0.2025,-0.2185],[0.212,-0.2185],[0.2175,-0.2185],[0.22,-0.2185],[0.224,-0.218],[0.229,-0.2155],[0.237,-0.212],[0.2415,-0.209],[0.244,-0.2085],[0.2455,-0.208],[0.246,-0.207],[0.2465,-0.207],[0.2465,-0.207],[0.2465,-0.207],[0.2465,-0.207],[0.2465,-0.207]]]",2,"[49,33]",,,,,,,,,,,,,,arcade2.jpg,space,5.201545,0,31,31,9,1,auto_showroom3.jpg,bar2.jpg,ballroom2.jpg,basement5.jpg,,
Image_List_5,,,,,,,,,,,,,,,,44532,2020-11-03_20h36.52.303,analogCatScenes,2020.1.3,Win32,60,"[1500,1000]","[[[0.0025,-0.2055],[0.0025,-0.205],[0.0025,-0.2045],[0.0025,-0.204],[0.0035,-0.2035],[0.0055,-0.2025],[0.0075,-0.1985],[0.012,-0.191],[0.024,-0.174],[0.033,-0.1605],[0.0485,-0.143],[0.0665,-0.123],[0.09,-0.103],[0.1075,-0.0855],[0.124,-0.069],[0.139,-0.055],[0.17,-0.0305],[0.189,-0.0165],[0.206,-0.0035],[0.2185,0.008],[0.2235,0.013],[0.2255,0.016],[0.2285,0.02],[0.2305,0.023],[0.2335,0.0255],[0.236,0.0285],[0.2385,0.032],[0.2395,0.034],[0.24,0.0345],[0.24,0.0345],[0.24,0.0345],[0.24,0.0345],[0.239,0.0345],[0.2365,0.0345],[0.2275,0.031]],[[-0.0015,-0.2],[-0.0025,-0.199],[-0.005,-0.1985],[-0.0085,-0.1965],[-0.0115,-0.1935],[-0.015,-0.1905],[-0.0255,-0.185],[-0.051,-0.17],[-0.083,-0.156],[-0.1305,-0.1395],[-0.17,-0.1235],[-0.187,-0.1175],[-0.1885,-0.116],[-0.1895,-0.1155],[-0.1895,-0.114],[-0.188,-0.112],[-0.1855,-0.11]]]",2,"[35,17]",,,,,,,,,,,,,,hayfield6.jpg,space,4.92778,0,32,32,61,1,HorseRaceTrack.jpg,metroInside4.jpg,homegarden6.jpg,kindergarten_classroom7.jpg,,
Image_List_5,,,,,,,,,,,,,,,,44532,2020-11-03_20h36.52.303,analogCatScenes,2020.1.3,Win32,60,"[1500,1000]","[[[-0.0035,-0.193],[-0.0035,-0.1925],[-0.0035,-0.192],[-0.0035,-0.19],[-0.003,-0.1875],[-0.0005,-0.184],[0.0085,-0.1745],[0.0245,-0.1615],[0.048,-0.143],[0.085,-0.1215],[0.1295,-0.0985],[0.1795,-0.07],[0.2025,-0.0565],[0.2245,-0.043],[0.246,-0.0295],[0.2645,-0.0175],[0.279,-0.0105],[0.2895,-0.007],[0.2945,-0.0025],[0.2955,0.0005],[0.298,0.003],[0.2985,0.0035],[0.2985,0.0035],[0.2985,0.0035],[0.2985,0.0035],[0.2965,0.0035],[0.29,0.0035]],[[-0.008,-0.202],[-0.008,-0.2015],[-0.008,-0.2],[-0.0095,-0.198],[-0.015,-0.189],[-0.025,-0.177],[-0.0405,-0.1595],[-0.0595,-0.1415],[-0.0815,-0.1205],[-0.1105,-0.097],[-0.1345,-0.0775],[-0.166,-0.054],[-0.183,-0.0425],[-0.198,-0.032],[-0.21,-0.024],[-0.218,-0.0185],[-0.2215,-0.0155],[-0.2245,-0.0125],[-0.226,-0.0115],[-0.2265,-0.0115],[-0.2265,-0.0115],[-0.2265,-0.0115],[-0.2265,-0.0115]]]",2,"[27,23]",,,,,,,,,,,,,,baseball6.jpg,space,2.958565,0,33,33,17,1,bikerack1.jpg,campsite6.jpg,breakroom4.jpg,carmechanic.jpg,,
Image_List_5,,,,,,,,,,,,,,,,44532,2020-11-03_20h36.52.303,analogCatScenes,2020.1.3,Win32,60,"[1500,1000]","[[[0.0055,-0.1975],[0.0055,-0.197],[0.0055,-0.197],[0.0055,-0.197],[0.0055,-0.197],[0.006,-0.1965],[0.0065,-0.196],[0.007,-0.1945],[0.0235,-0.1825],[0.0495,-0.163],[0.071,-0.1435],[0.1,-0.117],[0.1175,-0.1015],[0.1375,-0.087],[0.156,-0.074],[0.177,-0.063],[0.191,-0.058],[0.199,-0.0545],[0.1995,-0.054],[0.2,-0.054],[0.2,-0.054],[0.2005,-0.0535],[0.2025,-0.052],[0.203,-0.0515],[0.2035,-0.0515],[0.2035,-0.0515],[0.2035,-0.0515],[0.2025,-0.0515]],[[-0.0075,-0.193],[-0.007,-0.193],[-0.007,-0.1925],[-0.007,-0.1925],[-0.007,-0.1915],[-0.0095,-0.1895],[-0.019,-0.183],[-0.0325,-0.1705],[-0.0575,-0.1515],[-0.079,-0.138],[-0.1095,-0.1225],[-0.14,-0.107],[-0.174,-0.0895],[-0.2065,-0.0675],[-0.238,-0.051],[-0.2655,-0.0375],[-0.284,-0.029],[-0.3,-0.022],[-0.3045,-0.019],[-0.3075,-0.017],[-0.3095,-0.015],[-0.311,-0.0145],[-0.311,-0.0145],[-0.311,-0.014],[-0.312,-0.014],[-0.312,-0.014],[-0.312,-0.014],[-0.312,-0.014],[-0.312,-0.014],[-0.3125,-0.014],[-0.3125,-0.014]],[[-0.0035,-0.198],[-0.0035,-0.198],[-0.0035,-0.198],[-0.0035,-0.198],[-0.0035,-0.198],[-0.003,-0.198],[-0.0015,-0.198],[0.002,-0.1995],[0.012,-0.204],[0.03,-0.2095],[0.059,-0.2165],[0.089,-0.2215],[0.122,-0.225],[0.15,-0.2285],[0.1685,-0.2295],[0.1875,-0.2305],[0.201,-0.2305],[0.206,-0.2305],[0.208,-0.2305],[0.208,-0.2305],[0.208,-0.2305],[0.208,-0.2305],[0.2075,-0.2305],[0.206,-0.2305],[0.2005,-0.228]],[[-0.0005,-0.1925],[-0.0005,-0.1925],[-0.0005,-0.1925],[-0.0005,-0.1925],[-0.0005,-0.1925],[0,-0.1915],[0.0005,-0.191],[0.0025,-0.1885],[0.0075,-0.178],[0.013,-0.1685],[0.0205,-0.1615],[0.031,-0.1535],[0.048,-0.1415],[0.061,-0.1335],[0.077,-0.125],[0.095,-0.1165],[0.1175,-0.1055],[0.1385,-0.0955],[0.154,-0.086],[0.1775,-0.068],[0.1895,-0.059],[0.199,-0.052],[0.204,-0.048],[0.208,-0.045],[0.211,-0.0405],[0.2135,-0.038],[0.218,-0.0335],[0.2205,-0.031],[0.223,-0.028],[0.225,-0.025],[0.2265,-0.0215],[0.2295,-0.018],[0.23,-0.0155],[0.23,-0.011],[0.23,-0.0075],[0.2285,-0.0035],[0.2255,0],[0.222,0.003],[0.2165,0.006],[0.21,0.0095],[0.1995,0.013],[0.186,0.0185],[0.173,0.0225],[0.1565,0.0265],[0.1465,0.0305],[0.1425,0.032],[0.1415,0.032],[0.1415,0.032],[0.1415,0.032],[0.1415,0.032],[0.1415,0.032],[0.1415,0.032],[0.141,0.032],[0.141,0.032],[0.141,0.0315],[0.141,0.031]]]",4,"[28,31,25,56]",,,,,,,,,,,,,,airportTerminal2.jpg,space,6.290585,0,34,34,1,1,airportTerminal4.jpg,apartmentBuilding1.jpg,applestore1.jpg,airportTerminal3.jpg,,
Image_List_5,,,,,,,,,,,,,,,,44532,2020-11-03_20h36.52.303,analogCatScenes,2020.1.3,Win32,60,"[1500,1000]","[[[-0.003,-0.1955],[-0.003,-0.1955],[-0.003,-0.1955],[-0.003,-0.1955],[-0.003,-0.195],[-0.001,-0.1895],[0.003,-0.1765],[0.007,-0.1615],[0.009,-0.149],[0.0125,-0.132],[0.0165,-0.1205],[0.0205,-0.105],[0.0255,-0.087],[0.031,-0.0705],[0.035,-0.0565],[0.039,-0.045],[0.0415,-0.028],[0.0415,-0.021],[0.0415,-0.014],[0.0405,-0.0055],[0.0385,0.0035],[0.038,0.0085],[0.037,0.011],[0.037,0.0125],[0.0365,0.014],[0.0365,0.016],[0.0365,0.0165],[0.0365,0.017],[0.0365,0.017],[0.0365,0.017],[0.0365,0.017],[0.036,0.017],[0.036,0.016]],[[0.0025,-0.195],[0.002,-0.195],[0.002,-0.195],[0.002,-0.195],[0.002,-0.195],[0.0025,-0.193],[0.0125,-0.1755],[0.024,-0.149],[0.0375,-0.121],[0.0485,-0.1015],[0.054,-0.0855],[0.0555,-0.079],[0.0565,-0.0735],[0.0585,-0.0685],[0.062,-0.061],[0.0645,-0.052],[0.0685,-0.0405],[0.0735,-0.0295],[0.076,-0.0265],[0.0765,-0.0255],[0.0765,-0.0255],[0.0765,-0.0255],[0.077,-0.0255],[0.077,-0.0255],[0.077,-0.0255],[0.078,-0.025],[0.08,-0.024],[0.0825,-0.0235],[0.087,-0.022],[0.091,-0.0205],[0.094,-0.02],[0.0965,-0.02],[0.1035,-0.019],[0.107,-0.019],[0.109,-0.0185],[0.1105,-0.0185],[0.1115,-0.0185],[0.1125,-0.0185],[0.113,-0.0185],[0.113,-0.0185],[0.1135,-0.0185],[0.1145,-0.018],[0.116,-0.0175]],[[0.0015,-0.1925],[0.001,-0.1925],[-0.0005,-0.1925],[-0.0015,-0.193],[-0.004,-0.1935],[-0.004,-0.1945],[-0.0045,-0.1945],[-0.0045,-0.1945],[-0.0045,-0.1945],[-0.005,-0.194],[-0.006,-0.193],[-0.008,-0.1885],[-0.012,-0.1735],[-0.0155,-0.1475],[-0.0155,-0.1315],[-0.0155,-0.1155],[-0.0125,-0.1005],[-0.0125,-0.087],[-0.0125,-0.076],[-0.0125,-0.06],[-0.013,-0.0525],[-0.0145,-0.048],[-0.016,-0.0455],[-0.0175,-0.0425],[-0.0185,-0.04],[-0.0185,-0.038],[-0.0205,-0.0355],[-0.022,-0.0325],[-0.024,-0.0275],[-0.0255,-0.025],[-0.0275,-0.022],[-0.0305,-0.0195],[-0.035,-0.0165],[-0.0415,-0.013],[-0.0525,-0.008],[-0.0605,-0.0045],[-0.065,-0.002],[-0.068,0],[-0.0695,0.0005],[-0.07,0.0005],[-0.07,0.0005],[-0.07,0.0005],[-0.07,0.0005],[-0.07,0.0005],[-0.07,0.0005],[-0.07,0.0005],[-0.07,-0.0005]],[[-0.002,-0.2025],[-0.002,-0.2025],[-0.002,-0.2025],[-0.0005,-0.2025],[0.002,-0.2035],[0.0035,-0.2045],[0.0095,-0.209],[0.0155,-0.212],[0.022,-0.2155],[0.026,-0.2185],[0.032,-0.222],[0.0415,-0.231],[0.0535,-0.24],[0.063,-0.2455],[0.0685,-0.249]]]",4,"[33,43,47,15]",,,,,,,,,,,,,,lookout4.jpg,space,5.855195,0,35,35,76,1,parkinggarage.jpg,playroom4.jpg,parkinggarage3.jpg,park2.jpg,,
Image_List_5,,,,,,,,,,,,,,,,44532,2020-11-03_20h36.52.303,analogCatScenes,2020.1.3,Win32,60,"[1500,1000]","[[[0,-0.188],[0,-0.188],[0,-0.188],[0,-0.1875],[0,-0.187],[0.0025,-0.1825],[0.006,-0.172],[0.012,-0.155],[0.0155,-0.1445],[0.0195,-0.133],[0.023,-0.1225],[0.027,-0.111],[0.0305,-0.101],[0.034,-0.092],[0.0375,-0.085],[0.0395,-0.0805],[0.0405,-0.0765],[0.04,-0.074],[0.038,-0.072],[0.0345,-0.069],[0.03,-0.066],[0.0225,-0.0625],[0.01,-0.0575],[0.0055,-0.0545],[0.002,-0.0525],[0.0005,-0.051],[0,-0.051],[0,-0.051],[0,-0.051],[0,-0.051]],[[0.002,-0.2025],[0.002,-0.202],[0.002,-0.2015],[0.0045,-0.2015],[0.0125,-0.198],[0.0245,-0.191],[0.0405,-0.1785],[0.0575,-0.1655],[0.0805,-0.1505],[0.111,-0.1355],[0.154,-0.1145],[0.1775,-0.1045],[0.196,-0.0945],[0.2135,-0.0815],[0.227,-0.069],[0.238,-0.058],[0.2465,-0.0505],[0.253,-0.045],[0.255,-0.0435],[0.256,-0.043],[0.256,-0.0425],[0.2565,-0.042],[0.2565,-0.0415],[0.257,-0.0415],[0.257,-0.04],[0.258,-0.0395],[0.258,-0.0395]],[[-0.0035,-0.1985],[-0.0035,-0.1985],[-0.0035,-0.1985],[-0.0035,-0.1985],[-0.0035,-0.1985],[-0.0035,-0.1985],[0.0005,-0.1985],[0.015,-0.199],[0.038,-0.2005],[0.0775,-0.2045],[0.147,-0.213],[0.195,-0.2175],[0.2265,-0.22],[0.2425,-0.22],[0.2485,-0.22],[0.2505,-0.22],[0.2505,-0.22],[0.2505,-0.22],[0.2505,-0.22],[0.2505,-0.22]]]",3,"[30,27,20]",,,,,,,,,,,,,,lightingstore2.jpg,space,4.004775,0,36,36,74,1,newsstand2.jpg,playground10.jpg,observatory4.jpeg,operatingroom1.jpg,,
Image_List_5,,,,,,,,,,,,,,,,44532,2020-11-03_20h36.52.303,analogCatScenes,2020.1.3,Win32,60,"[1500,1000]","[[[0.0065,-0.2025],[0.0065,-0.2025],[0.006,-0.2025],[0.006,-0.2025],[0.006,-0.202],[0.0055,-0.202],[0.0055,-0.202],[0.0055,-0.201],[0.0055,-0.2],[0.0045,-0.1975],[0.002,-0.192],[-0.005,-0.175],[-0.012,-0.1605],[-0.018,-0.1435],[-0.029,-0.118],[-0.043,-0.092],[-0.0575,-0.064],[-0.072,-0.038],[-0.0895,0.002],[-0.1035,0.028],[-0.1175,0.052],[-0.1295,0.073],[-0.139,0.0915],[-0.1455,0.1045],[-0.1485,0.112],[-0.1515,0.115],[-0.152,0.117],[-0.153,0.1175],[-0.153,0.118],[-0.1535,0.118],[-0.1535,0.1185],[-0.1535,0.1185],[-0.1535,0.1185]],[[-0.008,-0.1935],[-0.008,-0.1935],[-0.008,-0.193],[-0.008,-0.193],[-0.008,-0.193],[-0.008,-0.193],[-0.008,-0.193],[-0.008,-0.193],[-0.008,-0.1925],[-0.008,-0.1915],[-0.0005,-0.175],[0.0085,-0.153],[0.0215,-0.126],[0.0325,-0.1025],[0.042,-0.0855],[0.051,-0.073],[0.0685,-0.058],[0.081,-0.0455],[0.093,-0.0355],[0.1055,-0.0215],[0.118,-0.008],[0.127,0.003],[0.1325,0.011],[0.139,0.018],[0.1405,0.019],[0.143,0.022],[0.1475,0.028],[0.1505,0.0315],[0.1535,0.0355],[0.156,0.038],[0.1585,0.041],[0.161,0.044],[0.1655,0.049],[0.1675,0.051],[0.1685,0.0515],[0.1685,0.0515],[0.1685,0.0515],[0.1685,0.0515],[0.1685,0.0515],[0.1685,0.051],[0.1675,0.0495],[0.1645,0.046]],[[-0.005,-0.194],[-0.005,-0.194],[-0.005,-0.194],[-0.005,-0.194],[-0.005,-0.194],[-0.005,-0.194],[-0.005,-0.194],[-0.0005,-0.1925],[0.014,-0.182],[0.05,-0.1525],[0.0815,-0.119],[0.1145,-0.0835],[0.1415,-0.0535],[0.1595,-0.0345],[0.172,-0.021],[0.187,-0.006],[0.1895,-0.003],[0.192,-0.0005],[0.1925,0],[0.1925,0.0005],[0.1925,0.0005],[0.1925,0.0005],[0.1925,0.0005],[0.1925,0.0005]],[[-0.0035,-0.2005],[-0.0035,-0.2005],[-0.0035,-0.1995],[-0.0035,-0.1985],[-0.0055,-0.198],[-0.009,-0.196],[-0.0155,-0.1935],[-0.027,-0.1895],[-0.0435,-0.1855],[-0.0625,-0.181],[-0.0935,-0.178],[-0.1175,-0.177],[-0.14,-0.176],[-0.1785,-0.1745],[-0.233,-0.1745],[-0.2935,-0.176],[-0.324,-0.177],[-0.3385,-0.177],[-0.339,-0.177],[-0.339,-0.177],[-0.339,-0.177],[-0.339,-0.177],[-0.3385,-0.177],[-0.336,-0.1755]],[[-0.0005,-0.2055],[-0.0005,-0.2055],[-0.0005,-0.2055],[-0.0005,-0.2055],[0,-0.206],[0.0025,-0.209],[0.006,-0.2155],[0.009,-0.222],[0.012,-0.231],[0.018,-0.2435],[0.021,-0.247],[0.0215,-0.249],[0.0225,-0.2495],[0.0225,-0.25],[0.0225,-0.25],[0.0225,-0.25],[0.0225,-0.25],[0.0225,-0.25]]]",5,"[33,42,24,24,18]",,,,,,,,,,,,,,frontLawn2.jpg,space,8.870695,0,37,37,55,1,greenmountains.jpg,hotelRoom3.jpg,gazebo5.jpg,hotelRoom7.jpg,,
Image_List_5,,,,,,,,,,,,,,,,44532,2020-11-03_20h36.52.303,analogCatScenes,2020.1.3,Win32,60,"[1500,1000]","[[[0.002,-0.1955],[0.002,-0.1955],[0.002,-0.1955],[0.002,-0.1955],[0.002,-0.1955],[0.002,-0.1955],[0.002,-0.1955],[0.002,-0.1955],[0.002,-0.1955],[0.002,-0.1955],[0.002,-0.1955],[0.002,-0.1955],[0.002,-0.195],[0.002,-0.195],[0.0025,-0.1945],[0.0045,-0.1925],[0.0055,-0.1895],[0.007,-0.187],[0.0105,-0.182],[0.0135,-0.1765],[0.0165,-0.173],[0.0195,-0.1685],[0.0195,-0.166],[0.0195,-0.163],[0.0185,-0.1605],[0.0175,-0.1575],[0.016,-0.1545],[0.014,-0.152],[0.011,-0.149],[0.0075,-0.146],[0.001,-0.143],[-0.0105,-0.139],[-0.0245,-0.135],[-0.052,-0.1285],[-0.0735,-0.1245],[-0.099,-0.12],[-0.1245,-0.1155],[-0.1515,-0.111],[-0.1665,-0.11],[-0.171,-0.109],[-0.171,-0.109],[-0.1715,-0.109],[-0.1715,-0.109],[-0.1715,-0.109],[-0.1715,-0.1095],[-0.1715,-0.1095]],[[-0.003,-0.1965],[-0.0005,-0.197],[0.002,-0.197],[0.0045,-0.197],[0.0085,-0.1975],[0.011,-0.1975],[0.0145,-0.199],[0.023,-0.2005],[0.0395,-0.204],[0.0635,-0.207],[0.0935,-0.2095],[0.1385,-0.212],[0.1865,-0.215],[0.2385,-0.2165],[0.2625,-0.2165],[0.2745,-0.2165],[0.2765,-0.217],[0.2785,-0.217],[0.279,-0.217],[0.2795,-0.217],[0.28,-0.217],[0.282,-0.217],[0.2835,-0.217],[0.284,-0.2165],[0.284,-0.2165]]]",2,"[46,25]",,,,,,,,,,,,,,bistrooutdoor6.jpg,space,3.131225,0,38,38,22,1,bowlingalley5.jpg,church6.jpg,cargo5.jpg,cemetery.jpg,,
Image_List_5,,,,,,,,,,,,,,,,44532,2020-11-03_20h36.52.303,analogCatScenes,2020.1.3,Win32,60,"[1500,1000]","[[[0.0025,-0.1955],[0.0025,-0.1955],[0.0025,-0.1955],[0.0025,-0.1955],[0.0025,-0.1955],[0.0025,-0.195],[0.0025,-0.195],[0.0035,-0.195],[0.0085,-0.195],[0.026,-0.193],[0.0615,-0.189],[0.1105,-0.1835],[0.1595,-0.1775],[0.193,-0.1725],[0.227,-0.166],[0.2385,-0.162],[0.25,-0.158],[0.2545,-0.155],[0.258,-0.1525],[0.2605,-0.1495],[0.2625,-0.1475],[0.2625,-0.1475],[0.263,-0.147],[0.265,-0.145],[0.2675,-0.1415],[0.2695,-0.1395],[0.2705,-0.138],[0.2705,-0.138],[0.2695,-0.1375]],[[-0.0025,-0.2005],[-0.0025,-0.2005],[-0.006,-0.2],[-0.02,-0.1985],[-0.0365,-0.1965],[-0.0555,-0.194],[-0.0755,-0.191],[-0.1025,-0.1865],[-0.1375,-0.1815],[-0.1615,-0.177],[-0.1835,-0.173],[-0.201,-0.1685],[-0.2275,-0.1625],[-0.244,-0.158],[-0.2605,-0.154],[-0.272,-0.15],[-0.281,-0.1475],[-0.2855,-0.145],[-0.2885,-0.1425],[-0.2945,-0.138],[-0.3015,-0.131],[-0.309,-0.1225],[-0.3115,-0.118],[-0.3145,-0.115],[-0.3175,-0.1125],[-0.318,-0.1095],[-0.3185,-0.108]],[[0.0005,-0.1955],[0.0005,-0.195],[0.0005,-0.195],[0.0005,-0.194],[0.0005,-0.1925],[0.0005,-0.1875],[0.002,-0.171],[0.004,-0.16],[0.005,-0.149],[0.0045,-0.139],[0.002,-0.1315],[-0.0005,-0.128],[-0.0025,-0.125],[-0.004,-0.1225],[-0.005,-0.1195],[-0.007,-0.1155],[-0.008,-0.113],[-0.0085,-0.111]]]",3,"[29,27,18]",,,,,,,,,,,,,,gazebo.jpg,space,5.60456,0,39,39,57,1,hayfield5.jpg,jail1.jpg,hallway4.jpg,hut5.jpg,,
Image_List_5,,,,,,,,,,,,,,,,44532,2020-11-03_20h36.52.303,analogCatScenes,2020.1.3,Win32,60,"[1500,1000]","[[[0.0065,-0.1965],[0.0065,-0.196],[0.0065,-0.196],[0.0065,-0.196],[0.0065,-0.1955],[0.008,-0.195],[0.0195,-0.193],[0.041,-0.189],[0.068,-0.1845],[0.1055,-0.1775],[0.1325,-0.1755],[0.155,-0.1735],[0.179,-0.172],[0.2005,-0.169],[0.226,-0.1665],[0.249,-0.1645],[0.268,-0.1625],[0.279,-0.1605],[0.2875,-0.16],[0.291,-0.159],[0.294,-0.1585],[0.2965,-0.158],[0.299,-0.1565],[0.3005,-0.156],[0.3025,-0.1545],[0.304,-0.1535],[0.306,-0.1515],[0.3065,-0.148],[0.3075,-0.14],[0.307,-0.1315],[0.306,-0.127],[0.3055,-0.1245],[0.304,-0.1225],[0.3,-0.118],[0.2985,-0.1165]],[[-0.0065,-0.197],[-0.0065,-0.1965],[-0.0065,-0.1965],[-0.0075,-0.1965],[-0.012,-0.1965],[-0.02,-0.1965],[-0.032,-0.1965],[-0.0455,-0.1965],[-0.0655,-0.1965],[-0.0975,-0.1965],[-0.116,-0.1965],[-0.1325,-0.198],[-0.15,-0.2005],[-0.1675,-0.2015],[-0.1835,-0.2025],[-0.1945,-0.2025],[-0.2005,-0.2025],[-0.205,-0.202],[-0.2195,-0.202],[-0.2305,-0.201],[-0.2415,-0.2],[-0.25,-0.2],[-0.2535,-0.1995],[-0.2535,-0.1995],[-0.254,-0.1995],[-0.254,-0.1995],[-0.254,-0.1995]]]",2,"[35,27]",,,,,,,,,,,,,,fireplace4.jpg,space,2.953855,0,40,40,50,1,frontLawn4.jpg,grocerystore6.jpg,forestpath6.jpg,hallway2.jpg,,
Image_List_5,,,,,,,,,,,,,,,,44532,2020-11-03_20h36.52.303,analogCatScenes,2020.1.3,Win32,60,"[1500,1000]","[[[0.0025,-0.2035],[0.003,-0.2035],[0.003,-0.2035],[0.003,-0.2035],[0.0035,-0.2035],[0.009,-0.2025],[0.0215,-0.1985],[0.037,-0.1935],[0.0595,-0.1835],[0.089,-0.17],[0.1445,-0.145],[0.1755,-0.1295],[0.1995,-0.1155],[0.218,-0.1045],[0.2335,-0.0985],[0.245,-0.0925],[0.2605,-0.0875],[0.2785,-0.08],[0.3015,-0.0695],[0.3105,-0.065],[0.3125,-0.063],[0.3125,-0.063],[0.3125,-0.063],[0.312,-0.063]],[[-0.01,-0.202],[-0.01,-0.202],[-0.01,-0.202],[-0.01,-0.2005],[-0.0145,-0.2005],[-0.029,-0.199],[-0.057,-0.1955],[-0.119,-0.189],[-0.207,-0.1835],[-0.284,-0.18],[-0.328,-0.174],[-0.3495,-0.171]]]",2,"[24,12]",,,,,,,,,,,,,,bleachers6.jpg,space,1.891735,0,41,41,23,1,bus_shelter.jpg,church8.jpg,carmechanic4.jpeg,cemetery3.jpg,,
Image_List_5,,,,,,,,,,,,,,,,44532,2020-11-03_20h36.52.303,analogCatScenes,2020.1.3,Win32,60,"[1500,1000]","[[[-0.0075,-0.1995],[-0.009,-0.1985],[-0.0135,-0.1955],[-0.0225,-0.192],[-0.0395,-0.187],[-0.0665,-0.1765],[-0.108,-0.1555],[-0.1855,-0.118],[-0.247,-0.0945],[-0.29,-0.0765],[-0.3135,-0.065],[-0.325,-0.059],[-0.329,-0.0555],[-0.3335,-0.0515],[-0.3395,-0.0455],[-0.345,-0.0415]]]",1,[16],,,,,,,,,,,,,,winebarrel2.jpg,space,1.52008,0,42,42,98,1,weightroom5.jpg,wineVineyard8.jpg,warehouse3.jpg,winebarrel4.jpg,,
Image_List_5,,,,,,,,,,,,,,,,44532,2020-11-03_20h36.52.303,analogCatScenes,2020.1.3,Win32,60,"[1500,1000]","[[[-0.0005,-0.1975],[-0.0005,-0.197],[-0.0005,-0.197],[-0.0005,-0.197],[0,-0.197],[0.0015,-0.1965],[0.0095,-0.1925],[0.0575,-0.1775],[0.116,-0.1555],[0.1665,-0.137],[0.206,-0.1225],[0.222,-0.117],[0.225,-0.115],[0.2275,-0.1135],[0.2305,-0.111],[0.2375,-0.1045],[0.2455,-0.0925],[0.2495,-0.0825],[0.2495,-0.074],[0.244,-0.061],[0.222,-0.035],[0.209,-0.02],[0.203,-0.007],[0.1985,0.0045],[0.1935,0.0165],[0.1875,0.0335],[0.183,0.0465],[0.1775,0.063],[0.1735,0.08],[0.1715,0.0935],[0.1685,0.105],[0.167,0.111],[0.1655,0.1175],[0.164,0.122],[0.162,0.126],[0.1605,0.129],[0.16,0.1305],[0.1595,0.132]]]",1,[38],,,,,,,,,,,,,,botanicalGarden7.jpg,space,1.45955,0,43,43,26,1,campusquad2.jpg,cornfield4.jpg,church4.jpg,churchInside3.jpg,,
Image_List_5,,,,,,,,,,,,,,,,44532,2020-11-03_20h36.52.303,analogCatScenes,2020.1.3,Win32,60,"[1500,1000]","[[[0.002,-0.1945],[0.002,-0.1945],[0.002,-0.194],[0.002,-0.1935],[0.003,-0.1935],[0.009,-0.1895],[0.0275,-0.1785],[0.064,-0.1625],[0.105,-0.1435],[0.1445,-0.1225],[0.1515,-0.1155],[0.1545,-0.1125],[0.155,-0.11],[0.155,-0.109],[0.156,-0.1075]],[[0.0005,-0.201],[-0.0015,-0.201],[-0.0045,-0.2005],[-0.009,-0.2],[-0.0185,-0.198],[-0.031,-0.196],[-0.05,-0.193],[-0.0755,-0.191],[-0.102,-0.191],[-0.163,-0.197],[-0.201,-0.201],[-0.225,-0.2055],[-0.24,-0.2085],[-0.25,-0.2095],[-0.253,-0.2095]],[[0.0045,-0.201],[0.0045,-0.201],[0.0045,-0.201],[0.0045,-0.201],[0.0045,-0.201],[0.0045,-0.201],[0.006,-0.201],[0.015,-0.201],[0.042,-0.2],[0.094,-0.2],[0.151,-0.2],[0.2055,-0.2055],[0.236,-0.208],[0.247,-0.209],[0.2475,-0.209],[0.2475,-0.209],[0.248,-0.209],[0.251,-0.2075]]]",3,"[15,15,18]",,,,,,,,,,,,,,gasstation2.jpg,space,4.104305,0,44,44,56,1,grocerystore5.jpg,hut3.jpg,golfcourse10.jpg,hut1.jpg,,
Image_List_5,,,,,,,,,,,,,,,,44532,2020-11-03_20h36.52.303,analogCatScenes,2020.1.3,Win32,60,"[1500,1000]","[[[-0.001,-0.2],[-0.001,-0.2],[-0.001,-0.2],[-0.001,-0.2],[-0.001,-0.2],[-0.001,-0.1985],[0.002,-0.1905],[0.007,-0.179],[0.0125,-0.1625],[0.0165,-0.1485],[0.02,-0.1365],[0.023,-0.128],[0.0245,-0.1225],[0.0275,-0.118],[0.032,-0.1115],[0.0355,-0.1075],[0.0385,-0.102],[0.042,-0.0945],[0.0455,-0.0875],[0.047,-0.084],[0.049,-0.0815],[0.0495,-0.0785],[0.051,-0.0755],[0.0515,-0.0745],[0.0515,-0.0735],[0.052,-0.073],[0.052,-0.072],[0.052,-0.071],[0.052,-0.0695]],[[-0.0075,-0.1975],[-0.0095,-0.1975],[-0.0105,-0.197],[-0.0115,-0.197],[-0.014,-0.196],[-0.0165,-0.1955],[-0.023,-0.194],[-0.034,-0.191],[-0.047,-0.187],[-0.065,-0.183],[-0.0825,-0.18],[-0.1035,-0.176],[-0.116,-0.174],[-0.126,-0.172],[-0.136,-0.1695],[-0.1485,-0.1655],[-0.1665,-0.1625],[-0.185,-0.1615],[-0.205,-0.1615],[-0.216,-0.1615],[-0.219,-0.162],[-0.219,-0.1625]],[[0.0025,-0.1995],[0.003,-0.1995],[0.004,-0.1995],[0.005,-0.1995],[0.0075,-0.199],[0.017,-0.199],[0.034,-0.199],[0.053,-0.199],[0.07,-0.199],[0.0865,-0.199],[0.089,-0.199],[0.092,-0.199],[0.0945,-0.199],[0.0975,-0.199],[0.1005,-0.199],[0.102,-0.199],[0.1035,-0.199],[0.1035,-0.199],[0.1035,-0.199],[0.1035,-0.199]],[[-0.0055,-0.206],[-0.0075,-0.206],[-0.01,-0.206],[-0.015,-0.206],[-0.0225,-0.2085],[-0.034,-0.212],[-0.0505,-0.2165],[-0.066,-0.2225],[-0.0765,-0.2265],[-0.081,-0.2285],[-0.083,-0.229],[-0.0835,-0.23],[-0.084,-0.23]]]",4,"[29,22,20,13]",,,,,,,,,,,,,,cabin4.jpg,space,5.510295,0,45,45,32,1,dancestudio6.jpg,diner12.jpg,constructionSite2.jpg,dentist4.jpg,,
Image_List_5,,,,,,,,,,,,,,,,44532,2020-11-03_20h36.52.303,analogCatScenes,2020.1.3,Win32,60,"[1500,1000]","[[[0.001,-0.19],[0.001,-0.19],[0.0015,-0.19],[0.002,-0.19],[0.003,-0.1905],[0.0055,-0.192],[0.0085,-0.193],[0.0135,-0.1945],[0.026,-0.1965],[0.0495,-0.1985],[0.068,-0.1995],[0.092,-0.1995],[0.1185,-0.1995],[0.146,-0.199],[0.173,-0.197],[0.2025,-0.1935],[0.231,-0.19],[0.255,-0.1855],[0.273,-0.1815],[0.289,-0.176],[0.292,-0.172],[0.295,-0.1685],[0.2965,-0.163],[0.2965,-0.159],[0.2965,-0.153],[0.3005,-0.141],[0.303,-0.133],[0.3055,-0.1305],[0.3065,-0.1285],[0.3065,-0.128],[0.3065,-0.128],[0.304,-0.128]],[[-0.006,-0.2],[-0.006,-0.1995],[-0.006,-0.199],[-0.0075,-0.199],[-0.0105,-0.198],[-0.0195,-0.1975],[-0.033,-0.1965],[-0.052,-0.1955],[-0.077,-0.1955],[-0.1035,-0.1945],[-0.133,-0.1945],[-0.1645,-0.1905],[-0.211,-0.185],[-0.2445,-0.18],[-0.297,-0.1735],[-0.316,-0.1705],[-0.33,-0.1675],[-0.3355,-0.165],[-0.339,-0.1625],[-0.3425,-0.1595],[-0.3455,-0.1575],[-0.3475,-0.155]]]",2,"[32,22]",,,,,,,,,,,,,,fountain.jpg,space,3.987545,0,46,46,53,1,gazebo3.jpg,homeoffice.jpg,frontLawn3.jpg,homegarage3.jpg,,
Image_List_5,,,,,,,,,,,,,,,,44532,2020-11-03_20h36.52.303,analogCatScenes,2020.1.3,Win32,60,"[1500,1000]","[[[0.004,-0.204],[0.004,-0.204],[0.004,-0.204],[0.004,-0.2035],[0.004,-0.203],[0.004,-0.2005],[0,-0.1925],[-0.0045,-0.182],[-0.014,-0.165],[-0.0195,-0.1485],[-0.0225,-0.132],[-0.0235,-0.1185],[-0.0265,-0.1055],[-0.0285,-0.0945],[-0.0345,-0.0735],[-0.0385,-0.057],[-0.0415,-0.0455],[-0.043,-0.0375],[-0.043,-0.035],[-0.043,-0.033],[-0.043,-0.033],[-0.043,-0.033],[-0.043,-0.033],[-0.043,-0.033],[-0.043,-0.033],[-0.043,-0.033]],[[0,-0.2005],[0,-0.2005],[0,-0.2005],[0,-0.2005],[0,-0.2005],[0,-0.201],[0.0095,-0.203],[0.037,-0.206],[0.092,-0.2075],[0.169,-0.2095],[0.2045,-0.2095],[0.2205,-0.2095],[0.222,-0.2095],[0.222,-0.2095],[0.222,-0.2095],[0.222,-0.21]],[[-0.0085,-0.2015],[-0.0085,-0.201],[-0.0085,-0.201],[-0.009,-0.201],[-0.01,-0.2],[-0.0185,-0.1995],[-0.0425,-0.1995],[-0.095,-0.202],[-0.1775,-0.211],[-0.208,-0.2125],[-0.2195,-0.212],[-0.2205,-0.212],[-0.2205,-0.212],[-0.2205,-0.212]],[[-0.003,-0.2075],[-0.003,-0.2075],[-0.003,-0.2075],[-0.003,-0.2075],[-0.002,-0.2075],[-0.0015,-0.2075],[-0.0005,-0.209],[0.001,-0.211],[0.0015,-0.2135],[0.0015,-0.216],[0.002,-0.2195],[0.002,-0.222],[0.003,-0.225],[0.0035,-0.2285],[0.0035,-0.23],[0.004,-0.2315],[0.004,-0.232],[0.004,-0.233],[0.004,-0.233],[0.004,-0.2335]]]",4,"[26,16,14,20]",,,,,,,,,,,,,,carmechanic2.jpg,space,3.860295,0,47,47,35,1,deck5.jpg,dock3.jpg,cubicle7.jpg,dining_car6.jpg,,
Image_List_5,,,,,,,,,,,,,,,,44532,2020-11-03_20h36.52.303,analogCatScenes,2020.1.3,Win32,60,"[1500,1000]","[[[0.0015,-0.1905],[0.001,-0.1905],[0,-0.1905],[-0.0005,-0.1905],[-0.0005,-0.19],[-0.001,-0.188],[-0.0025,-0.178],[-0.002,-0.1605],[0,-0.1365],[0.0035,-0.103],[0.0075,-0.0715],[0.0115,-0.054],[0.0155,-0.0435],[0.017,-0.0335],[0.017,-0.0135],[0.017,0.0025],[0.018,0.019],[0.019,0.031],[0.022,0.0415],[0.0245,0.05],[0.0305,0.07],[0.0335,0.0865],[0.0365,0.103],[0.0405,0.118],[0.0435,0.1285],[0.045,0.131],[0.0455,0.1335],[0.0455,0.135],[0.0455,0.136],[0.0455,0.1365],[0.0455,0.1365]],[[0.002,-0.2055],[0.0015,-0.2055],[0.0015,-0.2055],[0.001,-0.205],[0.001,-0.205],[0.001,-0.205],[0.001,-0.2035],[0.0025,-0.1995],[0.0115,-0.1875],[0.023,-0.171],[0.036,-0.154],[0.049,-0.1365],[0.0685,-0.114],[0.0805,-0.102],[0.092,-0.0905],[0.1055,-0.079],[0.12,-0.0675],[0.147,-0.0525],[0.1655,-0.044],[0.1795,-0.04],[0.196,-0.0355],[0.2035,-0.034],[0.2075,-0.034],[0.211,-0.034],[0.2145,-0.0335],[0.2175,-0.0325],[0.219,-0.0325],[0.2205,-0.032],[0.221,-0.032],[0.221,-0.032]],[[-0.0055,-0.1975],[-0.0055,-0.197],[-0.0055,-0.197],[-0.0065,-0.197],[-0.007,-0.196],[-0.0095,-0.1925],[-0.014,-0.1845],[-0.02,-0.1705],[-0.031,-0.153],[-0.044,-0.136],[-0.056,-0.1185],[-0.0675,-0.1025],[-0.079,-0.0795],[-0.085,-0.068],[-0.091,-0.056],[-0.1,-0.0415],[-0.1115,-0.029],[-0.12,-0.0205],[-0.1295,-0.0145],[-0.133,-0.0115],[-0.136,-0.0095],[-0.1425,-0.0065],[-0.153,-0.0015],[-0.1645,0.0045],[-0.1775,0.0095],[-0.189,0.013],[-0.197,0.0155],[-0.203,0.018],[-0.212,0.0205],[-0.2185,0.023],[-0.221,0.0235],[-0.2215,0.0235],[-0.2215,0.0235],[-0.2215,0.0235],[-0.2215,0.0235],[-0.2215,0.0235],[-0.2215,0.0235],[-0.2215,0.0235]],[[-0.007,-0.2055],[-0.0095,-0.2045],[-0.011,-0.204],[-0.0125,-0.204],[-0.0135,-0.2035],[-0.0155,-0.203],[-0.0185,-0.2015],[-0.022,-0.2005],[-0.0295,-0.198],[-0.0405,-0.195],[-0.0555,-0.194],[-0.069,-0.193],[-0.08,-0.192],[-0.0875,-0.192],[-0.0955,-0.192],[-0.108,-0.192],[-0.124,-0.192],[-0.1375,-0.1925],[-0.1475,-0.1945],[-0.1535,-0.195],[-0.162,-0.196],[-0.171,-0.197],[-0.186,-0.198],[-0.201,-0.199],[-0.2135,-0.201],[-0.2245,-0.2035],[-0.236,-0.2055],[-0.2445,-0.207],[-0.2545,-0.209],[-0.2805,-0.2155],[-0.306,-0.2185],[-0.3225,-0.223],[-0.335,-0.2235],[-0.3385,-0.2245],[-0.339,-0.2245],[-0.339,-0.2245],[-0.339,-0.2245],[-0.339,-0.2245],[-0.339,-0.225],[-0.3365,-0.225],[-0.318,-0.2225]],[[0.0065,-0.204],[0.0065,-0.204],[0.0065,-0.204],[0.007,-0.204],[0.0075,-0.204],[0.0095,-0.204],[0.013,-0.204],[0.0225,-0.205],[0.0455,-0.2055],[0.0605,-0.2045],[0.073,-0.2025],[0.0855,-0.2005],[0.099,-0.1995],[0.119,-0.1985],[0.143,-0.1965],[0.184,-0.195],[0.204,-0.195],[0.212,-0.194],[0.2145,-0.194],[0.217,-0.194],[0.224,-0.194],[0.2345,-0.194],[0.2455,-0.194],[0.252,-0.194],[0.254,-0.194],[0.255,-0.194],[0.256,-0.194],[0.258,-0.194],[0.259,-0.1935]]]",5,"[31,30,38,41,29]",,,,,,,,,,,,,,airportTerminal6.jpg,space,26.194805,0,48,48,2,1,alley1.jpg,arcade1.jpg,applestore6.jpg,apartmentBuilding4.jpg,,
Image_List_5,,,,,,,,,,,,,,,,44532,2020-11-03_20h36.52.303,analogCatScenes,2020.1.3,Win32,60,"[1500,1000]","[[[-0.0045,-0.201],[-0.004,-0.2005],[-0.004,-0.2005],[-0.004,-0.2005],[-0.004,-0.2005],[-0.004,-0.2],[-0.0045,-0.1995],[-0.0065,-0.197],[-0.0085,-0.195],[-0.0115,-0.192],[-0.0145,-0.1875],[-0.018,-0.181],[-0.021,-0.173],[-0.025,-0.163],[-0.0305,-0.147],[-0.0345,-0.1365],[-0.038,-0.1285],[-0.0385,-0.126],[-0.0385,-0.1235],[-0.0385,-0.121],[-0.039,-0.117],[-0.04,-0.1125],[-0.04,-0.1095],[-0.0395,-0.1065],[-0.039,-0.105],[-0.038,-0.103],[-0.036,-0.1],[-0.0335,-0.0975],[-0.0315,-0.094],[-0.028,-0.0895],[-0.025,-0.087],[-0.022,-0.083],[-0.0195,-0.08],[-0.017,-0.0775],[-0.0145,-0.0745],[-0.0125,-0.072],[-0.0085,-0.064],[-0.0055,-0.059],[-0.002,-0.053],[0.001,-0.0485],[0.0035,-0.045],[0.006,-0.042],[0.007,-0.0395],[0.0085,-0.0365],[0.0115,-0.0325],[0.0145,-0.029],[0.0165,-0.026],[0.019,-0.023],[0.02,-0.0205],[0.021,-0.019],[0.0215,-0.017],[0.024,-0.014],[0.0265,-0.01],[0.0285,-0.008],[0.03,-0.007],[0.031,-0.0045],[0.033,-0.0015],[0.034,0.001],[0.036,0.003],[0.0365,0.005],[0.0375,0.006],[0.038,0.0065],[0.038,0.0075],[0.0385,0.008],[0.0395,0.009],[0.0395,0.0095]],[[-0.0025,-0.205],[-0.0025,-0.205],[-0.0025,-0.205],[-0.002,-0.205],[0.0005,-0.204],[0.0035,-0.2025],[0.0055,-0.202],[0.012,-0.1975],[0.022,-0.1945],[0.035,-0.1915],[0.0485,-0.1905],[0.063,-0.1905],[0.0745,-0.191],[0.088,-0.192],[0.099,-0.192],[0.11,-0.193],[0.121,-0.194],[0.1345,-0.195],[0.15,-0.198],[0.165,-0.199],[0.1785,-0.2],[0.1905,-0.201],[0.2005,-0.201],[0.2015,-0.201],[0.2025,-0.201],[0.2025,-0.201],[0.2025,-0.201],[0.2025,-0.201],[0.202,-0.2005],[0.1955,-0.1965]],[[-0.01,-0.203],[-0.0125,-0.2025],[-0.015,-0.202],[-0.015,-0.202],[-0.015,-0.202],[-0.0155,-0.202],[-0.017,-0.201],[-0.02,-0.2005],[-0.0235,-0.2],[-0.03,-0.198],[-0.039,-0.1955],[-0.06,-0.1895],[-0.079,-0.1855],[-0.0955,-0.181],[-0.1125,-0.177],[-0.129,-0.173],[-0.1455,-0.169],[-0.1685,-0.162],[-0.208,-0.152],[-0.2295,-0.1455],[-0.245,-0.1415],[-0.259,-0.1375],[-0.2705,-0.1335],[-0.2765,-0.131],[-0.283,-0.128],[-0.2905,-0.124],[-0.2925,-0.123],[-0.2945,-0.122],[-0.297,-0.121],[-0.299,-0.1205],[-0.3005,-0.1195],[-0.3015,-0.1195],[-0.3035,-0.119],[-0.304,-0.119],[-0.304,-0.119]]]",3,"[66,30,35]",,,,,,,,,,,,,,warehouseoutside3.jpg,space,6.190365,0,49,49,97,1,warehouseoutside4.jpg,wineVineyard2.jpg,waitingroom4.jpg,winebarrel3.jpg,,
Image_List_5,,,,,,,,,,,,,,,,44532,2020-11-03_20h36.52.303,analogCatScenes,2020.1.3,Win32,60,"[1500,1000]","[[[-0.0075,-0.1965],[-0.0075,-0.1965],[-0.0075,-0.1965],[-0.0075,-0.1965],[-0.0075,-0.1965],[-0.0075,-0.1965],[-0.0075,-0.1965],[-0.007,-0.1955],[-0.005,-0.194],[-0.0005,-0.191],[0.0075,-0.1845],[0.021,-0.172],[0.0465,-0.1465],[0.064,-0.129],[0.093,-0.1085],[0.1225,-0.091],[0.141,-0.0775],[0.16,-0.0645],[0.18,-0.049],[0.2195,-0.018],[0.2455,0.0015],[0.264,0.018],[0.2765,0.0295],[0.28,0.0365],[0.283,0.041],[0.286,0.0455],[0.289,0.053],[0.292,0.07],[0.2935,0.0785],[0.2945,0.082],[0.295,0.0845],[0.295,0.0865],[0.2945,0.0875],[0.293,0.088],[0.2925,0.088],[0.2915,0.088],[0.291,0.0885],[0.289,0.0885],[0.2875,0.09],[0.2855,0.0905],[0.2805,0.0925],[0.277,0.094],[0.2745,0.095],[0.271,0.0955],[0.2665,0.0955],[0.264,0.096],[0.26,0.097],[0.259,0.0975],[0.257,0.0975],[0.2565,0.0975],[0.2565,0.0975],[0.2565,0.0975],[0.2565,0.0975],[0.2565,0.0975],[0.2565,0.0975],[0.2565,0.0975],[0.2565,0.0975],[0.2565,0.0975],[0.2565,0.097]],[[-0.0045,-0.195],[-0.0045,-0.195],[-0.0045,-0.195],[-0.0045,-0.195],[-0.0045,-0.195],[-0.0045,-0.195],[-0.0045,-0.195],[-0.0045,-0.194],[-0.006,-0.1905],[-0.01,-0.174],[-0.012,-0.159],[-0.013,-0.1425],[-0.016,-0.126],[-0.019,-0.1095],[-0.0215,-0.091],[-0.0255,-0.069],[-0.03,-0.049],[-0.0365,-0.0305],[-0.0425,-0.007],[-0.0465,0.007],[-0.0505,0.0195],[-0.054,0.03],[-0.0565,0.0345],[-0.0565,0.037],[-0.0565,0.04],[-0.057,0.0415],[-0.057,0.0415],[-0.057,0.042],[-0.057,0.0425],[-0.057,0.0425],[-0.057,0.0425]],[[0.0005,-0.1965],[0.0005,-0.1965],[0.0005,-0.1965],[0,-0.196],[-0.001,-0.196],[-0.0055,-0.194],[-0.0215,-0.189],[-0.0355,-0.182],[-0.054,-0.169],[-0.077,-0.1555],[-0.1,-0.138],[-0.138,-0.115],[-0.1845,-0.09],[-0.204,-0.077],[-0.2215,-0.065],[-0.2335,-0.058],[-0.2425,-0.0535],[-0.2455,-0.0505],[-0.2475,-0.0485],[-0.248,-0.048],[-0.2485,-0.048]]]",3,"[59,31,21]",,,,,,,,,,,,,,basketballcourt7.jpg,space,4.205725,0,50,50,20,1,boardwalk6.jpg,cave.jpg,campsite3.jpg,cave4.jpg,,
Image_List_5,,,,,,,,,,,,,,,,44532,2020-11-03_20h36.52.303,analogCatScenes,2020.1.3,Win32,60,"[1500,1000]","[[[-0.005,-0.2005],[-0.005,-0.2005],[-0.005,-0.2],[-0.005,-0.2],[-0.0025,-0.197],[0.0015,-0.195],[0.0065,-0.192],[0.018,-0.188],[0.035,-0.184],[0.0515,-0.1775],[0.0705,-0.1735],[0.09,-0.169],[0.1075,-0.165],[0.135,-0.1585],[0.149,-0.1545],[0.1605,-0.1505],[0.1685,-0.1475],[0.176,-0.1445],[0.1815,-0.1415],[0.191,-0.1375],[0.1965,-0.1345],[0.203,-0.1315],[0.2075,-0.1285],[0.2125,-0.1255],[0.2165,-0.1225],[0.2195,-0.1195],[0.2225,-0.1165],[0.226,-0.1135],[0.233,-0.109],[0.2375,-0.106],[0.246,-0.1025],[0.255,-0.099],[0.261,-0.096],[0.2655,-0.093],[0.2675,-0.09],[0.2685,-0.0885],[0.2705,-0.085],[0.2715,-0.083],[0.2715,-0.0805],[0.2695,-0.078],[0.2675,-0.075],[0.2645,-0.072],[0.262,-0.0695],[0.2575,-0.0665],[0.255,-0.065],[0.2505,-0.0635],[0.247,-0.0625],[0.2445,-0.0625],[0.2425,-0.0625],[0.24,-0.0625],[0.2365,-0.0625],[0.2295,-0.0625],[0.2235,-0.0625],[0.2135,-0.0645],[0.2065,-0.065],[0.204,-0.065],[0.203,-0.065],[0.203,-0.065],[0.203,-0.065],[0.203,-0.0655],[0.203,-0.0655],[0.203,-0.0655],[0.203,-0.0655],[0.203,-0.066]]]",1,[64],,,,,,,,,,,,,,campusquad1.jpg,space,2.289535,0,51,51,34,1,deck4.jpg,diningroom5.jpg,courthouse4.jpg,diner11.jpg,,
Image_List_5,,,,,,,,,,,,,,,,44532,2020-11-03_20h36.52.303,analogCatScenes,2020.1.3,Win32,60,"[1500,1000]","[[[0.0025,-0.199],[0.0015,-0.1975],[0.0005,-0.196],[0,-0.195],[0,-0.1945],[-0.0005,-0.194],[-0.001,-0.193],[-0.002,-0.192],[-0.0025,-0.191],[-0.003,-0.1885],[-0.0035,-0.185],[-0.006,-0.1815],[-0.0065,-0.177],[-0.01,-0.1665],[-0.0135,-0.155],[-0.0175,-0.1435],[-0.021,-0.1355],[-0.0245,-0.129],[-0.0275,-0.1235],[-0.032,-0.1175],[-0.0335,-0.1155],[-0.0395,-0.1095],[-0.045,-0.1045],[-0.052,-0.098],[-0.055,-0.0945],[-0.059,-0.0915],[-0.06,-0.0895],[-0.0605,-0.089],[-0.0605,-0.089],[-0.0605,-0.089],[-0.0605,-0.089],[-0.0605,-0.089],[-0.0605,-0.0885],[-0.06,-0.088],[-0.057,-0.086],[-0.054,-0.084],[-0.051,-0.0825],[-0.047,-0.0805],[-0.0395,-0.078],[-0.0305,-0.0755],[-0.02,-0.073],[-0.0135,-0.071],[-0.0055,-0.0695],[0.006,-0.0675],[0.013,-0.0675],[0.0215,-0.0675],[0.029,-0.069],[0.0365,-0.072],[0.042,-0.0755],[0.047,-0.0795],[0.05,-0.0825],[0.0535,-0.0855],[0.0555,-0.0875],[0.0565,-0.0885],[0.057,-0.0905],[0.0565,-0.0945],[0.0565,-0.097],[0.0565,-0.0995],[0.057,-0.1005],[0.057,-0.101],[0.057,-0.101],[0.057,-0.1015]]]",1,[62],,,,,,,,,,,,,,dormroom6.jpg,space,1.85368,0,52,52,46,1,flowershop.jpg,frontLawn5.jpg,farmersmarket4.jpg,fountain4.jpg,,
Image_List_5,,,,,,,,,,,,,,,,44532,2020-11-03_20h36.52.303,analogCatScenes,2020.1.3,Win32,60,"[1500,1000]","[[[-0.0105,-0.1975],[-0.0105,-0.1975],[-0.0105,-0.197],[-0.0105,-0.197],[-0.0105,-0.197],[-0.011,-0.196],[-0.0155,-0.194],[-0.023,-0.1915],[-0.037,-0.1875],[-0.0575,-0.1835],[-0.0875,-0.178],[-0.104,-0.175],[-0.1165,-0.173],[-0.129,-0.171],[-0.1415,-0.169],[-0.155,-0.167],[-0.17,-0.165],[-0.1845,-0.1625],[-0.188,-0.162],[-0.19,-0.1605],[-0.1915,-0.1595],[-0.195,-0.158],[-0.2015,-0.1545],[-0.212,-0.151],[-0.229,-0.145],[-0.2405,-0.1415],[-0.251,-0.1375],[-0.26,-0.134],[-0.269,-0.1315],[-0.274,-0.1305],[-0.277,-0.13],[-0.2775,-0.13],[-0.2775,-0.13]],[[-0.0025,-0.197],[-0.0025,-0.1965],[-0.0025,-0.1965],[-0.0025,-0.1965],[-0.0025,-0.1965],[-0.0025,-0.1965],[0.006,-0.1965],[0.0405,-0.198],[0.111,-0.198],[0.18,-0.195],[0.233,-0.192],[0.274,-0.1885],[0.287,-0.1855],[0.2905,-0.1845],[0.293,-0.1835],[0.2955,-0.183],[0.296,-0.183],[0.297,-0.183],[0.296,-0.1825]],[[-0.002,-0.194],[-0.0015,-0.1935],[-0.0015,-0.1935],[-0.001,-0.193],[0.001,-0.191],[0.004,-0.1855],[0.0085,-0.175],[0.017,-0.1605],[0.029,-0.1435],[0.043,-0.126],[0.061,-0.105],[0.068,-0.098],[0.0705,-0.094],[0.071,-0.0915],[0.071,-0.091],[0.0705,-0.091]]]",3,"[33,19,16]",,,,,,,,,,,,,,firestation5.jpg,space,3.529375,0,53,53,51,1,gasstation6.jpg,hallway5.jpg,frontDoor5.jpg,hayfield4.jpg,,
Image_List_5,,,,,,,,,,,,,,,,44532,2020-11-03_20h36.52.303,analogCatScenes,2020.1.3,Win32,60,"[1500,1000]","[[[0.0025,-0.198],[0.0025,-0.198],[0.0025,-0.198],[0.0025,-0.198],[0.0025,-0.198],[0.004,-0.2],[0.006,-0.2025],[0.011,-0.206],[0.0165,-0.2095],[0.028,-0.213],[0.042,-0.217],[0.057,-0.221],[0.0735,-0.2245],[0.098,-0.2275],[0.113,-0.2285],[0.1245,-0.226],[0.1375,-0.218],[0.153,-0.2015],[0.166,-0.184],[0.176,-0.1705],[0.1875,-0.1595],[0.198,-0.1525],[0.206,-0.148],[0.21,-0.145],[0.212,-0.1425],[0.2135,-0.1395],[0.216,-0.1365],[0.218,-0.134],[0.2195,-0.1325],[0.221,-0.132]],[[-0.01,-0.205],[-0.01,-0.205],[-0.01,-0.205],[-0.01,-0.205],[-0.01,-0.205],[-0.01,-0.205],[-0.0105,-0.205],[-0.018,-0.2075],[-0.0335,-0.2115],[-0.05,-0.216],[-0.071,-0.222],[-0.084,-0.226],[-0.1005,-0.23],[-0.121,-0.234],[-0.1475,-0.2375],[-0.168,-0.241],[-0.183,-0.242],[-0.198,-0.242],[-0.203,-0.242],[-0.2065,-0.242],[-0.2115,-0.242],[-0.215,-0.242],[-0.216,-0.242],[-0.216,-0.242],[-0.216,-0.242],[-0.2165,-0.2415],[-0.2185,-0.241],[-0.2195,-0.241],[-0.22,-0.241],[-0.22,-0.241],[-0.22,-0.241],[-0.22,-0.241],[-0.22,-0.241]]]",2,"[30,33]",,,,,,,,,,,,,,diningroom3.jpg,space,3.487055,0,54,54,43,1,exerciseequipment5.jpg,forestpath10.jpg,dugout2.jpg,foodcourt.jpg,,
Image_List_5,,,,,,,,,,,,,,,,44532,2020-11-03_20h36.52.303,analogCatScenes,2020.1.3,Win32,60,"[1500,1000]","[[[0,-0.2045],[0,-0.2045],[0,-0.2045],[0,-0.2045],[0,-0.204],[0,-0.204],[0,-0.204],[0,-0.204],[-0.0015,-0.203],[-0.0085,-0.2015],[-0.0235,-0.2005],[-0.0475,-0.198],[-0.0785,-0.196],[-0.1055,-0.1935],[-0.134,-0.1885],[-0.148,-0.1855],[-0.1605,-0.1815],[-0.172,-0.1785],[-0.187,-0.1745],[-0.2,-0.1705],[-0.213,-0.1665],[-0.229,-0.161],[-0.2345,-0.158],[-0.237,-0.156],[-0.2395,-0.154],[-0.2415,-0.152],[-0.245,-0.147],[-0.255,-0.1385],[-0.266,-0.1295],[-0.2745,-0.121],[-0.284,-0.1125],[-0.2875,-0.1075],[-0.2925,-0.101],[-0.2995,-0.0905],[-0.311,-0.078],[-0.32,-0.066],[-0.322,-0.0625],[-0.3225,-0.0585],[-0.322,-0.0565],[-0.319,-0.053],[-0.316,-0.05],[-0.3115,-0.046],[-0.306,-0.0415],[-0.298,-0.037],[-0.2885,-0.0325],[-0.2685,-0.023],[-0.2435,-0.013],[-0.197,0.0005],[-0.139,0.0205],[-0.0885,0.0395],[-0.0485,0.055],[-0.024,0.0655],[-0.0125,0.0695],[-0.0025,0.0745],[0.001,0.0765],[0.0045,0.0785],[0.01,0.081],[0.0175,0.084],[0.0225,0.0855],[0.026,0.088],[0.0295,0.0895],[0.0315,0.09],[0.032,0.0905],[0.033,0.091],[0.034,0.091],[0.036,0.0915],[0.036,0.0915],[0.0365,0.0915],[0.0385,0.0915],[0.0395,0.0915],[0.04,0.0915],[0.0405,0.0915]],[[0.001,-0.201],[0.001,-0.201],[0.001,-0.201],[0.0015,-0.201],[0.002,-0.201],[0.004,-0.2015],[0.0075,-0.2035],[0.021,-0.209],[0.0325,-0.2125],[0.044,-0.2165],[0.0555,-0.2205],[0.066,-0.224],[0.0735,-0.2275],[0.0825,-0.231],[0.097,-0.235],[0.1145,-0.2395],[0.134,-0.2415],[0.1415,-0.2415],[0.144,-0.2415],[0.1465,-0.2415],[0.149,-0.2415],[0.1525,-0.2415],[0.157,-0.2415],[0.164,-0.24],[0.173,-0.238],[0.184,-0.237],[0.1955,-0.234],[0.204,-0.2335],[0.208,-0.232],[0.2135,-0.229],[0.22,-0.2255],[0.23,-0.2205],[0.239,-0.217],[0.245,-0.213],[0.252,-0.206],[0.257,-0.1945],[0.263,-0.18],[0.268,-0.1685],[0.2745,-0.1565],[0.284,-0.1365],[0.29,-0.123],[0.296,-0.11],[0.3,-0.096],[0.3035,-0.0845],[0.3075,-0.0745],[0.311,-0.0655],[0.316,-0.0555],[0.3175,-0.051],[0.32,-0.047],[0.3225,-0.043],[0.3255,-0.0385],[0.3275,-0.0355],[0.329,-0.0335],[0.329,-0.0315],[0.329,-0.0315],[0.3295,-0.031],[0.3295,-0.031],[0.3295,-0.0305],[0.3295,-0.0305],[0.3295,-0.0305]]]",2,"[72,60]",,,,,,,,,,,,,,beach1.jpeg,space,4.2983,0,55,55,21,1,botanicalGarden6.jpg,cemetery6.jpg,campusquad3.jpg,cave5.jpg,,
Image_List_5,,,,,,,,,,,,,,,,44532,2020-11-03_20h36.52.303,analogCatScenes,2020.1.3,Win32,60,"[1500,1000]","[[[-0.0035,-0.197],[-0.0035,-0.1965],[-0.0035,-0.1965],[-0.002,-0.1965],[0.0015,-0.197],[0.0105,-0.1985],[0.0225,-0.1995],[0.0375,-0.2015],[0.054,-0.2045],[0.0785,-0.208],[0.113,-0.2115],[0.156,-0.2155],[0.215,-0.214],[0.253,-0.21],[0.276,-0.2055],[0.289,-0.2015],[0.2925,-0.1985],[0.2945,-0.1965],[0.298,-0.193],[0.302,-0.1885],[0.307,-0.1815],[0.311,-0.176],[0.3135,-0.1695],[0.315,-0.165],[0.315,-0.1615],[0.315,-0.16],[0.315,-0.158],[0.313,-0.155],[0.311,-0.1535]],[[-0.0005,-0.199],[-0.0005,-0.199],[-0.0005,-0.1985],[-0.0005,-0.1985],[-0.001,-0.1985],[-0.003,-0.1985],[-0.007,-0.1985],[-0.0165,-0.199],[-0.0365,-0.205],[-0.0505,-0.209],[-0.067,-0.213],[-0.093,-0.2175],[-0.1365,-0.2235],[-0.2055,-0.2265],[-0.2935,-0.232]]]",2,"[29,15]",,,,,,,,,,,,,,mallindoor6.jpg,space,2.88853,0,56,56,77,1,parkinggarage2.jpg,playroom6.jpg,pasture9.jpg,park8.jpg,,
Image_List_5,,,,,,,,,,,,,,,,44532,2020-11-03_20h36.52.303,analogCatScenes,2020.1.3,Win32,60,"[1500,1000]","[[[0,-0.199],[0,-0.199],[0,-0.199],[0.001,-0.199],[0.003,-0.1995],[0.01,-0.1995],[0.0215,-0.1985],[0.0365,-0.1945],[0.051,-0.1905],[0.065,-0.1865],[0.0815,-0.182],[0.094,-0.178],[0.102,-0.175],[0.1155,-0.1675],[0.128,-0.1595],[0.1385,-0.1505],[0.1425,-0.146],[0.1455,-0.143],[0.147,-0.1385],[0.147,-0.1345],[0.1425,-0.1245],[0.138,-0.117],[0.1315,-0.1085],[0.1255,-0.1015],[0.122,-0.0975],[0.1195,-0.095],[0.1185,-0.093],[0.117,-0.091],[0.115,-0.0885],[0.112,-0.0865]],[[0.009,-0.2],[0.009,-0.2],[0.009,-0.2],[0.009,-0.2],[0.009,-0.2],[0.0115,-0.2],[0.0195,-0.2],[0.0415,-0.198],[0.064,-0.195],[0.0925,-0.1915],[0.1405,-0.1855],[0.234,-0.168],[0.2415,-0.166],[0.2445,-0.166],[0.2445,-0.166],[0.2445,-0.166],[0.2445,-0.166],[0.2445,-0.166],[0.245,-0.166],[0.2455,-0.1655]]]",2,"[30,20]",,,,,,,,,,,,,,cliff5.jpg,space,2.47739,0,57,57,39,1,driveway6.jpg,eyeglassstore9.jpg,drycleaners6.jpg,drymountains5.jpg,,
Image_List_5,,,,,,,,,,,,,,,,44532,2020-11-03_20h36.52.303,analogCatScenes,2020.1.3,Win32,60,"[1500,1000]","[[[0.004,-0.193],[0.004,-0.193],[0.004,-0.193],[0.004,-0.193],[0.004,-0.193],[0.004,-0.193],[0.004,-0.193],[0.004,-0.193],[0.004,-0.193],[0.004,-0.1925],[0.004,-0.192],[0.005,-0.1915],[0.009,-0.1865],[0.013,-0.181],[0.0225,-0.1735],[0.036,-0.164],[0.047,-0.153],[0.0585,-0.1415],[0.073,-0.127],[0.084,-0.119],[0.0945,-0.112],[0.104,-0.1065],[0.1125,-0.1],[0.123,-0.091],[0.1355,-0.08],[0.1525,-0.065],[0.165,-0.0545],[0.1775,-0.043],[0.186,-0.0335],[0.1925,-0.0255],[0.2,-0.018],[0.2075,-0.0085],[0.213,0],[0.2175,0.008],[0.224,0.0205],[0.228,0.028],[0.2315,0.036],[0.235,0.0415],[0.2375,0.045],[0.2405,0.048],[0.2435,0.051],[0.246,0.055],[0.249,0.058],[0.252,0.0605],[0.2545,0.0635],[0.257,0.0665],[0.258,0.068],[0.26,0.07],[0.262,0.073],[0.265,0.076],[0.266,0.077],[0.266,0.077],[0.266,0.077],[0.266,0.077],[0.266,0.0755]],[[-0.008,-0.198],[-0.008,-0.198],[-0.008,-0.198],[-0.008,-0.198],[-0.008,-0.198],[-0.009,-0.1965],[-0.0095,-0.1915],[-0.0095,-0.181],[-0.007,-0.16],[-0.005,-0.1475],[-0.0015,-0.135],[0.0025,-0.121],[0.0065,-0.108],[0.0105,-0.0965],[0.013,-0.09],[0.016,-0.085],[0.017,-0.0825],[0.0185,-0.0795],[0.0205,-0.076],[0.025,-0.0695],[0.0305,-0.059],[0.04,-0.0465],[0.052,-0.0355],[0.0745,-0.013],[0.0925,0.0035],[0.11,0.0215],[0.126,0.0365],[0.139,0.05],[0.15,0.0625],[0.1575,0.071],[0.163,0.078],[0.17,0.085],[0.179,0.096],[0.182,0.0985],[0.183,0.1],[0.183,0.1005],[0.183,0.1005],[0.184,0.1005],[0.184,0.1005],[0.184,0.1005],[0.184,0.099],[0.1825,0.0975]],[[0.0015,-0.201],[0.0015,-0.201],[0.0015,-0.201],[0.0015,-0.201],[0.0015,-0.201],[0.0015,-0.201],[0.0015,-0.201],[0.001,-0.201],[0.0005,-0.2],[-0.0015,-0.1995],[-0.0035,-0.1975],[-0.0065,-0.1945],[-0.011,-0.1915],[-0.0155,-0.187],[-0.0215,-0.18],[-0.0315,-0.169],[-0.0505,-0.1505],[-0.064,-0.1375],[-0.08,-0.125],[-0.0945,-0.1145],[-0.1055,-0.1055],[-0.1165,-0.0975],[-0.1285,-0.0915],[-0.146,-0.0805],[-0.158,-0.0735],[-0.171,-0.0675],[-0.1815,-0.064],[-0.188,-0.0605],[-0.192,-0.0575],[-0.1965,-0.0545],[-0.202,-0.0515],[-0.217,-0.045],[-0.227,-0.0415],[-0.232,-0.0385],[-0.2335,-0.037],[-0.235,-0.0365],[-0.235,-0.0365]]]",3,"[55,42,37]",,,,,,,,,,,,,,boardwalk.jpg,space,5.25775,0,58,58,24,1,campsite.jpg,cliff3.jpg,cave6.jpg,cemetery5.jpg,,
Image_List_5,,,,,,,,,,,,,,,,44532,2020-11-03_20h36.52.303,analogCatScenes,2020.1.3,Win32,60,"[1500,1000]","[[[0.0115,-0.2],[0.0115,-0.2],[0.0115,-0.2],[0.0115,-0.2],[0.011,-0.1995],[0.009,-0.1985],[0.008,-0.1985],[0.0075,-0.1985],[0.007,-0.1985],[0.007,-0.198],[0.007,-0.198],[0.007,-0.198],[0.007,-0.198],[0.007,-0.198],[0.007,-0.198],[0.011,-0.1985],[0.02,-0.2],[0.0395,-0.206],[0.0575,-0.21],[0.0765,-0.2145],[0.0985,-0.219],[0.1175,-0.223],[0.129,-0.226],[0.14,-0.2285],[0.146,-0.2295],[0.156,-0.231],[0.1685,-0.232],[0.173,-0.232],[0.178,-0.232],[0.1805,-0.232],[0.1815,-0.232],[0.1815,-0.232],[0.1815,-0.232],[0.1815,-0.232],[0.1815,-0.232],[0.1815,-0.232],[0.182,-0.2315],[0.183,-0.2265],[0.1825,-0.2195],[0.1795,-0.2085],[0.1735,-0.194],[0.164,-0.178],[0.1515,-0.163],[0.139,-0.151],[0.1265,-0.1405],[0.108,-0.1325],[0.095,-0.1285],[0.0835,-0.125],[0.077,-0.1225],[0.074,-0.121],[0.0725,-0.12],[0.0695,-0.1185],[0.0695,-0.118],[0.0695,-0.118],[0.069,-0.118],[0.069,-0.118],[0.069,-0.118],[0.069,-0.118],[0.069,-0.118],[0.069,-0.118],[0.069,-0.118],[0.069,-0.118],[0.069,-0.118],[0.069,-0.118],[0.069,-0.118],[0.069,-0.118],[0.069,-0.118],[0.069,-0.118],[0.069,-0.118],[0.069,-0.118],[0.0685,-0.1175],[0.0655,-0.1155],[0.061,-0.1125],[0.0565,-0.1095],[0.0465,-0.1055],[0.035,-0.101],[0.0235,-0.095],[0.011,-0.086],[-0.005,-0.073],[-0.021,-0.06],[-0.0495,-0.0405],[-0.0655,-0.0285],[-0.079,-0.0205],[-0.091,-0.0135],[-0.1,-0.008],[-0.111,0],[-0.118,0.005],[-0.127,0.012],[-0.13,0.014],[-0.1305,0.014],[-0.131,0.014],[-0.131,0.014]]]",1,[92],,,,,,,,,,,,,,fabricstore2.jpg,space,2.28928,0,59,59,48,1,frontDoor2.jpg,golfcourse6.jpg,fittingroom5.jpg,golfcourse7.jpg,,
Image_List_5,,,,,,,,,,,,,,,,44532,2020-11-03_20h36.52.303,analogCatScenes,2020.1.3,Win32,60,"[1500,1000]","[[[-0.005,-0.2],[-0.005,-0.2],[-0.005,-0.199],[-0.0045,-0.197],[-0.005,-0.1915],[-0.0075,-0.179],[-0.014,-0.148],[-0.022,-0.1135],[-0.03,-0.0765],[-0.0305,-0.0485],[-0.027,-0.02],[-0.0225,0.0065],[-0.017,0.032],[-0.0115,0.054],[-0.007,0.077],[-0.0075,0.101],[-0.0085,0.112],[-0.0095,0.1165],[-0.0095,0.1175],[-0.0095,0.1175],[-0.0085,0.118],[-0.0085,0.118]]]",1,[22],,,,,,,,,,,,,,library_aisle9.jpg,space,1.203695,0,60,60,73,1,musicStore3.jpg,photographer_studio2.jpg,nursery.jpg,nursery4.jpg,,
Image_List_5,,,,,,,,,,,,,,,,44532,2020-11-03_20h36.52.303,analogCatScenes,2020.1.3,Win32,60,"[1500,1000]","[[[-0.0015,-0.2065],[-0.0015,-0.2065],[-0.0015,-0.2065],[-0.0015,-0.2065],[-0.0015,-0.2065],[-0.0015,-0.205],[-0.0025,-0.2],[-0.0055,-0.186],[-0.0095,-0.167],[-0.014,-0.14],[-0.0195,-0.113],[-0.025,-0.0805],[-0.026,-0.0635],[-0.026,-0.0435],[-0.0245,-0.0245],[-0.0205,-0.009],[-0.0165,0.0025],[-0.0135,0.006],[-0.013,0.0075],[-0.013,0.0075],[-0.013,0.0075],[-0.013,0.0075],[-0.013,0.007]]]",1,[23],,,,,,,,,,,,,,botanicalGarden4.jpg,space,1.21007,0,61,61,25,1,campsite7.jpg,conference3.jpg,church3.jpg,checkoutcounter2.jpg,,
Image_List_5,,,,,,,,,,,,,,,,44532,2020-11-03_20h36.52.303,analogCatScenes,2020.1.3,Win32,60,"[1500,1000]","[[[0.0035,-0.19],[0.0035,-0.19],[0.0035,-0.1895],[0.0035,-0.1895],[0.0035,-0.1895],[0.003,-0.1895],[0.0005,-0.189],[-0.0105,-0.188],[-0.043,-0.1815],[-0.089,-0.1725],[-0.1535,-0.157],[-0.1935,-0.1475],[-0.2155,-0.142],[-0.2295,-0.139],[-0.233,-0.138],[-0.234,-0.1375],[-0.2345,-0.1375],[-0.2355,-0.1375],[-0.2355,-0.1375]]]",1,[19],,,,,,,,,,,,,,bus_shelter3.jpg,space,1.138035,0,62,62,30,1,courthouse1.jpg,desertvegetation3.jpg,clothingstore2.jpg,copyroom2.jpg,,
Image_List_5,,,,,,,,,,,,,,,,44532,2020-11-03_20h36.52.303,analogCatScenes,2020.1.3,Win32,60,"[1500,1000]","[[[-0.004,-0.205],[-0.0035,-0.205],[-0.0025,-0.205],[-0.0005,-0.205],[0.002,-0.205],[0.004,-0.205],[0.007,-0.205],[0.0095,-0.205],[0.012,-0.204],[0.0145,-0.2035],[0.0175,-0.203],[0.021,-0.2015],[0.0235,-0.1995],[0.0275,-0.197],[0.035,-0.1935],[0.0525,-0.188],[0.0665,-0.184],[0.082,-0.179],[0.0935,-0.175],[0.105,-0.171],[0.1125,-0.1675],[0.1165,-0.1645],[0.1215,-0.1605],[0.129,-0.157],[0.134,-0.154],[0.1375,-0.151],[0.1405,-0.148],[0.143,-0.1455],[0.146,-0.1415],[0.1485,-0.134],[0.1495,-0.1215],[0.1495,-0.1155],[0.1485,-0.112],[0.146,-0.1085],[0.1425,-0.1055],[0.139,-0.1025],[0.1335,-0.0995],[0.1275,-0.095]]]",1,[38],,,,,,,,,,,,,,shoestore4.jpg,space,1.25605,0,63,63,90,1,savanna5.jpg,trainStation1.jpg,sidewalk1.jpg,stripmall3.jpg,,
Image_List_5,,,,,,,,,,,,,,,,44532,2020-11-03_20h36.52.303,analogCatScenes,2020.1.3,Win32,60,"[1500,1000]","[[[0.006,-0.194],[0.006,-0.194],[0.006,-0.194],[0.006,-0.194],[0.0065,-0.194],[0.008,-0.1935],[0.016,-0.186],[0.0285,-0.1735],[0.049,-0.157],[0.089,-0.1255],[0.119,-0.1],[0.138,-0.0785],[0.157,-0.0545],[0.177,-0.0345],[0.2,-0.0105],[0.22,0.0095],[0.243,0.036],[0.2485,0.044],[0.2485,0.0455],[0.2485,0.0455],[0.2485,0.0455],[0.2465,0.044]],[[-0.0055,-0.205],[-0.0055,-0.2035],[-0.0055,-0.201],[-0.0045,-0.197],[-0.0035,-0.187],[-0.0055,-0.1505],[-0.0125,-0.106],[-0.0185,-0.0625],[-0.0195,-0.036],[-0.0195,-0.024],[-0.0195,-0.0195],[-0.0195,-0.018]]]",2,"[22,12]",,,,,,,,,,,,,,soccerfield2.jpg,space,2.087225,0,64,64,92,1,staircase.jpg,volleyballcourt.jpg,skatepark7.jpg,tvstudio2.jpg,,
Image_List_5,,,,,,,,,,,,,,,,44532,2020-11-03_20h36.52.303,analogCatScenes,2020.1.3,Win32,60,"[1500,1000]","[[[0.0005,-0.2035],[0.0005,-0.2035],[0.0005,-0.203],[0.0005,-0.2],[0.004,-0.1835],[0.005,-0.153],[0.008,-0.108],[0.009,-0.071],[0.0125,-0.0495],[0.0165,-0.0355],[0.0195,-0.03],[0.0215,-0.028],[0.023,-0.0255],[0.024,-0.0235],[0.0245,-0.023],[0.0245,-0.0225],[0.0245,-0.0225],[0.0245,-0.0225]],[[-0.0015,-0.1985],[-0.0015,-0.1985],[-0.0015,-0.1985],[-0.0015,-0.1985],[0,-0.1985],[0.0025,-0.1995],[0.007,-0.2015],[0.015,-0.203],[0.025,-0.204],[0.0385,-0.206],[0.054,-0.209],[0.0785,-0.215],[0.099,-0.2185],[0.1205,-0.2205],[0.1505,-0.2225],[0.181,-0.225],[0.2025,-0.227],[0.224,-0.227],[0.23,-0.227],[0.2345,-0.227],[0.239,-0.2255],[0.2435,-0.2215],[0.2545,-0.2115],[0.268,-0.199],[0.2805,-0.1875]]]",2,"[18,25]",,,,,,,,,,,,,,postoffice4.jpg,space,2.01159,0,65,65,82,1,publicrestroom2.jpg,sandDunes_desert_outdoor9.jpg,promenadeDeck3.jpg,readingroom4.jpg,,
Image_List_5,,,,,,,,,,,,,,,,44532,2020-11-03_20h36.52.303,analogCatScenes,2020.1.3,Win32,60,"[1500,1000]","[[[0.0015,-0.205],[0.0015,-0.205],[0.0015,-0.205],[0.0015,-0.205],[0.0025,-0.205],[0.0035,-0.205],[0.009,-0.2075],[0.0205,-0.21],[0.0345,-0.213],[0.0495,-0.215],[0.068,-0.215],[0.088,-0.215],[0.1045,-0.2115],[0.1185,-0.2075],[0.144,-0.199],[0.167,-0.189],[0.19,-0.1755],[0.2045,-0.163],[0.215,-0.1495],[0.219,-0.138],[0.224,-0.1265],[0.2255,-0.1255],[0.231,-0.1195],[0.235,-0.1135],[0.235,-0.113]]]",1,[25],,,,,,,,,,,,,,checkoutcounter9.jpg,space,1.37586,0,66,66,36,1,diner14.jpg,dormroom9.jpg,dining_car3.jpg,doctor1.jpg,,
Image_List_5,,,,,,,,,,,,,,,,44532,2020-11-03_20h36.52.303,analogCatScenes,2020.1.3,Win32,60,"[1500,1000]","[[[-0.003,-0.1905],[-0.003,-0.1905],[-0.003,-0.1905],[-0.003,-0.1905],[-0.004,-0.19],[-0.005,-0.1895],[-0.0065,-0.1875],[-0.01,-0.1785],[-0.021,-0.1615],[-0.0585,-0.096],[-0.0895,-0.0475],[-0.122,-0.0055],[-0.1485,0.0265],[-0.1625,0.045],[-0.1715,0.056],[-0.1765,0.061],[-0.1795,0.0655],[-0.1865,0.0715],[-0.19,0.0755],[-0.193,0.078],[-0.195,0.0795],[-0.1955,0.0805],[-0.196,0.0805],[-0.196,0.0805],[-0.196,0.0805]]]",1,[25],,,,,,,,,,,,,,hayfield7.jpg,space,1.249665,0,67,67,62,1,hotellobby2.jpg,minigolf.jpg,horsebarn8.jpg,lab3.jpg,,
