image_list,key_resp_intructions.keys,key_resp_intructions.rt,key_resp_intructions_3.keys,key_resp_intructions_3.rt,PracticeComplete_2.keys,PracticeComplete_2.rt,PracticeComplete_3.keys,PracticeComplete_3.rt,demo_trials.thisRepN,demo_trials.thisTrialN,demo_trials.thisN,demo_trials.thisIndex,demo_trials.ran,demo_images,path_images,participant,date,expName,psychopyVersion,OS,frameRate,windowSize,drawing,numDrawings,drawingSizes,practice_complete.keys,practice_complete.rt,PracticeComplete.keys,PracticeComplete.rt,practice_trials.thisRepN,practice_trials.thisTrialN,practice_trials.thisN,practice_trials.thisIndex,practice_trials.ran,practice_images,feedback_images,key_resp_intructions_2.keys,key_resp_intructions_2.rt,Image_List_2,trial_complete.keys,trial_complete.rt,trials.thisRepN,trials.thisTrialN,trials.thisN,trials.thisIndex,trials.ran,Image_List_1,Image_List_3,Image_List_4,Image_List_5,key_resp.keys,key_resp.rt
Image_List_2,space,1.467955,space,0.58136,space,1.44412,space,0.086355,0,0,0,2,1,ahead_right.jpg,ahead_right_path.jpg,44545,2020-11-17_17h14.37.547,analogCatScenes,2020.1.3,MacIntel,60,,,,,,,,,,,,,,,,,,,,,,,,,,,,,,,
Image_List_2,,,,,space,0.092475,space,0.11472,0,1,1,5,1,right.jpg,right_path.jpg,44545,2020-11-17_17h14.37.547,analogCatScenes,2020.1.3,MacIntel,60,,,,,,,,,,,,,,,,,,,,,,,,,,,,,,,
Image_List_2,,,,,space,0.00097,space,0.000625,0,2,2,1,1,ahead_left.jpg,ahead_left_path.jpg,44545,2020-11-17_17h14.37.547,analogCatScenes,2020.1.3,MacIntel,60,,,,,,,,,,,,,,,,,,,,,,,,,,,,,,,
Image_List_2,,,,,space,0.00038,space,0.107555,0,3,3,3,1,ahead_right_left.jpg,ahead_right_left_path.jpg,44545,2020-11-17_17h14.37.547,analogCatScenes,2020.1.3,MacIntel,60,,,,,,,,,,,,,,,,,,,,,,,,,,,,,,,
Image_List_2,,,,,space,0.097545,space,0.11035,0,4,4,0,1,ahead.jpg,ahead_path.jpg,44545,2020-11-17_17h14.37.547,analogCatScenes,2020.1.3,MacIntel,60,,,,,,,,,,,,,,,,,,,,,,,,,,,,,,,
Image_List_2,,,,,space,0.087385,space,0.105535,0,5,5,6,1,right_left.jpg,right_left_path.jpg,44545,2020-11-17_17h14.37.547,analogCatScenes,2020.1.3,MacIntel,60,,,,,,,,,,,,,,,,,,,,,,,,,,,,,,,
Image_List_2,,,,,space,0.10739,space,0.111725,0,6,6,4,1,left.jpg,left_path.jpg,44545,2020-11-17_17h14.37.547,analogCatScenes,2020.1.3,MacIntel,60,,,,,,,,,,,,,,,,,,,,,,,,,,,,,,,
Image_List_2,,,,,,,,,,,,,,,,44545,2020-11-17_17h14.37.547,analogCatScenes,2020.1.3,MacIntel,60,"[1440,900]",[],0,[],space,0.117185,space,0.112185,0,0,0,1,1,ahead_left_2.jpg,ahead_left_2_path.jpg,,,,,,,,,,,,,,,,
Image_List_2,,,,,,,,,,,,,,,,44545,2020-11-17_17h14.37.547,analogCatScenes,2020.1.3,MacIntel,60,"[1440,900]",[],0,[],space,0.094455,space,0.11272,0,1,1,3,1,ahead_right_left_2.jpg,ahead_right_left_2_path.jpg,,,,,,,,,,,,,,,,
Image_List_2,,,,,,,,,,,,,,,,44545,2020-11-17_17h14.37.547,analogCatScenes,2020.1.3,MacIntel,60,"[1440,900]",[],0,[],space,0.088735,space,0.11469,0,2,2,0,1,ahead_2.jpg,ahead_2_path.jpg,,,,,,,,,,,,,,,,
Image_List_2,,,,,,,,,,,,,,,,44545,2020-11-17_17h14.37.547,analogCatScenes,2020.1.3,MacIntel,60,"[1440,900]",[],0,[],space,0.11555,space,0.115725,0,3,3,2,1,ahead_right_2.jpg,ahead_right_2_path.jpg,,,,,,,,,,,,,,,,
Image_List_2,,,,,,,,,,,,,,,,44545,2020-11-17_17h14.37.547,analogCatScenes,2020.1.3,MacIntel,60,"[1440,900]",[],0,[],space,0.00108,space,0.00068,0,4,4,4,1,left_2.jpg,left_2_path.jpg,,,,,,,,,,,,,,,,
Image_List_2,,,,,,,,,,,,,,,,44545,2020-11-17_17h14.37.547,analogCatScenes,2020.1.3,MacIntel,60,"[1440,900]",[],0,[],space,0.098165,space,0.08409,0,5,5,6,1,right_left_2.jpg,right_left_2_path.jpg,,,,,,,,,,,,,,,,
Image_List_2,,,,,,,,,,,,,,,,44545,2020-11-17_17h14.37.547,analogCatScenes,2020.1.3,MacIntel,60,"[1440,900]",[],0,[],space,0.11212,space,0.113425,0,6,6,5,1,right_2.jpg,right_2_path.jpg,,,,,,,,,,,,,,,,
Image_List_2,,,,,,,,,,,,,,,,44545,2020-11-17_17h14.37.547,analogCatScenes,2020.1.3,MacIntel,60,"[1440,900]",[],0,[],,,,,,,,,,,,space,0.13343,cave.jpg,space,0.083335,0,0,0,20,1,boardwalk6.jpg,campsite3.jpg,cave4.jpg,basketballcourt7.jpg,,
Image_List_2,,,,,,,,,,,,,,,,44545,2020-11-17_17h14.37.547,analogCatScenes,2020.1.3,MacIntel,60,"[1440,900]",[],0,[],,,,,,,,,,,,,,firestation3.jpg,space,0.817355,0,1,1,42,1,exerciseequipment3.jpg,drymountains6.jpg,farm4.jpg,desertvegetation2.jpg,,
Image_List_2,,,,,,,,,,,,,,,,44545,2020-11-17_17h14.37.547,analogCatScenes,2020.1.3,MacIntel,60,"[1440,900]",[],0,[],,,,,,,,,,,,,,baggageClaim2.jpg,space,0.117305,0,2,2,4,1,artStudio1.jpg,auto_showroom1.jpg,appleorchard3.jpg,alley4.jpg,,
Image_List_2,,,,,,,,,,,,,,,,44545,2020-11-17_17h14.37.547,analogCatScenes,2020.1.3,MacIntel,60,"[1440,900]",[],0,[],,,,,,,,,,,,,,horsebarn11.jpg,space,0.1137,0,3,3,54,1,greenhouse2.jpg,gazebo2.jpg,homegarage4.jpg,frontFoyer.jpg,,
Image_List_2,,,,,,,,,,,,,,,,44545,2020-11-17_17h14.37.547,analogCatScenes,2020.1.3,MacIntel,60,"[1440,900]",[],0,[],,,,,,,,,,,,,,church6.jpg,space,0.12589,0,4,4,22,1,bowlingalley5.jpg,cargo5.jpg,cemetery.jpg,bistrooutdoor6.jpg,,
Image_List_2,,,,,,,,,,,,,,,,44545,2020-11-17_17h14.37.547,analogCatScenes,2020.1.3,MacIntel,60,"[1440,900]",[],0,[],,,,,,,,,,,,,,cemetery6.jpg,space,0.08701,0,5,5,21,1,botanicalGarden6.jpg,campusquad3.jpg,cave5.jpg,beach1.jpeg,,
Image_List_2,,,,,,,,,,,,,,,,44545,2020-11-17_17h14.37.547,analogCatScenes,2020.1.3,MacIntel,60,"[1440,900]",[],0,[],,,,,,,,,,,,,,homeoffice.jpg,space,0.112745,0,6,6,53,1,gazebo3.jpg,frontLawn3.jpg,homegarage3.jpg,fountain.jpg,,
Image_List_2,,,,,,,,,,,,,,,,44545,2020-11-17_17h14.37.547,analogCatScenes,2020.1.3,MacIntel,60,"[1440,900]",[],0,[],,,,,,,,,,,,,,dormroom9.jpg,space,0.126715,0,7,7,36,1,diner14.jpg,dining_car3.jpg,doctor1.jpg,checkoutcounter9.jpg,,
Image_List_2,,,,,,,,,,,,,,,,44545,2020-11-17_17h14.37.547,analogCatScenes,2020.1.3,MacIntel,60,"[1440,900]",[],0,[],,,,,,,,,,,,,,metroInside4.jpg,space,0.099645,0,8,8,61,1,HorseRaceTrack.jpg,homegarden6.jpg,kindergarten_classroom7.jpg,hayfield6.jpg,,
Image_List_2,,,,,,,,,,,,,,,,44545,2020-11-17_17h14.37.547,analogCatScenes,2020.1.3,MacIntel,60,"[1440,900]",[],0,[],,,,,,,,,,,,,,wineVineyard8.jpg,space,0.127125,0,9,9,98,1,weightroom5.jpg,warehouse3.jpg,winebarrel4.jpg,winebarrel2.jpg,,
Image_List_2,,,,,,,,,,,,,,,,44545,2020-11-17_17h14.37.547,analogCatScenes,2020.1.3,MacIntel,60,"[1440,900]",[],0,[],,,,,,,,,,,,,,trainStation5.jpg,space,0.108555,0,10,10,91,1,shoestore2.jpg,skatepark5.jpg,ticket_counter6.jpg,sidewalk3.jpg,,
Image_List_2,,,,,,,,,,,,,,,,44545,2020-11-17_17h14.37.547,analogCatScenes,2020.1.3,MacIntel,60,"[1440,900]",[],0,[],,,,,,,,,,,,,,lab1.jpg,space,0.1137,0,11,11,58,1,highway7.jpg,hedgemaze1.jpg,igloo4.jpg,grocerystore2.jpg,,
Image_List_2,,,,,,,,,,,,,,,,44545,2020-11-17_17h14.37.547,analogCatScenes,2020.1.3,MacIntel,60,"[1440,900]",[],0,[],,,,,,,,,,,,,,campsite6.jpg,space,0.109635,0,12,12,17,1,bikerack1.jpg,breakroom4.jpg,carmechanic.jpg,baseball6.jpg,,
Image_List_2,,,,,,,,,,,,,,,,44545,2020-11-17_17h14.37.547,analogCatScenes,2020.1.3,MacIntel,60,"[1440,900]",[],0,[],,,,,,,,,,,,,,apartmentBuilding1.jpg,space,0.091975,0,13,13,1,1,airportTerminal4.jpg,applestore1.jpg,airportTerminal3.jpg,airportTerminal2.jpg,,
Image_List_2,,,,,,,,,,,,,,,,44545,2020-11-17_17h14.37.547,analogCatScenes,2020.1.3,MacIntel,60,"[1440,900]",[],0,[],,,,,,,,,,,,,,cliff3.jpg,space,0.11496,0,14,14,24,1,campsite.jpg,cave6.jpg,cemetery5.jpg,boardwalk.jpg,,
Image_List_2,,,,,,,,,,,,,,,,44545,2020-11-17_17h14.37.547,analogCatScenes,2020.1.3,MacIntel,60,"[1440,900]",[],0,[],,,,,,,,,,,,,,casino3.jpg,space,0.109125,0,15,15,19,1,boardwalk2.jpg,cafeteria1.jpg,castle4.jpg,basketballcourt.jpg,,
Image_List_2,,,,,,,,,,,,,,,,44545,2020-11-17_17h14.37.547,analogCatScenes,2020.1.3,MacIntel,60,"[1440,900]",[],0,[],,,,,,,,,,,,,,courtroom3.jpg,space,0.091045,0,16,16,27,1,castle3.jpg,churchInside4.jpg,closet.jpg,brewery2.jpg,,
Image_List_2,,,,,,,,,,,,,,,,44545,2020-11-17_17h14.37.547,analogCatScenes,2020.1.3,MacIntel,60,"[1440,900]",[],0,[],,,,,,,,,,,,,,hardwarestore1.jpg,space,0.09799,0,17,17,52,1,gasstation7.jpg,frontFoyer6.jpg,highway.jpg,forestpath2.jpg,,
Image_List_2,,,,,,,,,,,,,,,,44545,2020-11-17_17h14.37.547,analogCatScenes,2020.1.3,MacIntel,60,"[1440,900]","[[[-0.0005425347222222222,-0.19973090277777777],[-0.0005425347222222222,-0.19973090277777777],[-0.0005425347222222222,-0.19973090277777777],[-0.0005425347222222222,-0.19973090277777777],[-0.0005425347222222222,-0.19973090277777777],[-0.004357638888888889,-0.19973090277777777],[-0.02826388888888889,-0.1989453125],[-0.08296006944444445,-0.18098524305555555],[-0.14522569444444444,-0.148046875],[-0.1963671875,-0.11332465277777778],[-0.25583333333333336,-0.06009982638888889],[-0.28552083333333333,-0.028897569444444444],[-0.3013454861111111,-0.007712673611111111],[-0.3063454861111111,-0.0002951388888888889],[-0.30975694444444446,0.006176215277777778]]]",1,[15],,,,,,,,,,,,,,playground6.jpg,space,2.044135,0,18,18,75,1,pantry5.jpg,operatingroom4.jpg,park.jpg,lockerroom.jpg,,
Image_List_2,,,,,,,,,,,,,,,,44545,2020-11-17_17h14.37.547,analogCatScenes,2020.1.3,MacIntel,60,"[1440,900]","[[[0.0051953125,-0.1934157986111111],[0.0051953125,-0.1934157986111111],[0.0051953125,-0.1934157986111111],[0.0051953125,-0.1934157986111111],[0.0051953125,-0.1934157986111111],[0.0051953125,-0.1934157986111111],[0.0051953125,-0.1934157986111111],[0.0051953125,-0.1934157986111111],[0.011631944444444445,-0.18657118055555555],[0.021475694444444443,-0.17549479166666668],[0.04042100694444444,-0.15174913194444445],[0.06639322916666666,-0.10746961805555555],[0.07594184027777778,-0.07646267361111111],[0.08766493055555556,-0.038589409722222225],[0.09276475694444444,-0.018719618055555557],[0.095390625,-0.004605034722222222],[0.09651909722222222,0.0067621527777777775],[0.0969748263888889,0.014791666666666667]]]",1,[18],,,,,,,,,,,,,,cafeteria5.jpg,space,1.092725,0,19,19,15,1,bambooforest4.jpg,bleachers8.jpg,cabinIndoors.jpg,bar8.jpg,,
Image_List_2,,,,,,,,,,,,,,,,44545,2020-11-17_17h14.37.547,analogCatScenes,2020.1.3,MacIntel,60,"[1440,900]","[[[-0.006966145833333334,-0.19922309027777776],[-0.0066927083333333335,-0.19922309027777776],[-0.0066927083333333335,-0.19922309027777776],[-0.0066927083333333335,-0.19922309027777776],[-0.0066927083333333335,-0.19869357638888888],[-0.0066927083333333335,-0.18042100694444443],[-0.004691840277777777,-0.13883680555555555],[0.010881076388888888,-0.08801215277777778],[0.032890625,-0.03868923611111111],[0.05060329861111111,-0.013246527777777777],[0.06225694444444444,0.0026432291666666666],[0.06684461805555555,0.009331597222222222]]]",1,[12],,,,,,,,,,,,,,hallway5.jpg,space,0.83461,0,20,20,51,1,gasstation6.jpg,frontDoor5.jpg,hayfield4.jpg,firestation5.jpg,,
Image_List_2,,,,,,,,,,,,,,,,44545,2020-11-17_17h14.37.547,analogCatScenes,2020.1.3,MacIntel,60,"[1440,900]",[],0,[],,,,,,,,,,,,,,track.jpg,space,0.88392,0,21,21,88,1,rooftop1.jpg,sculpturegarden4.jpg,soccerfield.jpg,sandbox.jpg,,
Image_List_2,,,,,,,,,,,,,,,,44545,2020-11-17_17h14.37.547,analogCatScenes,2020.1.3,MacIntel,60,"[1440,900]","[[[-0.006957465277777778,-0.18969184027777777],[-0.006957465277777778,-0.18969184027777777],[-0.006957465277777778,-0.18969184027777777],[-0.006957465277777778,-0.18969184027777777],[-0.006957465277777778,-0.18969184027777777],[-0.006957465277777778,-0.18969184027777777],[-0.006957465277777778,-0.18969184027777777],[-0.006957465277777778,-0.18835503472222223],[-0.013133680555555555,-0.16898871527777778],[-0.040026041666666665,-0.09686631944444445],[-0.07111979166666667,-0.0062977430555555556],[-0.09545572916666667,0.06392795138888889],[-0.11066840277777777,0.10964409722222222],[-0.12179253472222222,0.13473524305555556],[-0.13253472222222223,0.15351996527777778],[-0.13930989583333334,0.15898871527777778],[-0.1403559027777778,0.1596875]]]",1,[17],,,,,,,,,,,,,,casino1.jpg,space,1.283135,0,22,22,18,1,bleachers5.jpg,brewery4.jpg,castle2.jpg,basement6.jpg,,
Image_List_2,,,,,,,,,,,,,,,,44545,2020-11-17_17h14.37.547,analogCatScenes,2020.1.3,MacIntel,60,"[1440,900]","[[[0.0033550347222222224,-0.19824652777777776],[0.0033550347222222224,-0.19824652777777776],[0.0033550347222222224,-0.19824652777777776],[0.0033550347222222224,-0.19824652777777776],[0.0033550347222222224,-0.19824652777777776],[0.0033550347222222224,-0.19824652777777776],[0.005833333333333334,-0.19631510416666667],[0.03591145833333333,-0.1669140625],[0.09143663194444444,-0.11123697916666667],[0.17754774305555557,-0.03537760416666667],[0.23625434027777778,0.007092013888888889],[0.30917100694444444,0.04123697916666667],[0.33303819444444444,0.045776909722222224],[0.34643229166666667,0.045776909722222224]]]",1,[14],,,,,,,,,,,,,,warehouseoutside1.jpg,space,0.933685,0,23,23,96,1,warehouse4.jpg,tenniscourt3.jpg,windmill1.jpg,warehouse1.jpg,,
Image_List_2,,,,,,,,,,,,,,,,44545,2020-11-17_17h14.37.547,analogCatScenes,2020.1.3,MacIntel,60,"[1440,900]","[[[0.0077083333333333335,-0.20493923611111112],[0.0077083333333333335,-0.20493923611111112],[0.0077083333333333335,-0.20493923611111112],[0.0077083333333333335,-0.20493923611111112],[0.0077083333333333335,-0.20493923611111112],[0.0077083333333333335,-0.20493923611111112],[0.0077083333333333335,-0.20493923611111112],[0.0077083333333333335,-0.20493923611111112],[0.0077083333333333335,-0.20493923611111112],[0.0077083333333333335,-0.20493923611111112],[0.0077083333333333335,-0.20493923611111112],[0.0077083333333333335,-0.20493923611111112],[0.005238715277777778,-0.2029123263888889],[0.0006727430555555556,-0.19834635416666666],[-0.013550347222222222,-0.1868967013888889],[-0.03431857638888889,-0.17157986111111112],[-0.058758680555555554,-0.15280815972222223],[-0.08260850694444444,-0.13531684027777777],[-0.09636284722222223,-0.124140625],[-0.11078559027777778,-0.10906684027777777],[-0.12703125,-0.08903211805555555],[-0.13738715277777777,-0.07114149305555556],[-0.14450520833333333,-0.05988715277777778],[-0.14950086805555557,-0.05134114583333333],[-0.15388020833333332,-0.04452690972222222],[-0.15742621527777778,-0.0405859375],[-0.16058159722222223,-0.038598090277777775],[-0.1649782986111111,-0.035143229166666665],[-0.1695486111111111,-0.030542534722222223],[-0.17340277777777777,-0.023723958333333333],[-0.17340277777777777,-0.023723958333333333],[-0.17340277777777777,-0.023723958333333333],[-0.17340277777777777,-0.023723958333333333],[-0.17340277777777777,-0.023463541666666667],[-0.17340277777777777,-0.023463541666666667],[-0.17340277777777777,-0.023198784722222223],[-0.17340277777777777,-0.023198784722222223],[-0.1728515625,-0.023198784722222223],[-0.1719314236111111,-0.023198784722222223],[-0.17164930555555555,-0.023198784722222223],[-0.17164930555555555,-0.023198784722222223],[-0.17164930555555555,-0.023198784722222223],[-0.17483072916666667,-0.022313368055555557],[-0.1790972222222222,-0.01890190972222222],[-0.18426215277777777,-0.013745659722222222],[-0.19072048611111111,-0.006098090277777778],[-0.19805121527777778,0.006744791666666666],[-0.2059548611111111,0.02814236111111111],[-0.20713541666666666,0.03463541666666667],[-0.20927951388888888,0.04743923611111111],[-0.2097439236111111,0.053975694444444444],[-0.2097439236111111,0.06059027777777778],[-0.2097439236111111,0.06059027777777778],[-0.2097439236111111,0.06059027777777778]]]",1,[54],,,,,,,,,,,,,,playroom4.jpg,space,2.00171,0,24,24,76,1,parkinggarage.jpg,parkinggarage3.jpg,park2.jpg,lookout4.jpg,,
Image_List_2,,,,,,,,,,,,,,,,44545,2020-11-17_17h14.37.547,analogCatScenes,2020.1.3,MacIntel,60,"[1440,900]","[[[0.0003385416666666667,-0.192109375],[0.0003385416666666667,-0.192109375],[0.0003385416666666667,-0.192109375],[0.0003385416666666667,-0.192109375],[0.0003385416666666667,-0.192109375],[0.0003385416666666667,-0.192109375],[0.0003385416666666667,-0.192109375],[0.0003385416666666667,-0.192109375],[-0.0054600694444444445,-0.16938368055555555],[-0.009813368055555556,-0.15197916666666667],[-0.020755208333333334,-0.07975260416666667],[-0.023862847222222223,-0.028077256944444445],[-0.025993923611111112,0.010243055555555556],[-0.028815104166666668,0.053359375],[-0.03125868055555556,0.07657552083333333],[-0.03323784722222222,0.09190972222222223],[-0.03493489583333333,0.10249565972222222],[-0.03763888888888889,0.10846354166666666],[-0.0383984375,0.11149305555555555]]]",1,[19],,,,,,,,,,,,,,yogastudio4.jpg,space,1.43351,0,25,25,99,1,wineVineyard9.jpg,windmill2.jpg,wrestlingring7.jpg,yogastudio1.jpg,,
Image_List_2,,,,,,,,,,,,,,,,44545,2020-11-17_17h14.37.547,analogCatScenes,2020.1.3,MacIntel,60,"[1440,900]","[[[0.0021614583333333334,-0.20682725694444445],[0.0021614583333333334,-0.20682725694444445],[0.0021614583333333334,-0.20682725694444445],[0.0021614583333333334,-0.20682725694444445],[0.0021614583333333334,-0.20682725694444445],[0.0021614583333333334,-0.20682725694444445],[0.0021614583333333334,-0.20682725694444445],[0.0019010416666666668,-0.20682725694444445],[-0.00015190972222222222,-0.20600260416666666],[-0.00943576388888889,-0.2005295138888889],[-0.026297743055555555,-0.19109375],[-0.04517361111111111,-0.1813107638888889],[-0.05776041666666667,-0.17751302083333334],[-0.07485243055555556,-0.17356770833333332],[-0.09549479166666666,-0.1717144097222222],[-0.10177083333333334,-0.1717144097222222],[-0.13148003472222222,-0.1717144097222222],[-0.15084635416666667,-0.1695529513888889],[-0.1631814236111111,-0.16659722222222223],[-0.17315104166666667,-0.16388020833333333],[-0.181171875,-0.16088975694444443],[-0.18587239583333334,-0.1591796875],[-0.1880295138888889,-0.1584765625],[-0.1883203125,-0.1584765625]]]",1,[24],,,,,,,,,,,,,,theater2.jpg,space,1.23242,0,26,26,87,1,restaurantkitchen2.jpg,savanna.jpg,sculpturegarden2.jpg,RVinside2.jpg,,
Image_List_2,,,,,,,,,,,,,,,,44545,2020-11-17_17h14.37.547,analogCatScenes,2020.1.3,MacIntel,60,"[1440,900]","[[[-0.003923611111111111,-0.199375],[-0.003923611111111111,-0.199375],[-0.003923611111111111,-0.199375],[-0.003923611111111111,-0.199375],[-0.003923611111111111,-0.199375],[-0.003923611111111111,-0.199375],[-0.003923611111111111,-0.199375],[-0.003923611111111111,-0.199375],[-0.003923611111111111,-0.199375],[-0.003923611111111111,-0.199375],[-0.003923611111111111,-0.19501736111111112],[0.005043402777777778,-0.1773046875],[0.02325954861111111,-0.1427387152777778],[0.05460503472222222,-0.09302951388888889],[0.09805121527777778,-0.03895833333333333],[0.12852864583333334,-0.00640625],[0.15063368055555557,0.01342013888888889],[0.16567274305555554,0.024270833333333332],[0.17717881944444444,0.032209201388888886],[0.18092447916666668,0.03418836805555556]]]",1,[20],,,,,,,,,,,,,,conference3.jpg,space,0.953125,0,27,27,25,1,campsite7.jpg,church3.jpg,checkoutcounter2.jpg,botanicalGarden4.jpg,,
Image_List_2,,,,,,,,,,,,,,,,44545,2020-11-17_17h14.37.547,analogCatScenes,2020.1.3,MacIntel,60,"[1440,900]","[[[0.005056423611111111,-0.20103732638888888],[0.005056423611111111,-0.20103732638888888],[0.005056423611111111,-0.20103732638888888],[0.005056423611111111,-0.20103732638888888],[0.005056423611111111,-0.20103732638888888],[0.005056423611111111,-0.20103732638888888],[0.005056423611111111,-0.20103732638888888],[0.002907986111111111,-0.20103732638888888],[-0.016644965277777778,-0.20103732638888888],[-0.05262152777777778,-0.20103732638888888],[-0.08383680555555556,-0.20103732638888888],[-0.12356770833333333,-0.20103732638888888],[-0.1444357638888889,-0.20103732638888888],[-0.16605034722222223,-0.19671440972222223],[-0.179765625,-0.19047743055555555],[-0.189375,-0.1842578125],[-0.19644097222222223,-0.17661892361111112],[-0.20544270833333333,-0.15948350694444444],[-0.20851128472222222,-0.13403211805555557],[-0.2124001736111111,-0.08779513888888889],[-0.2124001736111111,-0.02882378472222222],[-0.2124001736111111,-0.004743923611111111],[-0.2124001736111111,0.009717881944444444],[-0.2124001736111111,0.022052951388888888],[-0.21369791666666665,0.027413194444444445],[-0.21483506944444444,0.028550347222222223],[-0.21611111111111111,0.02982638888888889]]]",1,[27],,,,,,,,,,,,,,park7.jpg,space,1.234905,0,28,28,67,1,library_aisle3.jpg,laundromat4.jpg,liquorstore2.jpg,hospitalroom2.jpg,,
Image_List_2,,,,,,,,,,,,,,,,44545,2020-11-17_17h14.37.547,analogCatScenes,2020.1.3,MacIntel,60,"[1440,900]","[[[-0.010086805555555555,-0.19661024305555555],[-0.010086805555555555,-0.19661024305555555],[-0.010086805555555555,-0.19661024305555555],[-0.010086805555555555,-0.19661024305555555],[-0.010086805555555555,-0.18866319444444443],[-0.010086805555555555,-0.16582899305555557],[-0.010086805555555555,-0.13993055555555556],[-0.010086805555555555,-0.1038107638888889],[-0.010086805555555555,-0.07161892361111111],[-0.010086805555555555,-0.044934895833333335],[-0.010086805555555555,-0.020881076388888888],[-0.010086805555555555,0.004457465277777778],[-0.010086805555555555,0.04604166666666667]]]",1,[13],,,,,,,,,,,,,,bambooforest.jpg,space,1.95209,0,29,29,5,1,artStudio3.jpg,auto_showroom4.jpg,attic4.jpg,amusement3.jpg,,
Image_List_2,,,,,,,,,,,,,,,,44545,2020-11-17_17h14.37.547,analogCatScenes,2020.1.3,MacIntel,60,"[1440,900]","[[[-0.0013628472222222223,-0.19012152777777777],[-0.0013628472222222223,-0.19012152777777777],[-0.0013628472222222223,-0.19012152777777777],[-0.0013628472222222223,-0.19012152777777777],[-0.0013628472222222223,-0.19012152777777777],[-0.0013628472222222223,-0.18791666666666668],[-0.0013628472222222223,-0.16381076388888888],[-0.0013628472222222223,-0.1208203125],[-0.0013628472222222223,-0.08642361111111112],[-0.0013628472222222223,-0.05846354166666667],[-0.0013628472222222223,-0.034266493055555555],[-0.0013628472222222223,-0.020221354166666667],[-0.0013628472222222223,-0.012886284722222223],[-0.0013628472222222223,-0.006983506944444444],[-0.0013628472222222223,-0.00037760416666666666],[-0.0013628472222222223,0.00765625],[0.000234375,0.016614583333333332]]]",1,[17],,,,,,,,,,,,,,cornfield4.jpg,space,0.94985,0,30,30,26,1,campusquad2.jpg,church4.jpg,churchInside3.jpg,botanicalGarden7.jpg,,
Image_List_2,,,,,,,,,,,,,,,,44545,2020-11-17_17h14.37.547,analogCatScenes,2020.1.3,MacIntel,60,"[1440,900]","[[[0.00043836805555555556,-0.19839409722222223],[0.00043836805555555556,-0.19839409722222223],[0.00043836805555555556,-0.19839409722222223],[0.00043836805555555556,-0.19839409722222223],[0.00043836805555555556,-0.1931032986111111],[0.00043836805555555556,-0.17901909722222223],[0.00043836805555555556,-0.15372395833333333],[0.00043836805555555556,-0.1103515625],[0.00043836805555555556,-0.08713541666666667],[0.00043836805555555556,-0.0716970486111111],[0.00043836805555555556,-0.06424045138888888],[0.00043836805555555556,-0.06189670138888889],[0.00043836805555555556,-0.061263020833333334],[0.00043836805555555556,-0.061263020833333334]]]",1,[14],,,,,,,,,,,,,,pharmacy4.jpg,space,0.798905,0,31,31,72,1,museum5.jpg,musicStore1.jpg,museum4.jpg,kindergarten_classroom.jpg,,
Image_List_2,,,,,,,,,,,,,,,,44545,2020-11-17_17h14.37.547,analogCatScenes,2020.1.3,MacIntel,60,"[1440,900]","[[[-0.003611111111111111,-0.19644097222222223],[-0.003611111111111111,-0.19644097222222223],[-0.003611111111111111,-0.19644097222222223],[-0.003611111111111111,-0.19644097222222223],[-0.0046875,-0.19644097222222223],[-0.016553819444444444,-0.1938064236111111],[-0.028567708333333334,-0.18508246527777777],[-0.046236979166666664,-0.17032986111111112],[-0.05584201388888889,-0.1622265625],[-0.07529947916666667,-0.14881510416666666],[-0.09009982638888889,-0.1417578125],[-0.10757378472222222,-0.13365451388888888],[-0.12768663194444443,-0.12012586805555556],[-0.14532552083333333,-0.10089409722222223],[-0.1539670138888889,-0.08437934027777778],[-0.1587326388888889,-0.07164496527777778],[-0.1614453125,-0.058502604166666666]]]",1,[17],,,,,,,,,,,,,,sculpturegarden1.jpg,space,1.001315,0,32,32,83,1,readingroom1.jpg,promenadeDeck6.jpg,restaurant8.jpg,readingroom2.jpg,,
Image_List_2,,,,,,,,,,,,,,,,44545,2020-11-17_17h14.37.547,analogCatScenes,2020.1.3,MacIntel,60,"[1440,900]","[[[-0.001115451388888889,-0.19755642361111111],[-0.001115451388888889,-0.19755642361111111],[-0.001115451388888889,-0.19755642361111111],[-0.001115451388888889,-0.19755642361111111],[-0.001115451388888889,-0.19755642361111111],[-0.001115451388888889,-0.19755642361111111],[-0.0013758680555555555,-0.19755642361111111],[-0.01583767361111111,-0.19755642361111111],[-0.06751302083333334,-0.1913498263888889],[-0.11233506944444445,-0.17161458333333332],[-0.1686111111111111,-0.1350390625],[-0.19690538194444446,-0.10805989583333334],[-0.20939670138888888,-0.092109375],[-0.21508680555555557,-0.08541666666666667],[-0.21860243055555556,-0.08095920138888889],[-0.21895399305555555,-0.07991319444444445],[-0.21895399305555555,-0.07991319444444445],[-0.21895399305555555,-0.07991319444444445]]]",1,[18],,,,,,,,,,,,,,eyeglassstore9.jpg,space,0.866035,0,33,33,39,1,driveway6.jpg,drycleaners6.jpg,drymountains5.jpg,cliff5.jpg,,
Image_List_2,,,,,,,,,,,,,,,,44545,2020-11-17_17h14.37.547,analogCatScenes,2020.1.3,MacIntel,60,"[1440,900]","[[[0.0006076388888888889,-0.1944140625],[0.0006076388888888889,-0.1944140625],[0.0006076388888888889,-0.1944140625],[0.0006076388888888889,-0.1944140625],[0.0006076388888888889,-0.1944140625],[0.0006076388888888889,-0.1944140625],[0.0006076388888888889,-0.1944140625],[0.0006076388888888889,-0.19151475694444445],[0.008059895833333334,-0.17399305555555555],[0.026588541666666667,-0.14626302083333334],[0.06411024305555556,-0.10750868055555556],[0.09409722222222222,-0.08296006944444445],[0.11114149305555555,-0.07411892361111111],[0.11952690972222223,-0.06977864583333333],[0.1268532986111111,-0.06735243055555555],[0.1268532986111111,-0.06735243055555555]]]",1,[16],,,,,,,,,,,,,,photographer_studio2.jpg,space,1.086135,0,34,34,73,1,musicStore3.jpg,nursery.jpg,nursery4.jpg,library_aisle9.jpg,,
Image_List_2,,,,,,,,,,,,,,,,44545,2020-11-17_17h14.37.547,analogCatScenes,2020.1.3,MacIntel,60,"[1440,900]","[[[0.0004253472222222222,-0.1990581597222222],[0.0004253472222222222,-0.1990581597222222],[0.0004253472222222222,-0.1990581597222222],[0.0004253472222222222,-0.1990581597222222],[0.0004253472222222222,-0.1990581597222222],[0.0004253472222222222,-0.1990581597222222],[0.0004253472222222222,-0.19772135416666667],[0.0004253472222222222,-0.17688368055555556],[-0.006089409722222223,-0.13702256944444444],[-0.009722222222222222,-0.10388888888888889],[-0.01704861111111111,-0.06449652777777778],[-0.018046875,-0.05569878472222222],[-0.02099826388888889,-0.04252170138888889],[-0.022873263888888887,-0.03592881944444445],[-0.024110243055555557,-0.031822916666666666],[-0.024813368055555556,-0.029730902777777776],[-0.024813368055555556,-0.028515625],[-0.024813368055555556,-0.026848958333333332],[-0.017651909722222223,-0.024956597222222224],[0.005928819444444444,-0.0196875],[0.04374131944444445,-0.011614583333333333],[0.09442708333333333,0.0005555555555555556],[0.13039496527777777,0.009552951388888889],[0.17146701388888888,0.022925347222222222],[0.20725694444444445,0.03635416666666667],[0.24356336805555556,0.05088107638888889],[0.2768923611111111,0.0611328125],[0.3009765625,0.06376302083333334],[0.31702256944444446,0.06451822916666666],[0.32669270833333336,0.06451822916666666],[0.33100260416666666,0.06423177083333333]]]",1,[31],,,,,,,,,,,,,,dancestudio5.jpg,space,1.133765,0,35,35,28,1,churchInside1.jpg,citystreet10.jpg,clothingstore5.jpg,bridalboutique2.jpg,,
Image_List_2,,,,,,,,,,,,,,,,44545,2020-11-17_17h14.37.547,analogCatScenes,2020.1.3,MacIntel,60,"[1440,900]","[[[-0.005177951388888889,-0.19661458333333334],[-0.005177951388888889,-0.19661458333333334],[-0.005177951388888889,-0.19661458333333334],[-0.005177951388888889,-0.19661458333333334],[-0.005177951388888889,-0.19661458333333334],[-0.005177951388888889,-0.19661458333333334],[-0.005177951388888889,-0.1952734375],[-0.005177951388888889,-0.18540798611111112],[-0.005177951388888889,-0.1565842013888889],[-0.005177951388888889,-0.09030815972222223],[-0.005177951388888889,-0.04119357638888889],[-0.005177951388888889,-0.0196484375],[-0.005177951388888889,-0.003168402777777778],[-0.005177951388888889,0.005403645833333333],[-0.005177951388888889,0.014982638888888889],[-0.005177951388888889,0.017669270833333334],[-0.005177951388888889,0.028741319444444444]]]",1,[17],,,,,,,,,,,,,,dock3.jpg,space,1.065175,0,36,36,35,1,deck5.jpg,cubicle7.jpg,dining_car6.jpg,carmechanic2.jpg,,
Image_List_2,,,,,,,,,,,,,,,,44545,2020-11-17_17h14.37.547,analogCatScenes,2020.1.3,MacIntel,60,"[1440,900]","[[[-0.0028472222222222223,-0.20413628472222223],[-0.0028472222222222223,-0.20413628472222223],[-0.0028472222222222223,-0.20413628472222223],[-0.0028472222222222223,-0.20413628472222223],[-0.0028472222222222223,-0.20413628472222223],[-0.0028472222222222223,-0.20413628472222223],[-0.0028472222222222223,-0.20413628472222223],[-0.0028472222222222223,-0.19920572916666668],[-0.0028472222222222223,-0.17123697916666666],[-0.0028472222222222223,-0.14661458333333333],[-0.0028472222222222223,-0.1093185763888889],[-0.0028472222222222223,-0.07723524305555556],[-0.0028472222222222223,-0.02812934027777778],[-0.0028472222222222223,0.011731770833333334],[-0.0028472222222222223,0.0736501736111111],[-0.0028472222222222223,0.12403211805555556],[-0.0028472222222222223,0.15470920138888888],[-0.0028472222222222223,0.17377604166666666]]]",1,[18],,,,,,,,,,,,,,warehouse2.jpg,space,1.01936,0,37,37,95,1,waitingroom2.jpg,stripmall6.jpg,weightroom4.jpg,tvstudio3.jpg,,
Image_List_2,,,,,,,,,,,,,,,,44545,2020-11-17_17h14.37.547,analogCatScenes,2020.1.3,MacIntel,60,"[1440,900]","[[[0.00328125,-0.20537326388888888],[0.00328125,-0.20537326388888888],[0.00328125,-0.20537326388888888],[0.00328125,-0.20537326388888888],[0.00328125,-0.20537326388888888],[0.00328125,-0.20537326388888888],[0.0030208333333333333,-0.20537326388888888],[-0.005915798611111111,-0.20537326388888888],[-0.03753472222222222,-0.20537326388888888],[-0.0822482638888889,-0.20537326388888888],[-0.13762152777777778,-0.20537326388888888],[-0.19202690972222222,-0.20537326388888888],[-0.22741753472222223,-0.20537326388888888],[-0.26561631944444447,-0.20537326388888888],[-0.2832942708333333,-0.20461805555555557],[-0.29559461805555554,-0.20254774305555556],[-0.3037109375,-0.20046875],[-0.30680989583333335,-0.19935763888888888],[-0.3077387152777778,-0.19903645833333333]]]",1,[19],,,,,,,,,,,,,,stripmall.jpg,space,1.16462,0,38,38,86,1,restaurant14.jpg,ruralroad3.jpg,sandDunes_desert_outdoor8.jpg,rooftop4.jpg,,
Image_List_2,,,,,,,,,,,,,,,,44545,2020-11-17_17h14.37.547,analogCatScenes,2020.1.3,MacIntel,60,"[1440,900]","[[[-0.0007899305555555555,-0.19641493055555556],[-0.0007899305555555555,-0.19641493055555556],[-0.0007899305555555555,-0.19641493055555556],[-0.0007899305555555555,-0.19641493055555556],[-0.0007899305555555555,-0.19641493055555556],[-0.0007899305555555555,-0.19641493055555556],[0.007994791666666667,-0.188828125],[0.017013888888888887,-0.18055989583333334],[0.042118055555555554,-0.15635416666666666],[0.05896267361111111,-0.13971788194444446],[0.07162760416666666,-0.12720486111111112],[0.08256076388888889,-0.11497395833333333],[0.08911892361111111,-0.10387586805555556],[0.09,-0.09858072916666667],[0.09,-0.09196614583333333],[0.09,-0.08660590277777777],[0.09,-0.08065972222222222],[0.09,-0.07540364583333334]]]",1,[18],,,,,,,,,,,,,,hut3.jpg,space,2.15073,0,39,39,56,1,grocerystore5.jpg,golfcourse10.jpg,hut1.jpg,gasstation2.jpg,,
Image_List_2,,,,,,,,,,,,,,,,44545,2020-11-17_17h14.37.547,analogCatScenes,2020.1.3,MacIntel,60,"[1440,900]","[[[0.0018272569444444445,-0.19335069444444444],[0.0018272569444444445,-0.19335069444444444],[0.0018272569444444445,-0.19335069444444444],[0.0018272569444444445,-0.19335069444444444],[0.0018272569444444445,-0.19335069444444444],[0.0018272569444444445,-0.19335069444444444],[0.0010373263888888888,-0.19335069444444444],[-0.013172743055555556,-0.19335069444444444],[-0.0630859375,-0.19335069444444444],[-0.09127604166666667,-0.18802083333333333],[-0.1304861111111111,-0.1701909722222222],[-0.16957899305555554,-0.13410590277777779],[-0.19074652777777779,-0.09269965277777778],[-0.20052083333333334,-0.05586805555555555],[-0.2053472222222222,0.0061805555555555555],[-0.2053472222222222,0.037760416666666664],[-0.19713107638888888,0.07549479166666667],[-0.17706163194444444,0.12595052083333333],[-0.155078125,0.16717013888888888],[-0.12805989583333333,0.20834635416666666],[-0.10414930555555556,0.23672309027777777],[-0.07845052083333333,0.2550130208333333],[-0.054357638888888886,0.26591145833333335],[-0.03801215277777778,0.27118055555555554],[-0.011254340277777778,0.2785503472222222],[0.0019140625,0.2826953125],[0.013519965277777778,0.28793836805555556],[0.022625868055555557,0.2927777777777778],[0.03173177083333333,0.2976171875],[0.037300347222222224,0.3009592013888889],[0.04321614583333333,0.3036892361111111],[0.047313368055555555,0.3053385416666667],[0.05087673611111111,0.30733072916666665],[0.05443142361111111,0.3093185763888889],[0.057708333333333334,0.31128038194444446],[0.060260416666666664,0.3127387152777778],[0.06152777777777778,0.3136979166666667],[0.062100694444444444,0.31427951388888886],[0.06267361111111111,0.3145703125],[0.06336805555555555,0.3167274305555556],[0.0640625,0.32033854166666664],[0.0640625,0.3234375],[0.06148871527777778,0.3267013888888889],[0.05796440972222222,0.32871527777777776],[0.05796440972222222,0.32871527777777776],[0.05796440972222222,0.32871527777777776],[0.05796440972222222,0.32871527777777776],[0.05796440972222222,0.32871527777777776],[0.05796440972222222,0.32871527777777776]]]",1,[49],,,,,,,,,,,,,,racecarcourse2.jpg,space,1.584055,0,40,40,80,1,pavilion2.jpg,porch.jpg,poolhall5.jpg,parkinggarage4.jpg,,
Image_List_2,,,,,,,,,,,,,,,,44545,2020-11-17_17h14.37.547,analogCatScenes,2020.1.3,MacIntel,60,"[1440,900]","[[[0.0012326388888888888,-0.19856336805555555],[0.0012326388888888888,-0.19856336805555555],[0.0012326388888888888,-0.19856336805555555],[0.0012326388888888888,-0.19856336805555555],[-0.0004427083333333333,-0.19856336805555555],[-0.010321180555555556,-0.19197482638888888],[-0.029552951388888887,-0.17418402777777778],[-0.05858506944444444,-0.14418836805555554],[-0.09525607638888889,-0.10858072916666667],[-0.13411458333333334,-0.07174913194444445],[-0.17713541666666666,-0.03818142361111111],[-0.20033854166666668,-0.024453125],[-0.2242578125,-0.010907118055555555],[-0.2295529513888889,-0.006788194444444445],[-0.23704427083333332,0.0017230902777777778],[-0.23836805555555557,0.0070182291666666665],[-0.23836805555555557,0.022135416666666668],[-0.23730034722222224,0.03326822916666667]]]",1,[18],,,,,,,,,,,,,,minigolf.jpg,space,2.200575,0,41,41,62,1,hotellobby2.jpg,horsebarn8.jpg,lab3.jpg,hayfield7.jpg,,
Image_List_2,,,,,,,,,,,,,,,,44545,2020-11-17_17h14.37.547,analogCatScenes,2020.1.3,MacIntel,60,"[1440,900]","[[[-0.001796875,-0.2003081597222222],[-0.001796875,-0.2003081597222222],[-0.001796875,-0.2003081597222222],[-0.001796875,-0.2003081597222222],[-0.0028776041666666668,-0.2003081597222222],[-0.0096484375,-0.1987326388888889],[-0.028763020833333333,-0.18481770833333333],[-0.04796440972222222,-0.16717881944444443],[-0.08115451388888889,-0.12127604166666667],[-0.09856336805555556,-0.07944878472222222],[-0.11143229166666667,-0.022065972222222223],[-0.11594618055555556,0.022825520833333335],[-0.11594618055555556,0.036822916666666664],[-0.11594618055555556,0.056028645833333335],[-0.11594618055555556,0.06270399305555556],[-0.11594618055555556,0.06375]]]",1,[16],,,,,,,,,,,,,,desertvegetation3.jpg,space,1.016495,0,42,42,30,1,courthouse1.jpg,clothingstore2.jpg,copyroom2.jpg,bus_shelter3.jpg,,
Image_List_2,,,,,,,,,,,,,,,,44545,2020-11-17_17h14.37.547,analogCatScenes,2020.1.3,MacIntel,60,"[1440,900]","[[[-0.001640625,-0.190546875],[-0.001640625,-0.190546875],[-0.001640625,-0.190546875],[-0.001640625,-0.190546875],[-0.001640625,-0.190546875],[-0.001640625,-0.190546875],[-0.001640625,-0.190546875],[-0.008337673611111112,-0.190546875],[-0.0158203125,-0.18359809027777776],[-0.024813368055555556,-0.16944010416666666],[-0.03418402777777778,-0.14446614583333334],[-0.04621527777777778,-0.10130642361111111],[-0.05078993055555556,-0.06932725694444444],[-0.05266927083333333,-0.04210503472222222],[-0.05345486111111111,-0.018159722222222223],[-0.05345486111111111,-0.003949652777777778],[-0.048498263888888886,0.004596354166666667],[-0.03989583333333333,0.0105078125],[-0.02669704861111111,0.01869357638888889],[-0.006883680555555555,0.03112847222222222],[0.011840277777777778,0.04337673611111111],[0.030972222222222224,0.05737847222222222],[0.054778645833333334,0.07374131944444444],[0.07138020833333333,0.08411458333333334],[0.07929253472222222,0.08883246527777777],[0.08563802083333333,0.09370659722222222],[0.0903515625,0.09890190972222222],[0.09217013888888889,0.10484809027777778],[0.09301649305555555,0.10967447916666667],[0.0934548611111111,0.11232204861111111]]]",1,[30],,,,,,,,,,,,,,attic1.jpg,space,1.27191,0,43,43,3,1,apartmentBuilding2.jpg,aquarium1.jpg,appleorchard2.jpg,alley3.jpg,,
Image_List_2,,,,,,,,,,,,,,,,44545,2020-11-17_17h14.37.547,analogCatScenes,2020.1.3,MacIntel,60,"[1440,900]","[[[0.0014236111111111112,-0.1960199652777778],[0.0014236111111111112,-0.1960199652777778],[0.0014236111111111112,-0.1960199652777778],[0.0014236111111111112,-0.1960199652777778],[0.0014236111111111112,-0.1960199652777778],[0.0014236111111111112,-0.1960199652777778],[0.0014236111111111112,-0.1960199652777778],[0.0014236111111111112,-0.1960199652777778],[-0.0007335069444444444,-0.19159722222222222],[-0.008702256944444445,-0.17936197916666666],[-0.022630208333333332,-0.16405381944444444],[-0.040299479166666666,-0.14854600694444445],[-0.05483072916666667,-0.14027777777777778],[-0.06325086805555556,-0.13575520833333332],[-0.07155815972222222,-0.13100260416666668],[-0.07525607638888888,-0.1285373263888889],[-0.0785546875,-0.11887586805555556],[-0.0785546875,-0.10931423611111112]]]",1,[18],,,,,,,,,,,,,,frontFoyer7.jpg,space,1.16799,0,44,44,45,1,fittingroom2.jpg,factory1.jpg,forestpath4.jpg,dock4.jpg,,
Image_List_2,,,,,,,,,,,,,,,,44545,2020-11-17_17h14.37.547,analogCatScenes,2020.1.3,MacIntel,60,"[1440,900]","[[[0.002829861111111111,-0.20726128472222222],[0.002829861111111111,-0.20726128472222222],[0.002829861111111111,-0.20726128472222222],[0.002829861111111111,-0.20726128472222222],[0.002829861111111111,-0.20726128472222222],[-0.0022569444444444442,-0.20726128472222222],[-0.023151041666666667,-0.20726128472222222],[-0.042456597222222225,-0.20726128472222222],[-0.05328993055555555,-0.20615885416666666],[-0.06677951388888889,-0.20129340277777777],[-0.07713541666666666,-0.19746527777777778],[-0.08217881944444444,-0.19506944444444443],[-0.08575086805555555,-0.1942751736111111],[-0.08635850694444444,-0.19364149305555556],[-0.08635850694444444,-0.19364149305555556],[-0.08581597222222222,-0.19364149305555556],[-0.07523871527777778,-0.19364149305555556],[-0.056163194444444446,-0.19364149305555556],[-0.009796006944444444,-0.194609375],[0.02755642361111111,-0.1963888888888889],[0.0739236111111111,-0.1963888888888889],[0.11171006944444445,-0.1963888888888889],[0.15707465277777777,-0.193125],[0.18638020833333332,-0.18823784722222223],[0.21513888888888888,-0.18344184027777777],[0.23371527777777779,-0.17864583333333334],[0.24557291666666667,-0.1752517361111111],[0.25518229166666667,-0.1715060763888889],[0.2632204861111111,-0.16609809027777778],[0.26904947916666666,-0.16120225694444446],[0.2756163194444444,-0.1550998263888889],[0.28079427083333336,-0.15035590277777777],[0.28553819444444445,-0.14516927083333334],[0.2884071180555556,-0.14187934027777777],[0.28941840277777775,-0.1401953125],[0.28973524305555554,-0.13897569444444444],[0.28973524305555554,-0.13745659722222223],[0.28973524305555554,-0.13473090277777777],[0.28973524305555554,-0.13163194444444445],[0.28973524305555554,-0.1305859375]]]",1,[40],,,,,,,,,,,,,,diningroom1.jpg,space,1.251095,0,45,45,33,1,deck1.jpg,courthouse2.jpg,diner10.jpg,cabinIndoors5.jpg,,
Image_List_2,,,,,,,,,,,,,,,,44545,2020-11-17_17h14.37.547,analogCatScenes,2020.1.3,MacIntel,60,"[1440,900]","[[[0.0015451388888888889,-0.19983940972222222],[0.0015451388888888889,-0.19983940972222222],[0.0015451388888888889,-0.19983940972222222],[0.0015451388888888889,-0.19983940972222222],[0.0015451388888888889,-0.19983940972222222],[0.0015451388888888889,-0.19983940972222222],[0.005104166666666667,-0.19983940972222222],[0.02587673611111111,-0.19118489583333334],[0.0591796875,-0.1763237847222222],[0.10567274305555556,-0.15048177083333333],[0.13615451388888888,-0.13355034722222223],[0.15673177083333334,-0.12091145833333333],[0.17265625,-0.108515625],[0.18,-0.09947048611111112],[0.18488715277777779,-0.08691840277777778],[0.1854904513888889,-0.06708333333333333],[0.1854904513888889,-0.049965277777777775],[0.1854904513888889,-0.042534722222222224],[0.1854904513888889,-0.03526041666666667],[0.18513888888888888,-0.0326953125],[0.18409288194444445,-0.031996527777777777]]]",1,[21],,,,,,,,,,,,,,waitingroom3.jpg,space,0.917845,0,46,46,94,1,treehouse.jpg,staircase6.jpg,weightroom.jpg,trainStation3.jpg,,
Image_List_2,,,,,,,,,,,,,,,,44545,2020-11-17_17h14.37.547,analogCatScenes,2020.1.3,MacIntel,60,"[1440,900]","[[[-0.004036458333333334,-0.19812065972222223],[-0.004036458333333334,-0.19812065972222223],[-0.004036458333333334,-0.19812065972222223],[-0.004036458333333334,-0.19812065972222223],[-0.004036458333333334,-0.19812065972222223],[-0.008463541666666666,-0.19812065972222223],[-0.02701388888888889,-0.19383680555555555],[-0.05401909722222222,-0.1749045138888889],[-0.08555555555555555,-0.13516493055555556],[-0.10193576388888889,-0.09880208333333333],[-0.11104166666666666,-0.06950086805555555],[-0.1174045138888889,-0.04237413194444444],[-0.11837673611111112,-0.0009809027777777778],[-0.11674913194444445,0.02541232638888889],[-0.10391927083333333,0.06282986111111111],[-0.08661024305555555,0.11068142361111111],[-0.07518229166666666,0.13880642361111112],[-0.06635416666666667,0.16418402777777777],[-0.05712239583333333,0.18873697916666668],[-0.049609375,0.20219618055555555]]]",1,[20],,,,,,,,,,,,,,forestpath10.jpg,space,1.00109,0,47,47,43,1,exerciseequipment5.jpg,dugout2.jpg,foodcourt.jpg,diningroom3.jpg,,
Image_List_2,,,,,,,,,,,,,,,,44545,2020-11-17_17h14.37.547,analogCatScenes,2020.1.3,MacIntel,60,"[1440,900]","[[[0.005646701388888889,-0.20594618055555555],[0.005646701388888889,-0.20594618055555555],[0.005646701388888889,-0.20594618055555555],[0.005646701388888889,-0.20594618055555555],[0.005646701388888889,-0.20594618055555555],[0.005646701388888889,-0.20594618055555555],[0.0017795138888888889,-0.20010416666666667],[-0.0065234375,-0.18936631944444443],[-0.018120659722222224,-0.17444878472222222],[-0.030811631944444445,-0.15821614583333332],[-0.04161892361111111,-0.13876302083333333],[-0.045911458333333335,-0.12621527777777777],[-0.05083767361111111,-0.11275607638888889],[-0.05319444444444445,-0.100546875],[-0.05517361111111111,-0.08493055555555555],[-0.05517361111111111,-0.06776475694444445],[-0.05517361111111111,-0.042426215277777776],[-0.05517361111111111,-0.02296440972222222],[-0.05517361111111111,-0.011597222222222222],[-0.05517361111111111,-0.0034809027777777776],[-0.05692274305555556,0.0002560763888888889],[-0.05756076388888889,0.0002560763888888889]]]",1,[22],,,,,,,,,,,,,,golfcourse6.jpg,space,1.00059,0,48,48,48,1,frontDoor2.jpg,fittingroom5.jpg,golfcourse7.jpg,fabricstore2.jpg,,
Image_List_2,,,,,,,,,,,,,,,,44545,2020-11-17_17h14.37.547,analogCatScenes,2020.1.3,MacIntel,60,"[1440,900]","[[[0.009361979166666666,-0.1982421875],[0.009361979166666666,-0.1982421875],[0.009361979166666666,-0.1982421875],[0.009361979166666666,-0.1982421875],[0.009361979166666666,-0.1982421875],[0.009361979166666666,-0.1982421875],[0.009361979166666666,-0.1982421875],[0.009361979166666666,-0.1982421875],[0.009361979166666666,-0.19745659722222222],[0.01263454861111111,-0.1862890625],[0.025377604166666668,-0.16543836805555556],[0.05025173611111111,-0.1333029513888889],[0.07317274305555556,-0.10667534722222222],[0.10231336805555556,-0.07655381944444445],[0.1183203125,-0.059661458333333334],[0.13405381944444444,-0.04324652777777778],[0.1404296875,-0.036115451388888886],[0.14467447916666668,-0.031041666666666665],[0.14665364583333335,-0.027881944444444445],[0.14885416666666668,-0.0244140625],[0.15112847222222223,-0.02213107638888889],[0.1542795138888889,-0.017795138888888888],[0.15532118055555555,-0.015703125]]]",1,[23],,,,,,,,,,,,,,gasstation8.jpg,space,1.08473,0,49,49,47,1,frontDoor.jpg,firestation4.jpg,fountain7.jpg,elevatorOutside2.jpg,,
Image_List_2,,,,,,,,,,,,,,,,44545,2020-11-17_17h14.37.547,analogCatScenes,2020.1.3,MacIntel,60,"[1440,900]","[[[0.007643229166666667,-0.19881944444444444],[0.007643229166666667,-0.19881944444444444],[0.007643229166666667,-0.19881944444444444],[0.007643229166666667,-0.19881944444444444],[0.007113715277777778,-0.19828993055555555],[0.0007291666666666667,-0.19115885416666667],[-0.008715277777777778,-0.1785503472222222],[-0.02240451388888889,-0.16125868055555556],[-0.03588541666666667,-0.143515625],[-0.047174479166666665,-0.12522569444444445],[-0.057074652777777776,-0.10689670138888889],[-0.06200954861111111,-0.09328993055555555],[-0.0644921875,-0.083203125],[-0.06648871527777778,-0.07589409722222222],[-0.06648871527777778,-0.07285590277777777],[-0.06648871527777778,-0.07192708333333334],[-0.06648871527777778,-0.07192708333333334],[-0.06768229166666667,-0.071328125]]]",1,[18],,,,,,,,,,,,,,library_aisle8.jpg,space,0.93537,0,50,50,59,1,homegarden7.jpg,highway4.jpg,kindergarten_classroom5.jpg,grocerystore3.jpg,,
Image_List_2,,,,,,,,,,,,,,,,44545,2020-11-17_17h14.37.547,analogCatScenes,2020.1.3,MacIntel,60,"[1440,900]","[[[-0.004188368055555555,-0.19375434027777777],[-0.004188368055555555,-0.19375434027777777],[-0.004188368055555555,-0.19375434027777777],[-0.004188368055555555,-0.19375434027777777],[-0.004188368055555555,-0.19375434027777777],[-0.004188368055555555,-0.19375434027777777],[-0.004188368055555555,-0.19375434027777777],[-0.004188368055555555,-0.19323350694444444],[-0.004188368055555555,-0.1817404513888889],[-0.004188368055555555,-0.16915364583333334],[-0.004188368055555555,-0.15203559027777777],[-0.004188368055555555,-0.1350954861111111],[-0.004188368055555555,-0.11430989583333333],[-0.0037196180555555554,-0.1034765625],[0.0020963541666666665,-0.09188368055555556],[0.008719618055555555,-0.0830859375],[0.01935763888888889,-0.0748046875],[0.04531684027777778,-0.05785590277777778],[0.0646701388888889,-0.047105034722222223],[0.08062934027777778,-0.0402734375],[0.09361111111111112,-0.035130208333333336],[0.10434027777777778,-0.030043402777777777],[0.11569444444444445,-0.024769965277777778],[0.12295138888888889,-0.01904513888888889],[0.13020833333333334,-0.0133203125],[0.13508680555555555,-0.0101953125],[0.13934027777777777,-0.0071961805555555555],[0.14260416666666667,-0.0043359375],[0.14487847222222222,-0.002052951388888889],[0.14610677083333334,0.002052951388888889]]]",1,[30],,,,,,,,,,,,,,pavilion5.jpg,space,1.33437,0,51,51,71,1,metroInside2.jpg,metroInside3.jpg,museum3.jpg,jewelrystore.jpg,,
Image_List_2,,,,,,,,,,,,,,,,44545,2020-11-17_17h14.37.547,analogCatScenes,2020.1.3,MacIntel,60,"[1440,900]","[[[0.0022743055555555555,-0.20259982638888888],[0.0022743055555555555,-0.20259982638888888],[0.0022743055555555555,-0.20259982638888888],[0.0022743055555555555,-0.20259982638888888],[0.0022743055555555555,-0.20259982638888888],[0.0022743055555555555,-0.20259982638888888],[0.0022743055555555555,-0.20259982638888888],[0.0022743055555555555,-0.20259982638888888],[0.0026475694444444446,-0.20201822916666667],[0.005013020833333334,-0.19923177083333332],[0.010928819444444444,-0.1916796875],[0.015598958333333333,-0.18006510416666666],[0.016688368055555555,-0.16951388888888888],[0.018472222222222223,-0.1573046875],[0.018472222222222223,-0.14601128472222222],[0.0130859375,-0.12598090277777776],[0.004418402777777778,-0.11794270833333333],[-0.0068706597222222224,-0.10790364583333334],[-0.017881944444444443,-0.0987109375],[-0.024613715277777778,-0.09408420138888889],[-0.033828125,-0.08870225694444445],[-0.042942708333333336,-0.08486979166666667],[-0.04830295138888889,-0.08303819444444445],[-0.05364149305555556,-0.0812717013888889],[-0.056206597222222224,-0.08019097222222223],[-0.05713541666666667,-0.07957899305555556],[-0.057456597222222225,-0.07830295138888889],[-0.057456597222222225,-0.07737847222222222]]]",1,[28],,,,,,,,,,,,,,playroom6.jpg,space,0.964625,0,52,52,77,1,parkinggarage2.jpg,pasture9.jpg,park8.jpg,mallindoor6.jpg,,
Image_List_2,,,,,,,,,,,,,,,,44545,2020-11-17_17h14.37.547,analogCatScenes,2020.1.3,MacIntel,60,"[1440,900]","[[[-0.006605902777777777,-0.20164496527777778],[-0.006605902777777777,-0.20164496527777778],[-0.006605902777777777,-0.20164496527777778],[-0.006605902777777777,-0.20164496527777778],[-0.006605902777777777,-0.20164496527777778],[-0.006605902777777777,-0.20164496527777778],[-0.008862847222222222,-0.20164496527777778],[-0.019448784722222223,-0.20164496527777778],[-0.047417534722222224,-0.200859375],[-0.08381944444444445,-0.1963888888888889],[-0.10991319444444445,-0.1922222222222222],[-0.12751736111111112,-0.18735243055555556],[-0.14493923611111112,-0.1806814236111111],[-0.15598958333333332,-0.17487413194444446],[-0.1634722222222222,-0.1684592013888889],[-0.17391493055555557,-0.1548046875],[-0.18697916666666667,-0.12717881944444445],[-0.19723090277777777,-0.09569010416666666],[-0.20421875,-0.06932725694444444],[-0.21126302083333334,-0.03537760416666667],[-0.2159157986111111,-0.00904079861111111],[-0.2201171875,0.009544270833333333],[-0.2243923611111111,0.023602430555555557],[-0.23069444444444445,0.043472222222222225],[-0.23308159722222221,0.050030381944444445]]]",1,[25],,,,,,,,,,,,,,farm1.jpg,space,1.285445,0,53,53,40,1,drycleaners4.jpg,drymountains.jpg,dugout1.jpg,clothingstore3.jpg,,
Image_List_2,,,,,,,,,,,,,,,,44545,2020-11-17_17h14.37.547,analogCatScenes,2020.1.3,MacIntel,60,"[1440,900]","[[[0.0030208333333333333,-0.1967751736111111],[0.0030208333333333333,-0.1967751736111111],[0.0030208333333333333,-0.1967751736111111],[0.0030208333333333333,-0.1967751736111111],[0.0030208333333333333,-0.19651475694444445],[0.0030208333333333333,-0.1828298611111111],[0.012378472222222223,-0.15264322916666667],[0.03341579861111111,-0.1085546875],[0.050164930555555556,-0.08017795138888889],[0.07157552083333334,-0.04892795138888889],[0.08923177083333333,-0.026471354166666666],[0.09863715277777778,-0.016050347222222223],[0.10932291666666667,-0.004696180555555556],[0.11373263888888889,-0.0004600694444444444],[0.11952256944444445,0.006193576388888889],[0.1228298611111111,0.012326388888888888],[0.12524739583333333,0.019661458333333333],[0.12693142361111112,0.03090277777777778],[0.12912760416666666,0.04136284722222222],[0.13153645833333333,0.052569444444444446],[0.133671875,0.0621875],[0.135859375,0.07260850694444444],[0.13864149305555556,0.09094184027777778],[0.14004340277777777,0.11140190972222222],[0.14004340277777777,0.12670572916666667],[0.14004340277777777,0.13506510416666667]]]",1,[26],,,,,,,,,,,,,,driveway4.jpg,space,1.135145,0,54,54,37,1,dining_car.jpg,dinosaur4.jpg,driveway7.jpg,citystreet9.jpg,,
Image_List_2,,,,,,,,,,,,,,,,44545,2020-11-17_17h14.37.547,analogCatScenes,2020.1.3,MacIntel,60,"[1440,900]","[[[0.0024305555555555556,-0.19108072916666666],[0.0024305555555555556,-0.19108072916666666],[0.0024305555555555556,-0.19108072916666666],[0.0024305555555555556,-0.19108072916666666],[0.0024305555555555556,-0.19108072916666666],[0.0024305555555555556,-0.19108072916666666],[0.0024305555555555556,-0.19108072916666666],[0.0024305555555555556,-0.19108072916666666],[0.0024305555555555556,-0.19108072916666666],[0.0024305555555555556,-0.18010416666666668],[0.003650173611111111,-0.12889756944444444],[0.024466145833333335,-0.04513888888888889],[0.0456640625,0.015082465277777778],[0.06385416666666667,0.0611328125],[0.07580295138888889,0.09180555555555556],[0.07818576388888888,0.10289930555555556],[0.07978732638888889,0.11033420138888889],[0.07978732638888889,0.11402777777777778],[0.07949652777777778,0.11536458333333334],[0.07885850694444445,0.11536458333333334]]]",1,[20],,,,,,,,,,,,,,parkinglot.jpg,space,1.217105,0,55,55,68,1,liquorstore7.jpg,lightingstore4.jpg,lockerroom2.jpg,hospitalroom3.jpg,,
Image_List_2,,,,,,,,,,,,,,,,44545,2020-11-17_17h14.37.547,analogCatScenes,2020.1.3,MacIntel,60,"[1440,900]","[[[0.004188368055555555,-0.20301649305555555],[0.004188368055555555,-0.20301649305555555],[0.004188368055555555,-0.20301649305555555],[0.004188368055555555,-0.20301649305555555],[0.004188368055555555,-0.20301649305555555],[0.004188368055555555,-0.20301649305555555],[0.004188368055555555,-0.20301649305555555],[-0.002243923611111111,-0.20301649305555555],[-0.025833333333333333,-0.20301649305555555],[-0.08465711805555555,-0.2010720486111111],[-0.11951388888888889,-0.19734375],[-0.16004774305555555,-0.19365451388888888],[-0.1890060763888889,-0.18882378472222222],[-0.2140277777777778,-0.17943576388888888],[-0.2343576388888889,-0.1650564236111111],[-0.2509895833333333,-0.14613715277777778],[-0.25625868055555556,-0.13880208333333333],[-0.2640017361111111,-0.12809461805555555],[-0.26788194444444446,-0.12180989583333333],[-0.2698046875,-0.11872395833333334],[-0.27044270833333334,-0.11779513888888889],[-0.2707335069444444,-0.11750434027777777]]]",1,[22],,,,,,,,,,,,,,bar2.jpg,space,0.985395,0,56,56,9,1,auto_showroom3.jpg,ballroom2.jpg,basement5.jpg,arcade2.jpg,,
Image_List_2,,,,,,,,,,,,,,,,44545,2020-11-17_17h14.37.547,analogCatScenes,2020.1.3,MacIntel,60,"[1440,900]","[[[0.0034505208333333332,-0.20236979166666666],[0.0034505208333333332,-0.20236979166666666],[0.0034505208333333332,-0.20236979166666666],[0.0034505208333333332,-0.20236979166666666],[0.0034505208333333332,-0.20236979166666666],[0.0045616319444444445,-0.20041666666666666],[0.01577690972222222,-0.18374565972222223],[0.053020833333333336,-0.13180121527777777],[0.08316840277777778,-0.09866753472222223],[0.10740017361111111,-0.07167534722222223],[0.12322048611111111,-0.05294270833333333],[0.13562065972222223,-0.03478732638888889],[0.13983072916666667,-0.027647569444444443],[0.14259982638888888,-0.02216579861111111],[0.14452256944444444,-0.01947482638888889],[0.14591145833333333,-0.0173828125],[0.14711805555555554,-0.016163194444444445],[0.14743055555555556,-0.01552951388888889]]]",1,[18],,,,,,,,,,,,,,basketballcourt4.jpg,space,1.34871,0,57,57,11,1,backyard2.jpg,bambooforest3.jpg,baywindow5.jpg,backyard1.jpg,,
Image_List_2,,,,,,,,,,,,,,,,44545,2020-11-17_17h14.37.547,analogCatScenes,2020.1.3,MacIntel,60,"[1440,900]","[[[-0.008823784722222222,-0.19990885416666668],[-0.008823784722222222,-0.19990885416666668],[-0.008823784722222222,-0.19990885416666668],[-0.008823784722222222,-0.19990885416666668],[-0.008823784722222222,-0.19990885416666668],[-0.008823784722222222,-0.19990885416666668],[-0.008823784722222222,-0.19990885416666668],[-0.008823784722222222,-0.19990885416666668],[-0.008823784722222222,-0.19990885416666668],[-0.008823784722222222,-0.19815538194444443],[-0.009361979166666666,-0.19182725694444444],[-0.015655381944444446,-0.1816796875],[-0.026015625,-0.16723524305555557],[-0.03376736111111111,-0.15590711805555554],[-0.03986545138888889,-0.14657552083333333],[-0.04414496527777778,-0.13749131944444445],[-0.045950520833333335,-0.1321875],[-0.047625868055555555,-0.12789496527777777],[-0.047977430555555554,-0.12479600694444444],[-0.048988715277777775,-0.11649739583333334],[-0.048988715277777775,-0.10766059027777777],[-0.048988715277777775,-0.10100260416666666],[-0.048988715277777775,-0.09366753472222222],[-0.04861111111111111,-0.09009548611111111],[-0.04795138888888889,-0.08841579861111111],[-0.04795138888888889,-0.0878342013888889],[-0.04795138888888889,-0.0878342013888889],[-0.04795138888888889,-0.08756944444444445]]]",1,[28],,,,,,,,,,,,,,trainStation1.jpg,space,1.28344,0,58,58,90,1,savanna5.jpg,sidewalk1.jpg,stripmall3.jpg,shoestore4.jpg,,
Image_List_2,,,,,,,,,,,,,,,,44545,2020-11-17_17h14.37.547,analogCatScenes,2020.1.3,MacIntel,60,"[1440,900]","[[[0.0077734375,-0.19512586805555557],[0.0077734375,-0.19512586805555557],[0.0077734375,-0.19512586805555557],[0.0077734375,-0.19512586805555557],[0.0069791666666666665,-0.19512586805555557],[-0.00009114583333333334,-0.19512586805555557],[-0.007673611111111111,-0.1910329861111111],[-0.012934027777777777,-0.1870659722222222],[-0.0278125,-0.17565538194444444],[-0.041328125,-0.16665364583333334],[-0.05806857638888889,-0.15477430555555555],[-0.07608072916666667,-0.14108506944444443],[-0.09504774305555555,-0.1279861111111111],[-0.10528211805555555,-0.12230902777777777],[-0.11869791666666667,-0.11680121527777777],[-0.13169270833333332,-0.11325520833333333],[-0.14480902777777777,-0.1090798611111111],[-0.16120659722222222,-0.10237413194444445],[-0.17138020833333334,-0.09672309027777778],[-0.17917100694444443,-0.09153645833333333],[-0.18621527777777777,-0.08700520833333333],[-0.19187065972222223,-0.08276475694444445],[-0.19540364583333333,-0.07935763888888889],[-0.19831163194444446,-0.07600694444444445],[-0.1993315972222222,-0.07432291666666667],[-0.1993315972222222,-0.0733984375]]]",1,[26],,,,,,,,,,,,,,bowlingalley3.jpg,space,1.10289,0,59,59,13,1,balconyIN2.jpg,beach2.jpg,boardwalk4.jpg,backyard6.jpg,,
Image_List_2,,,,,,,,,,,,,,,,44545,2020-11-17_17h14.37.547,analogCatScenes,2020.1.3,MacIntel,60,"[1440,900]","[[[-0.009131944444444444,-0.19485243055555557],[-0.009131944444444444,-0.19485243055555557],[-0.009131944444444444,-0.19485243055555557],[-0.009131944444444444,-0.19485243055555557],[-0.009131944444444444,-0.19485243055555557],[-0.009131944444444444,-0.19485243055555557],[-0.009131944444444444,-0.1945920138888889],[-0.009131944444444444,-0.1772265625],[-0.009131944444444444,-0.15638888888888888],[-0.005638020833333333,-0.10930121527777778],[0.011046006944444445,-0.07235677083333333],[0.0378125,-0.03797309027777778],[0.059869791666666665,-0.019947916666666666],[0.08805555555555555,0.0005729166666666667],[0.1058767361111111,0.0100390625],[0.12657552083333334,0.020438368055555555],[0.1436675347222222,0.02636284722222222],[0.16075086805555555,0.030967881944444445],[0.1823480902777778,0.03407552083333333],[0.19451388888888888,0.03523871527777778],[0.20412326388888888,0.03631510416666667],[0.21209201388888888,0.03781684027777778],[0.22013888888888888,0.039327256944444444],[0.2281857638888889,0.04083767361111111],[0.23353732638888888,0.04219618055555555],[0.23885416666666667,0.04348958333333333],[0.24194444444444443,0.04425347222222222],[0.24286458333333333,0.04425347222222222]]]",1,[28],,,,,,,,,,,,,,volleyballcourt.jpg,space,1.2336,0,60,60,92,1,staircase.jpg,skatepark7.jpg,tvstudio2.jpg,soccerfield2.jpg,,
Image_List_2,,,,,,,,,,,,,,,,44545,2020-11-17_17h14.37.547,analogCatScenes,2020.1.3,MacIntel,60,"[1440,900]","[[[0.005303819444444444,-0.20207899305555554],[0.005303819444444444,-0.20207899305555554],[0.005303819444444444,-0.20207899305555554],[0.005303819444444444,-0.20207899305555554],[0.005303819444444444,-0.20207899305555554],[0.005303819444444444,-0.20207899305555554],[0.005303819444444444,-0.20207899305555554],[0.005303819444444444,-0.20207899305555554],[0.005303819444444444,-0.19825086805555556],[0.005303819444444444,-0.192890625],[0.005303819444444444,-0.17868055555555556],[0.005303819444444444,-0.16356336805555555],[0.010690104166666667,-0.1453515625],[0.018997395833333333,-0.12273871527777777],[0.02313802083333333,-0.1144140625],[0.026592881944444445,-0.10695746527777777],[0.027317708333333333,-0.10439236111111111],[0.02763454861111111,-0.10311631944444444],[0.02763454861111111,-0.1025390625],[0.02763454861111111,-0.10195746527777778],[0.026705729166666668,-0.1013454861111111],[0.025946180555555556,-0.09417534722222222]]]",1,[22],,,,,,,,,,,,,,pavilion.jpg,space,1.20186,0,61,61,70,1,lockerroom4.jpg,lockerroom3.jpg,minigolf8.jpg,igloo.jpg,,
Image_List_2,,,,,,,,,,,,,,,,44545,2020-11-17_17h14.37.547,analogCatScenes,2020.1.3,MacIntel,60,"[1440,900]","[[[-0.004388020833333333,-0.20645833333333333],[-0.004388020833333333,-0.20645833333333333],[-0.004388020833333333,-0.20645833333333333],[-0.004388020833333333,-0.20645833333333333],[-0.004388020833333333,-0.20645833333333333],[-0.004388020833333333,-0.20645833333333333],[-0.004388020833333333,-0.20645833333333333],[-0.004388020833333333,-0.20645833333333333],[-0.004388020833333333,-0.20645833333333333],[-0.010065104166666667,-0.19761284722222222],[-0.026419270833333335,-0.17734375],[-0.05654079861111111,-0.14233506944444443],[-0.09262586805555556,-0.10418836805555555],[-0.11405381944444444,-0.08131944444444444],[-0.13364583333333332,-0.06432291666666666],[-0.15393663194444446,-0.04920572916666666],[-0.17153211805555554,-0.03795572916666667],[-0.18729600694444445,-0.030073784722222222],[-0.21243055555555557,-0.011831597222222223],[-0.2244140625,0.005060763888888889],[-0.23255642361111112,0.02037326388888889],[-0.24268229166666666,0.03654513888888889],[-0.2516059027777778,0.04995225694444445],[-0.2603168402777778,0.05922743055555556],[-0.26852430555555556,0.06634548611111112],[-0.2730034722222222,0.06993923611111111],[-0.2775694444444444,0.0740625],[-0.27934895833333334,0.07584201388888889],[-0.27993055555555557,0.07642361111111111],[-0.27993055555555557,0.07642361111111111]]]",1,[30],,,,,,,,,,,,,,jail1.jpg,space,1.05117,0,62,62,57,1,hayfield5.jpg,hallway4.jpg,hut5.jpg,gazebo.jpg,,
Image_List_2,,,,,,,,,,,,,,,,44545,2020-11-17_17h14.37.547,analogCatScenes,2020.1.3,MacIntel,60,"[1440,900]","[[[-0.0014930555555555556,-0.20130642361111112],[-0.0014930555555555556,-0.20130642361111112],[-0.0014930555555555556,-0.20130642361111112],[-0.0014930555555555556,-0.20130642361111112],[-0.0014930555555555556,-0.20130642361111112],[-0.0014930555555555556,-0.20130642361111112],[-0.0025564236111111113,-0.20130642361111112],[-0.013389756944444444,-0.20130642361111112],[-0.032942708333333334,-0.20130642361111112],[-0.06405381944444444,-0.20130642361111112],[-0.10979600694444444,-0.19763020833333333],[-0.14868489583333333,-0.18644965277777778],[-0.18657118055555555,-0.1698220486111111],[-0.21043402777777778,-0.15559027777777779],[-0.23214409722222223,-0.1414279513888889],[-0.2441232638888889,-0.13363715277777777],[-0.2566145833333333,-0.12546875],[-0.25930555555555557,-0.12347222222222222],[-0.260234375,-0.12286024305555555],[-0.2608463541666667,-0.12193142361111112],[-0.2618359375,-0.12024739583333334],[-0.2636762152777778,-0.11805989583333333],[-0.2651953125,-0.11502170138888888],[-0.26642795138888886,-0.11296875]]]",1,[24],,,,,,,,,,,,,,grocerystore6.jpg,space,1.47102,0,63,63,50,1,frontLawn4.jpg,forestpath6.jpg,hallway2.jpg,fireplace4.jpg,,
Image_List_2,,,,,,,,,,,,,,,,44545,2020-11-17_17h14.37.547,analogCatScenes,2020.1.3,MacIntel,60,"[1440,900]","[[[0.004092881944444444,-0.19770833333333335],[0.004092881944444444,-0.19770833333333335],[0.004092881944444444,-0.19770833333333335],[0.004092881944444444,-0.19770833333333335],[0.002144097222222222,-0.19770833333333335],[-0.007530381944444445,-0.19770833333333335],[-0.03837673611111111,-0.19770833333333335],[-0.07950086805555556,-0.19770833333333335],[-0.11325954861111111,-0.19770833333333335],[-0.14389756944444446,-0.19770833333333335],[-0.16435763888888888,-0.19422743055555555],[-0.1790842013888889,-0.18594184027777777],[-0.19148003472222222,-0.1735590277777778],[-0.202265625,-0.1580425347222222],[-0.21110243055555555,-0.1366796875],[-0.21625,-0.12137586805555556],[-0.2206857638888889,-0.10556857638888889],[-0.22426649305555554,-0.09239149305555555],[-0.22599826388888888,-0.08102430555555555],[-0.2288498263888889,-0.060564236111111114],[-0.23144097222222224,-0.025902777777777778],[-0.23144097222222224,0.005138888888888889],[-0.23144097222222224,0.048528645833333335],[-0.23144097222222224,0.06092881944444444],[-0.23144097222222224,0.06988715277777778],[-0.2285720486111111,0.07317274305555556],[-0.2231467013888889,0.07549913194444445]]]",1,[27],,,,,,,,,,,,,,diner12.jpg,space,1.24923,0,64,64,32,1,dancestudio6.jpg,constructionSite2.jpg,dentist4.jpg,cabin4.jpg,,
Image_List_2,,,,,,,,,,,,,,,,44545,2020-11-17_17h14.37.547,analogCatScenes,2020.1.3,MacIntel,60,"[1440,900]","[[[-0.00040798611111111114,-0.20794270833333334],[-0.00040798611111111114,-0.20794270833333334],[-0.00040798611111111114,-0.20794270833333334],[-0.00040798611111111114,-0.20794270833333334],[-0.00040798611111111114,-0.20794270833333334],[-0.00040798611111111114,-0.20794270833333334],[-0.00040798611111111114,-0.20794270833333334],[0.003871527777777778,-0.20794270833333334],[0.011197916666666667,-0.20743923611111112],[0.02505642361111111,-0.2044314236111111],[0.042942708333333336,-0.19912760416666667],[0.057769097222222225,-0.19502170138888889],[0.08647569444444445,-0.18747829861111112],[0.10055121527777777,-0.1832074652777778],[0.11100260416666667,-0.1799045138888889],[0.11569444444444445,-0.17901909722222223],[0.12038194444444444,-0.1781640625],[0.12203559027777777,-0.1781640625],[0.12203559027777777,-0.1781640625]]]",1,[19],,,,,,,,,,,,,,frontFoyer4.jpg,space,1.1681,0,65,65,44,1,firestation2.jpg,elevatorOutside1.jpg,foodcourt6.jpg,dock2.jpg,,
Image_List_2,,,,,,,,,,,,,,,,44545,2020-11-17_17h14.37.547,analogCatScenes,2020.1.3,MacIntel,60,"[1440,900]","[[[0.005182291666666667,-0.20633246527777777],[0.005182291666666667,-0.20633246527777777],[0.005182291666666667,-0.20633246527777777],[0.005182291666666667,-0.20633246527777777],[0.005182291666666667,-0.20633246527777777],[0.005182291666666667,-0.20633246527777777],[0.005182291666666667,-0.20633246527777777],[0.005182291666666667,-0.20527777777777778],[0.008133680555555555,-0.1991059027777778],[0.018541666666666668,-0.1886892361111111],[0.034765625,-0.1745876736111111],[0.05703559027777778,-0.15996961805555557],[0.07776475694444444,-0.14462239583333333],[0.09298611111111112,-0.12876736111111112],[0.10448350694444444,-0.11328125],[0.11001736111111111,-0.10211805555555556],[0.115234375,-0.08508246527777778],[0.12164930555555556,-0.054214409722222225],[0.12301649305555555,-0.034991319444444446],[0.12301649305555555,-0.019375],[0.12301649305555555,-0.008541666666666666],[0.12301649305555555,-0.0004253472222222222],[0.12301649305555555,0.0031119791666666665],[0.12301649305555555,0.004040798611111111],[0.12272569444444445,0.004331597222222222],[0.12208767361111111,0.004331597222222222]]]",1,[26],,,,,,,,,,,,,,sidewalk5.jpg,space,1.067115,0,66,66,85,1,recordingstudio4.jpg,ruralroad2.jpg,sandDunes_desert_outdoor3.jpg,rooftop3.jpg,,
Image_List_2,,,,,,,,,,,,,,,,44545,2020-11-17_17h14.37.547,analogCatScenes,2020.1.3,MacIntel,60,"[1440,900]","[[[0.004943576388888889,-0.1986284722222222],[0.004943576388888889,-0.1986284722222222],[0.004943576388888889,-0.1986284722222222],[0.004943576388888889,-0.1986284722222222],[0.0017664930555555557,-0.1986284722222222],[-0.007912326388888889,-0.1986284722222222],[-0.041653645833333336,-0.1986284722222222],[-0.08122829861111111,-0.1924956597222222],[-0.09453993055555555,-0.18858072916666666],[-0.12040798611111111,-0.17993489583333333],[-0.14097222222222222,-0.1721484375],[-0.15237847222222223,-0.16619357638888888],[-0.16317274305555557,-0.15784288194444446],[-0.16684895833333332,-0.15381944444444445],[-0.16940538194444443,-0.14911892361111112],[-0.16984809027777778,-0.1431640625]]]",1,[16],,,,,,,,,,,,,,breakroom5.jpg,space,0.999795,0,67,67,14,1,ballroom1.jpg,bistrooutdoor5.jpg,botanicalGarden5.jpg,ballroom3.jpg,,
Image_List_2,,,,,,,,,,,,,,,,44545,2020-11-17_17h14.37.547,analogCatScenes,2020.1.3,MacIntel,60,"[1440,900]","[[[0.010546875,-0.20504340277777777],[0.010546875,-0.20504340277777777],[0.010546875,-0.20504340277777777],[0.010546875,-0.20504340277777777],[0.010546875,-0.20504340277777777],[0.010546875,-0.20424913194444444],[0.010546875,-0.19605902777777778],[0.018120659722222224,-0.17272569444444444],[0.063984375,-0.08983072916666666],[0.07243489583333333,-0.07546006944444444],[0.11271701388888888,-0.016158854166666667],[0.1399609375,0.018138020833333334],[0.17271701388888888,0.04990017361111111],[0.18716145833333334,0.0624609375],[0.1947265625,0.06840277777777778],[0.2000998263888889,0.07283854166666667],[0.2026909722222222,0.07503038194444445],[0.2026909722222222,0.07503038194444445],[0.20164496527777778,0.07565104166666667]]]",1,[19],,,,,,,,,,,,,,volleyballcourt4.jpg,space,1.117325,0,68,68,93,1,tollbooth8.jpg,staircase4.jpg,warehouseoutside2.jpg,tenniscourt.jpg,,
Image_List_2,,,,,,,,,,,,,,,,44545,2020-11-17_17h14.37.547,analogCatScenes,2020.1.3,MacIntel,60,"[1440,900]","[[[0.011236979166666666,-0.19094184027777777],[0.011236979166666666,-0.19094184027777777],[0.011236979166666666,-0.19094184027777777],[0.011236979166666666,-0.19094184027777777],[0.011236979166666666,-0.19094184027777777],[0.009192708333333334,-0.19094184027777777],[0.0038975694444444444,-0.19094184027777777],[0.0012109375,-0.19094184027777777],[-0.0009375,-0.19094184027777777],[-0.0018663194444444445,-0.19094184027777777],[-0.003203125,-0.19094184027777777],[-0.012556423611111112,-0.18799479166666666],[-0.012556423611111112,-0.18799479166666666],[-0.021414930555555555,-0.18024305555555556],[-0.028546006944444445,-0.1726388888888889],[-0.045425347222222225,-0.15701822916666666],[-0.05625,-0.1479904513888889],[-0.07570746527777777,-0.13523871527777778],[-0.092265625,-0.12489583333333333],[-0.10990451388888889,-0.11361545138888889],[-0.12274305555555555,-0.10692274305555556],[-0.13754340277777777,-0.09983506944444444],[-0.15006510416666666,-0.09446614583333333],[-0.1605251736111111,-0.09062934027777778],[-0.17088975694444444,-0.08627170138888889],[-0.18166232638888888,-0.08115017361111111],[-0.19155815972222223,-0.07618489583333334],[-0.2017144097222222,-0.06940972222222222],[-0.2164105902777778,-0.05861545138888889],[-0.23018663194444444,-0.042504340277777775],[-0.23635416666666667,-0.033563368055555556],[-0.2437065972222222,-0.024518229166666666],[-0.24774739583333333,-0.019578993055555556],[-0.2501085069444444,-0.01640625],[-0.25155815972222223,-0.013854166666666667],[-0.25190972222222224,-0.012178819444444445],[-0.25223090277777777,-0.010907118055555555],[-0.25223090277777777,-0.01032986111111111],[-0.25223090277777777,-0.00974826388888889],[-0.25223090277777777,-0.008819444444444444],[-0.25071614583333335,-0.0084375]]]",1,[41],,,,,,,,,,,,,,banquetHall4.jpg,space,1.43661,0,69,69,7,1,attic2.jpg,backstage1.jpg,baggageClaim3.jpg,applestore2.jpg,,
Image_List_2,,,,,,,,,,,,,,,,44545,2020-11-17_17h14.37.547,analogCatScenes,2020.1.3,MacIntel,60,"[1440,900]","[[[-0.0016059027777777777,-0.1998654513888889],[-0.0016059027777777777,-0.1998654513888889],[-0.0016059027777777777,-0.1998654513888889],[-0.0016059027777777777,-0.1998654513888889],[-0.0016059027777777777,-0.1998654513888889],[-0.005329861111111111,-0.1998654513888889],[-0.02700954861111111,-0.1998654513888889],[-0.06368923611111112,-0.1998654513888889],[-0.1209765625,-0.19225260416666667],[-0.1782638888888889,-0.17711805555555554],[-0.230390625,-0.15477430555555555],[-0.27218315972222223,-0.1253689236111111],[-0.3028472222222222,-0.08880208333333334],[-0.31817708333333333,-0.06291666666666666],[-0.3305902777777778,-0.04163628472222222],[-0.33782986111111113,-0.030186631944444445],[-0.3403862847222222,-0.02589409722222222],[-0.3410590277777778,-0.02408420138888889],[-0.3410590277777778,-0.023155381944444445],[-0.3410590277777778,-0.021471354166666668],[-0.3410590277777778,-0.01837673611111111],[-0.3410590277777778,-0.015811631944444446],[-0.3410590277777778,-0.014127604166666667],[-0.3410590277777778,-0.013836805555555555]]]",1,[24],,,,,,,,,,,,,,cafeteria6.jpg,space,1.151715,0,70,70,16,1,basement.jpg,breakroom2.jpg,campusquad4.jpg,barbershop2.jpg,,
Image_List_2,,,,,,,,,,,,,,,,44545,2020-11-17_17h14.37.547,analogCatScenes,2020.1.3,MacIntel,60,"[1440,900]","[[[0.0004861111111111111,-0.1952126736111111],[0.0004861111111111111,-0.1952126736111111],[0.0004861111111111111,-0.1952126736111111],[0.0004861111111111111,-0.1952126736111111],[0.0004861111111111111,-0.1952126736111111],[0.0004861111111111111,-0.19442274305555557],[0.0004861111111111111,-0.1836501736111111],[0.0004861111111111111,-0.15273871527777777],[0.007213541666666667,-0.10974826388888889],[0.02258246527777778,-0.056414930555555555],[0.03462239583333333,-0.016453993055555557],[0.0441015625,0.017144097222222224],[0.052235243055555554,0.04645833333333333],[0.05712673611111111,0.07667534722222222],[0.05790798611111111,0.09563802083333334],[0.05790798611111111,0.10966579861111111],[0.05790798611111111,0.121875],[0.05837673611111111,0.12999131944444445],[0.058784722222222224,0.1353515625]]]",1,[19],,,,,,,,,,,,,,barbershop3.jpg,space,0.971565,0,71,71,10,1,backstage2.jpg,ballroom4.jpg,basketballcourt3.jpg,ATM4.jpg,,
Image_List_2,,,,,,,,,,,,,,,,44545,2020-11-17_17h14.37.547,analogCatScenes,2020.1.3,MacIntel,60,"[1440,900]","[[[-0.002677951388888889,-0.19764322916666666],[-0.002677951388888889,-0.19764322916666666],[-0.002677951388888889,-0.19764322916666666],[-0.002677951388888889,-0.19764322916666666],[-0.002677951388888889,-0.19764322916666666],[-0.002677951388888889,-0.19764322916666666],[-0.0007595486111111111,-0.19764322916666666],[0.008190104166666667,-0.19764322916666666],[0.04817274305555556,-0.18977864583333334],[0.0716015625,-0.1866232638888889],[0.10231336805555556,-0.18329861111111112],[0.12892795138888888,-0.18251302083333334],[0.15053385416666668,-0.18107204861111112],[0.17451388888888889,-0.18107204861111112],[0.19496527777777778,-0.18107204861111112],[0.20832465277777779,-0.18184895833333334],[0.2157248263888889,-0.18378472222222222],[0.2261762152777778,-0.18654513888888888],[0.23500434027777778,-0.18861545138888888],[0.2500911458333333,-0.18986111111111112],[0.2548958333333333,-0.19039496527777777],[0.2548958333333333,-0.19039496527777777],[0.2548958333333333,-0.19039496527777777],[0.2548958333333333,-0.19039496527777777]]]",1,[24],,,,,,,,,,,,,,banquetHall2.jpg,space,1.11773,0,72,72,6,1,ATM1.jpg,auto_showroom5.jpg,baggageClaim1.jpg,apartmentBuilding3.jpg,,
Image_List_2,,,,,,,,,,,,,,,,44545,2020-11-17_17h14.37.547,analogCatScenes,2020.1.3,MacIntel,60,"[1440,900]","[[[0.0019487847222222222,-0.19290364583333333],[0.0019487847222222222,-0.19290364583333333],[0.0019487847222222222,-0.19290364583333333],[0.0019487847222222222,-0.19290364583333333],[0.0019487847222222222,-0.19290364583333333],[0.0019487847222222222,-0.19290364583333333],[0.0016883680555555556,-0.19290364583333333],[0.0038368055555555555,-0.19290364583333333],[0.013506944444444445,-0.19290364583333333],[0.0275390625,-0.19290364583333333],[0.059908854166666664,-0.19055121527777777],[0.11877604166666667,-0.17473958333333334],[0.16111111111111112,-0.16509114583333334],[0.19545572916666668,-0.1570095486111111],[0.20776041666666667,-0.15523003472222222],[0.2241796875,-0.15178385416666668],[0.23664496527777779,-0.1480512152777778],[0.23814670138888888,-0.14729600694444445],[0.24811631944444446,-0.14348090277777778],[0.2547265625,-0.14110677083333334],[0.26067274305555554,-0.13880208333333333],[0.26370225694444444,-0.13728298611111112],[0.26462239583333336,-0.13635416666666667],[0.26462239583333336,-0.13571614583333333]]]",1,[24],,,,,,,,,,,,,,church8.jpg,space,1.815395,0,73,73,23,1,bus_shelter.jpg,carmechanic4.jpeg,cemetery3.jpg,bleachers6.jpg,,
Image_List_2,,,,,,,,,,,,,,,,44545,2020-11-17_17h14.37.547,analogCatScenes,2020.1.3,MacIntel,60,"[1440,900]","[[[-0.0002126736111111111,-0.2006293402777778],[-0.0002126736111111111,-0.2006293402777778],[-0.0002126736111111111,-0.2006293402777778],[-0.0002126736111111111,-0.2006293402777778],[-0.0002126736111111111,-0.2006293402777778],[-0.0002126736111111111,-0.18506510416666666],[-0.0002126736111111111,-0.17131510416666668],[-0.007074652777777778,-0.10223524305555555],[-0.012591145833333333,-0.04296875],[-0.013754340277777779,0.022222222222222223],[-0.013754340277777779,0.06351996527777778],[-0.013754340277777779,0.10811197916666666],[-0.013754340277777779,0.11706597222222222],[-0.013754340277777779,0.12940104166666666],[-0.013754340277777779,0.13293836805555556],[-0.013754340277777779,0.13322916666666668]]]",1,[16],,,,,,,,,,,,,,track5.jpg,space,1.067445,0,74,74,89,1,ruralroad7.jpg,ShowJumping7.jpg,staircase7.jpg,sculpturegarden3.jpg,,
Image_List_2,,,,,,,,,,,,,,,,44545,2020-11-17_17h14.37.547,analogCatScenes,2020.1.3,MacIntel,60,"[1440,900]","[[[-0.00515625,-0.20796875],[-0.00515625,-0.20796875],[-0.00515625,-0.20796875],[-0.00515625,-0.20796875],[-0.00515625,-0.20796875],[-0.0022569444444444442,-0.20796875],[0.005368923611111111,-0.2043142361111111],[0.02650173611111111,-0.18630208333333334],[0.05855902777777778,-0.1578689236111111],[0.09911024305555556,-0.11730902777777778],[0.14600260416666666,-0.07040798611111111],[0.19374131944444445,-0.030386284722222223],[0.21985243055555556,-0.013598090277777778],[0.23851996527777777,-0.004006076388888889],[0.25190538194444445,0.0012630208333333332],[0.2623567708333333,0.005130208333333333],[0.26645399305555556,0.006779513888888889]]]",1,[17],,,,,,,,,,,,,,arcade1.jpg,space,1.05113,0,75,75,2,1,alley1.jpg,applestore6.jpg,apartmentBuilding4.jpg,airportTerminal6.jpg,,
Image_List_2,,,,,,,,,,,,,,,,44545,2020-11-17_17h14.37.547,analogCatScenes,2020.1.3,MacIntel,60,"[1440,900]","[[[0.005338541666666667,-0.1973611111111111],[0.005338541666666667,-0.1973611111111111],[0.005338541666666667,-0.1973611111111111],[0.005338541666666667,-0.1973611111111111],[0.005338541666666667,-0.1973611111111111],[0.009969618055555556,-0.1973611111111111],[0.014774305555555556,-0.1973611111111111],[0.032942708333333334,-0.19039930555555556],[0.05701388888888889,-0.17897569444444444],[0.07115017361111112,-0.17060329861111112],[0.07809027777777777,-0.16365451388888888],[0.08563802083333333,-0.15019965277777778],[0.08773871527777778,-0.1413671875],[0.09181423611111111,-0.12915798611111112],[0.09521701388888888,-0.11792100694444445],[0.09803819444444445,-0.10661892361111111],[0.10035590277777778,-0.09440972222222223],[0.10144097222222222,-0.08407552083333333],[0.10144097222222222,-0.07361545138888889],[0.10144097222222222,-0.06675347222222222],[0.10049479166666667,-0.06013888888888889],[0.09720920138888889,-0.05357204861111111],[0.09537760416666667,-0.0476171875],[0.0944921875,-0.042916666666666665]]]",1,[24],,,,,,,,,,,,,,hotelRoom3.jpg,space,1.41553,0,76,76,55,1,greenmountains.jpg,gazebo5.jpg,hotelRoom7.jpg,frontLawn2.jpg,,
Image_List_2,,,,,,,,,,,,,,,,44545,2020-11-17_17h14.37.547,analogCatScenes,2020.1.3,MacIntel,60,"[1440,900]","[[[0.004084201388888889,-0.1974782986111111],[0.004084201388888889,-0.1974782986111111],[0.004084201388888889,-0.1974782986111111],[0.004084201388888889,-0.1974782986111111],[0.004084201388888889,-0.1974782986111111],[0.004084201388888889,-0.1974782986111111],[0.004084201388888889,-0.196953125],[0.009596354166666666,-0.18665798611111112],[0.025121527777777777,-0.16589409722222223],[0.04834635416666667,-0.13254774305555556],[0.07934461805555555,-0.09017795138888889],[0.10827256944444444,-0.046710069444444446],[0.12398871527777777,-0.021401909722222223],[0.13706597222222222,-0.0035807291666666665],[0.14971788194444444,0.013493923611111111],[0.15838107638888888,0.025121527777777777],[0.16322482638888888,0.03057291666666667],[0.1666232638888889,0.03410590277777778],[0.17331597222222223,0.041137152777777776],[0.1772265625,0.04506944444444445],[0.17968315972222224,0.048359375],[0.18034722222222221,0.05004340277777778],[0.18034722222222221,0.05068142361111111]]]",1,[23],,,,,,,,,,,,,,sandDunes_desert_outdoor9.jpg,space,1.135735,0,77,77,82,1,publicrestroom2.jpg,promenadeDeck3.jpg,readingroom4.jpg,postoffice4.jpg,,
Image_List_2,,,,,,,,,,,,,,,,44545,2020-11-17_17h14.37.547,analogCatScenes,2020.1.3,MacIntel,60,"[1440,900]","[[[0.0011762152777777778,-0.1926171875],[0.0011762152777777778,-0.1926171875],[0.0011762152777777778,-0.1926171875],[0.0011762152777777778,-0.1926171875],[0.0011762152777777778,-0.1926171875],[-0.0028819444444444444,-0.17961805555555554],[-0.023715277777777776,-0.12261284722222222],[-0.047513020833333336,-0.0448046875],[-0.059136284722222224,0.006349826388888889],[-0.06483506944444445,0.04543836805555555],[-0.06543402777777778,0.05764756944444444],[-0.06737847222222222,0.07482638888888889],[-0.06737847222222222,0.08150173611111111],[-0.06737847222222222,0.08283420138888889],[-0.06737847222222222,0.08753472222222222]]]",1,[15],,,,,,,,,,,,,,sidewalk2.jpg,space,1.1684,0,78,78,84,1,readingroom5.jpg,restaurant13.jpg,sandDunes_desert_outdoor.jpg,rooftop2.jpg,,
Image_List_2,,,,,,,,,,,,,,,,44545,2020-11-17_17h14.37.547,analogCatScenes,2020.1.3,MacIntel,60,"[1440,900]","[[[-0.006137152777777778,-0.1968793402777778],[-0.006137152777777778,-0.1968793402777778],[-0.006137152777777778,-0.1968793402777778],[-0.006137152777777778,-0.1968793402777778],[-0.006137152777777778,-0.1968793402777778],[-0.006137152777777778,-0.1968793402777778],[-0.005073784722222223,-0.19581163194444445],[0.007291666666666667,-0.18068576388888888],[0.026888020833333335,-0.15703993055555557],[0.05124131944444445,-0.12726996527777779],[0.07517795138888889,-0.0950217013888889],[0.0986892361111111,-0.05926215277777778],[0.11584635416666667,-0.034861111111111114],[0.13950954861111112,-0.004865451388888889],[0.14975260416666666,0.007200520833333333],[0.15557291666666667,0.01463107638888889],[0.1611328125,0.020733506944444445],[0.16188802083333334,0.022890625],[0.16188802083333334,0.023819444444444445]]]",1,[19],,,,,,,,,,,,,,poolhall1.jpg,space,0.984945,0,79,79,78,1,parkinglot3.jpg,pier5.jpg,pavilion3.jpg,observatory1.jpg,,
Image_List_2,,,,,,,,,,,,,,,,44545,2020-11-17_17h14.37.547,analogCatScenes,2020.1.3,MacIntel,60,"[1440,900]","[[[-0.005256076388888889,-0.19887586805555554],[-0.005256076388888889,-0.19887586805555554],[-0.005256076388888889,-0.19887586805555554],[-0.005256076388888889,-0.19887586805555554],[-0.005256076388888889,-0.19887586805555554],[-0.005256076388888889,-0.1980859375],[-0.004539930555555556,-0.18325086805555554],[0.004032118055555555,-0.15860243055555556],[0.018971354166666666,-0.1251953125],[0.029835069444444445,-0.10345052083333334],[0.04826822916666667,-0.072734375],[0.0612890625,-0.05046440972222222],[0.06392361111111111,-0.045182291666666666],[0.0694140625,-0.0358203125],[0.07048611111111111,-0.033255208333333335],[0.07048611111111111,-0.03157118055555556],[0.07048611111111111,-0.03157118055555556]]]",1,[17],,,,,,,,,,,,,,elevatorOutside4.jpg,space,0.985085,0,80,80,38,1,dining_car2.jpg,dock1.jpg,driveway8.jpg,classroom1.jpg,,
Image_List_2,,,,,,,,,,,,,,,,44545,2020-11-17_17h14.37.547,analogCatScenes,2020.1.3,MacIntel,60,"[1440,900]","[[[-0.002026909722222222,-0.19566840277777778],[-0.002026909722222222,-0.19566840277777778],[-0.002026909722222222,-0.19566840277777778],[-0.002026909722222222,-0.19566840277777778],[-0.002026909722222222,-0.19566840277777778],[-0.002026909722222222,-0.1866840277777778],[-0.002026909722222222,-0.15583767361111112],[-0.0062282986111111115,-0.10231336805555556],[-0.008359375,-0.06391927083333333],[-0.008359375,-0.04129774305555556],[-0.009049479166666667,-0.018333333333333333],[-0.010247395833333334,-0.00515625],[-0.012243923611111112,0.0028211805555555555],[-0.016497395833333334,0.012803819444444444],[-0.021302083333333333,0.02473090277777778],[-0.023719618055555555,0.03881510416666667],[-0.023719618055555555,0.052087673611111114],[-0.023719618055555555,0.06064670138888889]]]",1,[18],,,,,,,,,,,,,,frontLawn5.jpg,space,1.13419,0,81,81,46,1,flowershop.jpg,farmersmarket4.jpg,fountain4.jpg,dormroom6.jpg,,
Image_List_2,,,,,,,,,,,,,,,,44545,2020-11-17_17h14.37.547,analogCatScenes,2020.1.3,MacIntel,60,"[1440,900]","[[[0.0025434027777777777,-0.19749131944444445],[0.0025434027777777777,-0.19749131944444445],[0.0025434027777777777,-0.19749131944444445],[0.0025434027777777777,-0.19749131944444445],[0.0025434027777777777,-0.19749131944444445],[0.0025434027777777777,-0.19749131944444445],[0.0025434027777777777,-0.19749131944444445],[0.010421006944444445,-0.19510416666666666],[0.02733940972222222,-0.18303385416666668],[0.05632378472222222,-0.1617404513888889],[0.0780078125,-0.14493055555555556],[0.11551649305555556,-0.11173177083333333],[0.127421875,-0.09897135416666666],[0.15283854166666666,-0.0655859375],[0.16023871527777778,-0.05353298611111111],[0.16388020833333333,-0.04639322916666667],[0.16671006944444444,-0.04081597222222222],[0.1670876736111111,-0.038250868055555554],[0.1670876736111111,-0.03619791666666667]]]",1,[19],,,,,,,,,,,,,,playground10.jpg,space,0.950555,0,82,82,74,1,newsstand2.jpg,observatory4.jpeg,operatingroom1.jpg,lightingstore2.jpg,,
Image_List_2,,,,,,,,,,,,,,,,44545,2020-11-17_17h14.37.547,analogCatScenes,2020.1.3,MacIntel,60,"[1440,900]","[[[-0.003910590277777778,-0.19874565972222222],[-0.003910590277777778,-0.19874565972222222],[-0.003910590277777778,-0.19874565972222222],[-0.003910590277777778,-0.19874565972222222],[-0.003910590277777778,-0.19874565972222222],[-0.003910590277777778,-0.19874565972222222],[-0.003910590277777778,-0.19874565972222222],[-0.006458333333333333,-0.19874565972222222],[-0.01416232638888889,-0.19874565972222222],[-0.02927951388888889,-0.1980859375],[-0.047278645833333334,-0.19743055555555555],[-0.06895833333333333,-0.19743055555555555],[-0.09552517361111111,-0.19743055555555555],[-0.13177083333333334,-0.19529947916666668],[-0.16810329861111112,-0.19084635416666668],[-0.1983376736111111,-0.18594184027777777],[-0.21395399305555557,-0.1832421875],[-0.23672309027777777,-0.17828559027777777],[-0.24634114583333333,-0.1750737847222222],[-0.25403211805555553,-0.17044704861111112],[-0.2615147569444444,-0.16403211805555556],[-0.2677690972222222,-0.1567404513888889],[-0.2736371527777778,-0.14875434027777779],[-0.2770703125,-0.14141927083333333],[-0.2790234375,-0.13475260416666668],[-0.27996961805555554,-0.12813802083333334],[-0.27996961805555554,-0.12284288194444444],[-0.27996961805555554,-0.11688802083333333],[-0.27996961805555554,-0.11093315972222222]]]",1,[29],,,,,,,,,,,,,,diningroom5.jpg,space,1.199685,0,83,83,34,1,deck4.jpg,courthouse4.jpg,diner11.jpg,campusquad1.jpg,,
Image_List_2,,,,,,,,,,,,,,,,44545,2020-11-17_17h14.37.547,analogCatScenes,2020.1.3,MacIntel,60,"[1440,900]","[[[-0.0008159722222222223,-0.1915017361111111],[-0.0008159722222222223,-0.1915017361111111],[-0.0008159722222222223,-0.1915017361111111],[-0.0008159722222222223,-0.1915017361111111],[-0.0008159722222222223,-0.1915017361111111],[-0.0008159722222222223,-0.1915017361111111],[-0.0008159722222222223,-0.1915017361111111],[-0.0008159722222222223,-0.1915017361111111],[-0.0008159722222222223,-0.1915017361111111],[-0.0008159722222222223,-0.1915017361111111],[0.0017491319444444444,-0.1915017361111111],[0.032274305555555556,-0.170078125],[0.04970486111111111,-0.1581467013888889],[0.09551649305555555,-0.1261328125],[0.16500868055555556,-0.07291232638888889],[0.1899609375,-0.04795138888888889],[0.2056640625,-0.029340277777777778],[0.22147569444444445,-0.010516493055555555],[0.22825086805555556,-0.0026605902777777778],[0.23381076388888888,0.003914930555555555],[0.23562934027777777,0.006089409722222223],[0.23594618055555555,0.007365451388888889],[0.23565538194444444,0.007365451388888889]]]",1,[23],,,,,,,,,,,,,,alley2.jpg,space,1.08409,0,84,84,0,1,airplanecabin1.jpg,appleorchard4.jpg,airplanecabin5.jpg,airplanecabin3.jpg,,
Image_List_2,,,,,,,,,,,,,,,,44545,2020-11-17_17h14.37.547,analogCatScenes,2020.1.3,MacIntel,60,"[1440,900]","[[[-0.0017881944444444445,-0.19426649305555554],[-0.0017881944444444445,-0.19426649305555554],[-0.0017881944444444445,-0.19426649305555554],[-0.0017881944444444445,-0.19426649305555554],[-0.002955729166666667,-0.19426649305555554],[-0.009010416666666667,-0.19426649305555554],[-0.012990451388888888,-0.1927734375],[-0.03349392361111111,-0.17508680555555556],[-0.047339409722222225,-0.15980034722222222],[-0.0608203125,-0.1462890625],[-0.0746484375,-0.1350954861111111],[-0.0865234375,-0.1250954861111111],[-0.09919270833333334,-0.11109809027777778],[-0.11184027777777777,-0.09026041666666666],[-0.11868055555555555,-0.07292534722222223],[-0.12296440972222222,-0.0602734375],[-0.12729600694444446,-0.049965277777777775],[-0.1294921875,-0.04470052083333333],[-0.13065538194444445,-0.04163628472222222],[-0.131328125,-0.039952256944444445],[-0.13228732638888888,-0.03867621527777778],[-0.13354166666666667,-0.037421875],[-0.13522135416666667,-0.03640625],[-0.1372265625,-0.03509548611111111],[-0.1372265625,-0.03253038194444444],[-0.1372265625,-0.031011284722222223]]]",1,[26],,,,,,,,,,,,,,office3.jpg,space,1.317735,0,85,85,66,1,library_aisle10.jpg,laundromat3.jpg,liquorstore.jpg,horsebarn9.jpg,,
Image_List_2,,,,,,,,,,,,,,,,44545,2020-11-17_17h14.37.547,analogCatScenes,2020.1.3,MacIntel,60,"[1440,900]","[[[-0.0033029513888888887,-0.20319878472222222],[-0.0033029513888888887,-0.20319878472222222],[-0.0033029513888888887,-0.20319878472222222],[-0.0033029513888888887,-0.20319878472222222],[-0.0020052083333333332,-0.20319878472222222],[0.004861111111111111,-0.20319878472222222],[0.010807291666666666,-0.20319878472222222],[0.023324652777777777,-0.20319878472222222],[0.036493055555555556,-0.20319878472222222],[0.07020833333333333,-0.1955859375],[0.11541666666666667,-0.17986545138888888],[0.14803819444444444,-0.16758680555555555],[0.16620659722222222,-0.1596267361111111],[0.18394965277777778,-0.152109375],[0.1943923611111111,-0.14510850694444444],[0.20639322916666666,-0.13434461805555556],[0.2176779513888889,-0.12368055555555556],[0.23185329861111112,-0.10986979166666666],[0.23733940972222223,-0.10437934027777777],[0.2469097222222222,-0.09046440972222222],[0.2495138888888889,-0.08162760416666667],[0.2511154513888889,-0.07200954861111111],[0.25322916666666667,-0.06247829861111111],[0.25505208333333335,-0.05639756944444444],[0.25699652777777776,-0.04907552083333333],[0.2578125,-0.044969618055555556],[0.2578125,-0.041276041666666666]]]",1,[27],,,,,,,,,,,,,,newsstand5.jpg,space,1.252175,0,86,86,64,1,igloo2.jpg,jewelrystore8.jpg,lab5.jpg,homegarage2.jpg,,
Image_List_2,,,,,,,,,,,,,,,,44545,2020-11-17_17h14.37.547,analogCatScenes,2020.1.3,MacIntel,60,"[1440,900]","[[[-0.008328993055555555,-0.195859375],[-0.008328993055555555,-0.195859375],[-0.008328993055555555,-0.195859375],[-0.008328993055555555,-0.195859375],[-0.008328993055555555,-0.195859375],[-0.008328993055555555,-0.19229166666666667],[-0.008328993055555555,-0.18096354166666667],[-0.008328993055555555,-0.16490885416666667],[-0.008328993055555555,-0.1395703125],[-0.008328993055555555,-0.11069878472222222],[-0.008328993055555555,-0.092578125],[-0.008328993055555555,-0.08205295138888889],[-0.008328993055555555,-0.07309461805555556],[-0.008328993055555555,-0.07054253472222222],[-0.008328993055555555,-0.0699045138888889],[-0.008328993055555555,-0.0699045138888889]]]",1,[16],,,,,,,,,,,,,,lightingstore3.jpg,space,1.033245,0,87,87,60,1,hometheater2.jpg,homegarage.jpg,kindergarten_classroom6.jpg,hallway.jpg,,
Image_List_2,,,,,,,,,,,,,,,,44545,2020-11-17_17h14.37.547,analogCatScenes,2020.1.3,MacIntel,60,"[1440,900]","[[[0.0019965277777777776,-0.18802083333333333],[0.0019965277777777776,-0.18802083333333333],[0.0019965277777777776,-0.18802083333333333],[0.0019965277777777776,-0.18802083333333333],[0.0019965277777777776,-0.18802083333333333],[0.0019965277777777776,-0.18802083333333333],[-0.00001736111111111111,-0.18802083333333333],[-0.007352430555555556,-0.1850607638888889],[-0.01871527777777778,-0.18107204861111112],[-0.03584201388888889,-0.1764453125],[-0.07256944444444445,-0.167421875],[-0.10497395833333334,-0.15632378472222222],[-0.13947916666666665,-0.1381640625],[-0.17442708333333334,-0.10898003472222222],[-0.19442274305555557,-0.08576822916666667],[-0.21623263888888888,-0.053836805555555554],[-0.2227560763888889,-0.04276475694444445],[-0.22675347222222222,-0.03584201388888889],[-0.22833767361111112,-0.033151041666666665]]]",1,[19],,,,,,,,,,,,,,banquetHall6.jpg,space,0.85084,0,88,88,8,1,attic3.jpg,balconyIN.jpg,bar.jpg,applestore4.jpg,,
Image_List_2,,,,,,,,,,,,,,,,44545,2020-11-17_17h14.37.547,analogCatScenes,2020.1.3,MacIntel,60,"[1440,900]","[[[0.00006510416666666667,-0.2017795138888889],[0.00006510416666666667,-0.2017795138888889],[0.00006510416666666667,-0.2017795138888889],[0.00006510416666666667,-0.2017795138888889],[0.00171875,-0.20095052083333334],[0.01447482638888889,-0.18894097222222223],[0.06218315972222222,-0.1456032986111111],[0.1253689236111111,-0.09862413194444444],[0.19807725694444445,-0.04540798611111111],[0.24141059027777778,-0.010455729166666667],[0.2540060763888889,0.0020876736111111113],[0.26819444444444446,0.0167578125],[0.2774652777777778,0.0278125],[0.2793880208333333,0.030911458333333332],[0.2793880208333333,0.031202256944444444],[0.2793880208333333,0.031202256944444444],[0.2793880208333333,0.031202256944444444],[0.2788541666666667,0.03173611111111111]]]",1,[18],,,,,,,,,,,,,,poolhall2.jpeg,space,0.818855,0,89,89,79,1,pasture.jpg,playground9.jpg,pier2.jpg,observatory2.jpg,,
Image_List_2,,,,,,,,,,,,,,,,44545,2020-11-17_17h14.37.547,analogCatScenes,2020.1.3,MacIntel,60,"[1440,900]","[[[0.0015234375,-0.20453125],[0.0015234375,-0.20453125],[0.0015234375,-0.20453125],[0.00011284722222222222,-0.20453125],[-0.009565972222222222,-0.20453125],[-0.03753472222222222,-0.20453125],[-0.05708767361111111,-0.20453125],[-0.0837109375,-0.20374565972222222],[-0.10654513888888889,-0.2030251736111111],[-0.1264670138888889,-0.20237413194444445],[-0.14692708333333335,-0.1995529513888889],[-0.15848090277777777,-0.19766927083333333],[-0.17455295138888888,-0.19513020833333333],[-0.18501302083333335,-0.19239149305555556],[-0.19325520833333334,-0.18880208333333334],[-0.19845052083333334,-0.1840798611111111],[-0.20297743055555556,-0.1733420138888889]]]",1,[17],,,,,,,,,,,,,,deck2.jpg,space,1.385115,0,90,90,29,1,cornfield2.jpg,cliff2.jpg,constructionSite4.jpg,bridalboutique3.jpg,,
Image_List_2,,,,,,,,,,,,,,,,44545,2020-11-17_17h14.37.547,analogCatScenes,2020.1.3,MacIntel,60,"[1440,900]","[[[0.0025173611111111113,-0.20267361111111112],[0.0025173611111111113,-0.20267361111111112],[0.0025173611111111113,-0.20267361111111112],[0.0025173611111111113,-0.20267361111111112],[0.0025173611111111113,-0.20267361111111112],[0.0025173611111111113,-0.20267361111111112],[0.0025173611111111113,-0.20267361111111112],[0.0025173611111111113,-0.20267361111111112],[0.0025173611111111113,-0.194765625],[0.004900173611111111,-0.17204427083333335],[0.043958333333333335,-0.06995659722222222],[0.08375434027777778,0.005802951388888889],[0.11612847222222222,0.06166666666666667],[0.1441970486111111,0.11313368055555556],[0.16348958333333333,0.14734375],[0.17895399305555557,0.17944010416666667],[0.1793012152777778,0.18048611111111112]]]",1,[17],,,,,,,,,,,,,,parkinglot2.jpg,space,3.31913,0,91,91,69,1,liquorstore8.jpg,livingroom.jpg,metroInside1.jpg,icecream2.jpg,,
Image_List_2,,,,,,,,,,,,,,,,44545,2020-11-17_17h14.37.547,analogCatScenes,2020.1.3,MacIntel,60,"[1440,900]","[[[0.0012022569444444444,-0.20136284722222222],[0.0012022569444444444,-0.20136284722222222],[0.0012022569444444444,-0.20136284722222222],[0.0012022569444444444,-0.20136284722222222],[0.0012022569444444444,-0.20136284722222222],[0.004743923611111111,-0.20136284722222222],[0.004743923611111111,-0.20136284722222222],[0.06292100694444444,-0.1803515625],[0.10668836805555555,-0.1548871527777778],[0.13599392361111112,-0.13734375],[0.16741753472222223,-0.11576388888888889],[0.1897829861111111,-0.09820746527777778],[0.1996050347222222,-0.08837673611111112],[0.21182725694444443,-0.07680555555555556],[0.22241753472222223,-0.06619791666666666],[0.23113715277777777,-0.056905381944444444],[0.2346310763888889,-0.0529296875],[0.23934461805555557,-0.04773871527777778],[0.242421875,-0.04288628472222222],[0.24361979166666667,-0.03931423611111111],[0.2440277777777778,-0.032560763888888886]]]",1,[21],,,,,,,,,,,,,,farm3.jpg,space,1.533665,0,92,92,41,1,dugout4.jpg,drymountains3.jpg,fabricstore1.jpg,dentist2.jpg,,
Image_List_2,,,,,,,,,,,,,,,,44545,2020-11-17_17h14.37.547,analogCatScenes,2020.1.3,MacIntel,60,"[1440,900]","[[[-0.0036979166666666666,-0.19208767361111112],[-0.0036979166666666666,-0.19208767361111112],[-0.0036979166666666666,-0.19208767361111112],[-0.0036979166666666666,-0.19208767361111112],[-0.0036979166666666666,-0.19208767361111112],[-0.0036979166666666666,-0.19208767361111112],[-0.0036979166666666666,-0.19208767361111112],[-0.0036979166666666666,-0.19208767361111112],[-0.0036979166666666666,-0.19208767361111112],[-0.0036979166666666666,-0.19208767361111112],[-0.009296875,-0.18926649305555557],[-0.0285546875,-0.174921875],[-0.08649739583333334,-0.1209592013888889],[-0.1115234375,-0.09246527777777777],[-0.1294140625,-0.07080729166666666],[-0.14032986111111112,-0.05786892361111111],[-0.15021267361111112,-0.04676215277777778],[-0.15481770833333333,-0.042157118055555554],[-0.1581076388888889,-0.03969184027777778],[-0.1597873263888889,-0.0390234375],[-0.1603689236111111,-0.038732638888888886]]]",1,[21],,,,,,,,,,,,,,ruralroad5.jpg,space,2.067445,0,93,93,81,1,promenadeDeck.jpg,promenadeDeck2.jpg,rainforest5.jpg,pasture8.jpg,,
Image_List_2,,,,,,,,,,,,,,,,44545,2020-11-17_17h14.37.547,analogCatScenes,2020.1.3,MacIntel,60,"[1440,900]","[[[0.008472222222222223,-0.19907552083333332],[0.008472222222222223,-0.19907552083333332],[0.008472222222222223,-0.19907552083333332],[0.008472222222222223,-0.19907552083333332],[0.008472222222222223,-0.19907552083333332],[0.008472222222222223,-0.19907552083333332],[0.008472222222222223,-0.19907552083333332],[0.008472222222222223,-0.19907552083333332],[0.009253472222222222,-0.19907552083333332],[0.01808159722222222,-0.19907552083333332],[0.05504340277777778,-0.19907552083333332],[0.09974826388888888,-0.1961284722222222],[0.13391493055555556,-0.19320746527777777],[0.16101128472222223,-0.191328125],[0.1758376736111111,-0.191328125],[0.1941623263888889,-0.1892578125],[0.20299045138888888,-0.18821614583333332],[0.21266059027777778,-0.1865798611111111],[0.2221657986111111,-0.18604166666666666],[0.22883246527777779,-0.18553819444444444],[0.23543836805555557,-0.18411892361111112],[0.2390972222222222,-0.18167100694444444],[0.24101996527777778,-0.1789800347222222],[0.24101996527777778,-0.1789800347222222]]]",1,[24],,,,,,,,,,,,,,newsstand7.jpg,space,1.27746,0,94,94,65,1,igloo5.jpg,laundromat2.jpeg,labClass7.jpg,homeoffice8.jpg,,
Image_List_2,,,,,,,,,,,,,,,,44545,2020-11-17_17h14.37.547,analogCatScenes,2020.1.3,MacIntel,60,"[1440,900]","[[[-0.0038237847222222223,-0.20506510416666668],[-0.0038237847222222223,-0.20506510416666668],[-0.0038237847222222223,-0.20506510416666668],[-0.0038237847222222223,-0.20506510416666668],[-0.0038237847222222223,-0.20506510416666668],[-0.0038237847222222223,-0.20506510416666668],[-0.003042534722222222,-0.20506510416666668],[0.004600694444444445,-0.20506510416666668],[0.01776909722222222,-0.20506510416666668],[0.03493923611111111,-0.2023654513888889],[0.058984375,-0.19710069444444445],[0.08694444444444445,-0.18911458333333334],[0.11680989583333333,-0.17830729166666667],[0.13542100694444445,-0.17235677083333334],[0.14661892361111112,-0.16861979166666666],[0.1619140625,-0.16134114583333334],[0.16987413194444445,-0.15550347222222222],[0.18108506944444444,-0.14427951388888888],[0.18770833333333334,-0.13548177083333332],[0.19430989583333333,-0.12670572916666667],[0.1997048611111111,-0.11816840277777778],[0.20409722222222224,-0.10770833333333334],[0.20700954861111112,-0.09549913194444444],[0.20873263888888888,-0.08328993055555556],[0.20970052083333332,-0.07587239583333333],[0.21063802083333333,-0.06919704861111112],[0.21107638888888888,-0.06503038194444444],[0.21107638888888888,-0.06246527777777778],[0.20786892361111112,-0.05611545138888889],[0.18741753472222222,-0.03494791666666667],[0.15595486111111112,-0.004392361111111111],[0.12952256944444446,0.022821180555555556],[0.10423611111111111,0.051046006944444444],[0.09513020833333333,0.05970920138888889]]]",1,[34],,,,,,,,,,,,,,bedroom6.jpg,space,1.24365,0,95,95,12,1,baggageClaim4.jpg,bambooforest5.jpg,bleachers7.jpg,backyard5.jpg,,
