image_list,key_resp_intructions.keys,key_resp_intructions.rt,key_resp_intructions_3.keys,key_resp_intructions_3.rt,PracticeComplete_2.keys,PracticeComplete_2.rt,PracticeComplete_3.keys,PracticeComplete_3.rt,demo_trials.thisRepN,demo_trials.thisTrialN,demo_trials.thisN,demo_trials.thisIndex,demo_trials.ran,demo_images,path_images,participant,date,expName,psychopyVersion,OS,frameRate,windowSize,practice_complete.keys,practice_complete.rt,boxes_checked,PracticeComplete.keys,PracticeComplete.rt,practice_trials.thisRepN,practice_trials.thisTrialN,practice_trials.thisN,practice_trials.thisIndex,practice_trials.ran,practice_images,feedback_images,key_resp_intructions_2.keys,key_resp_intructions_2.rt,Image_List_1,trial_complete.keys,trial_complete.rt,trial_mouse.x,trial_mouse.y,trial_mouse.leftButton,trial_mouse.midButton,trial_mouse.rightButton,trial_mouse.time,trial_mouse.clicked_name,trials.thisRepN,trials.thisTrialN,trials.thisN,trials.thisIndex,trials.ran,Image_List_2,Image_List_3,Image_List_4,Image_List_5,key_resp.keys,key_resp.rt
Image_List_1,space,1.372855,space,0.24912,space,0.188695,space,0.2502,0,0,0,6,1,right_left.jpg,right_left_path.jpg,44548,2020-11-17_14h53.00.198,lingCatScenes,2020.1.3,MacIntel,60,,,,,,,,,,,,,,,,,,,,,,,,,,,,,,,,,,,,
Image_List_1,,,,,space,0.173785,space,0.26916,0,1,1,4,1,left.jpg,left_path.jpg,44548,2020-11-17_14h53.00.198,lingCatScenes,2020.1.3,MacIntel,60,,,,,,,,,,,,,,,,,,,,,,,,,,,,,,,,,,,,
Image_List_1,,,,,space,0.001095,space,0.001095,0,2,2,1,1,ahead_left.jpg,ahead_left_path.jpg,44548,2020-11-17_14h53.00.198,lingCatScenes,2020.1.3,MacIntel,60,,,,,,,,,,,,,,,,,,,,,,,,,,,,,,,,,,,,
Image_List_1,,,,,space,0.182425,space,0.134595,0,3,3,3,1,ahead_right_left.jpg,ahead_right_left_path.jpg,44548,2020-11-17_14h53.00.198,lingCatScenes,2020.1.3,MacIntel,60,,,,,,,,,,,,,,,,,,,,,,,,,,,,,,,,,,,,
Image_List_1,,,,,space,0.11483,space,0.11808,0,4,4,2,1,ahead_right.jpg,ahead_right_path.jpg,44548,2020-11-17_14h53.00.198,lingCatScenes,2020.1.3,MacIntel,60,,,,,,,,,,,,,,,,,,,,,,,,,,,,,,,,,,,,
Image_List_1,,,,,space,0.13123,space,0.12715,0,5,5,5,1,right.jpg,right_path.jpg,44548,2020-11-17_14h53.00.198,lingCatScenes,2020.1.3,MacIntel,60,,,,,,,,,,,,,,,,,,,,,,,,,,,,,,,,,,,,
Image_List_1,,,,,space,0.138435,space,0.14164,0,6,6,0,1,ahead.jpg,ahead_path.jpg,44548,2020-11-17_14h53.00.198,lingCatScenes,2020.1.3,MacIntel,60,,,,,,,,,,,,,,,,,,,,,,,,,,,,,,,,,,,,
Image_List_1,,,,,,,,,,,,,,,,44548,2020-11-17_14h53.00.198,lingCatScenes,2020.1.3,MacIntel,60,"[1440,900]",space,0.115125,[],space,0.155385,0,0,0,3,1,ahead_right_left_2.jpg,ahead_right_left_2_path.jpg,,,,,,,,,,,,,,,,,,,,,,,
Image_List_1,,,,,,,,,,,,,,,,44548,2020-11-17_14h53.00.198,lingCatScenes,2020.1.3,MacIntel,60,"[1440,900]",space,0.11096,[],space,0.1344,0,1,1,6,1,right_left_2.jpg,right_left_2_path.jpg,,,,,,,,,,,,,,,,,,,,,,,
Image_List_1,,,,,,,,,,,,,,,,44548,2020-11-17_14h53.00.198,lingCatScenes,2020.1.3,MacIntel,60,"[1440,900]",space,0.167195,[],space,0.13416,0,2,2,5,1,right_2.jpg,right_2_path.jpg,,,,,,,,,,,,,,,,,,,,,,,
Image_List_1,,,,,,,,,,,,,,,,44548,2020-11-17_14h53.00.198,lingCatScenes,2020.1.3,MacIntel,60,"[1440,900]",space,0.001045,[],space,0.000925,0,3,3,4,1,left_2.jpg,left_2_path.jpg,,,,,,,,,,,,,,,,,,,,,,,
Image_List_1,,,,,,,,,,,,,,,,44548,2020-11-17_14h53.00.198,lingCatScenes,2020.1.3,MacIntel,60,"[1440,900]",space,0.07209,[],space,0.16674,0,4,4,1,1,ahead_left_2.jpg,ahead_left_2_path.jpg,,,,,,,,,,,,,,,,,,,,,,,
Image_List_1,,,,,,,,,,,,,,,,44548,2020-11-17_14h53.00.198,lingCatScenes,2020.1.3,MacIntel,60,"[1440,900]",space,0.173515,[],space,0.132005,0,5,5,2,1,ahead_right_2.jpg,ahead_right_2_path.jpg,,,,,,,,,,,,,,,,,,,,,,,
Image_List_1,,,,,,,,,,,,,,,,44548,2020-11-17_14h53.00.198,lingCatScenes,2020.1.3,MacIntel,60,"[1440,900]",space,0.155215,[],space,0.154525,0,6,6,0,1,ahead_2.jpg,ahead_2_path.jpg,,,,,,,,,,,,,,,,,,,,,,,
Image_List_1,,,,,,,,,,,,,,,,44548,2020-11-17_14h53.00.198,lingCatScenes,2020.1.3,MacIntel,60,"[1440,900]",,,[],,,,,,,,,,space,0.167995,tollbooth8.jpg,space,0.124535,[],[],[],[],[],[],[],0,0,0,93,1,volleyballcourt4.jpg,staircase4.jpg,warehouseoutside2.jpg,tenniscourt.jpg,,
Image_List_1,,,,,,,,,,,,,,,,44548,2020-11-17_14h53.00.198,lingCatScenes,2020.1.3,MacIntel,60,"[1440,900]",,,[],,,,,,,,,,,,bambooforest4.jpg,space,0.207155,[],[],[],[],[],[],[],0,1,1,15,1,cafeteria5.jpg,bleachers8.jpg,cabinIndoors.jpg,bar8.jpg,,
Image_List_1,,,,,,,,,,,,,,,,44548,2020-11-17_14h53.00.198,lingCatScenes,2020.1.3,MacIntel,60,"[1440,900]",,,[],,,,,,,,,,,,igloo5.jpg,space,0.17639,[],[],[],[],[],[],[],0,2,2,65,1,newsstand7.jpg,laundromat2.jpeg,labClass7.jpg,homeoffice8.jpg,,
Image_List_1,,,,,,,,,,,,,,,,44548,2020-11-17_14h53.00.198,lingCatScenes,2020.1.3,MacIntel,60,"[1440,900]",,,[],,,,,,,,,,,,boardwalk2.jpg,space,0.76049,[],[],[],[],[],[],[],0,3,3,19,1,casino3.jpg,cafeteria1.jpg,castle4.jpg,basketballcourt.jpg,,
Image_List_1,,,,,,,,,,,,,,,,44548,2020-11-17_14h53.00.198,lingCatScenes,2020.1.3,MacIntel,60,"[1440,900]",,,[],,,,,,,,,,,,backstage2.jpg,space,0.257315,[],[],[],[],[],[],[],0,4,4,10,1,barbershop3.jpg,ballroom4.jpg,basketballcourt3.jpg,ATM4.jpg,,
Image_List_1,,,,,,,,,,,,,,,,44548,2020-11-17_14h53.00.198,lingCatScenes,2020.1.3,MacIntel,60,"[1440,900]",,,[],,,,,,,,,,,,grocerystore5.jpg,space,0.161845,[],[],[],[],[],[],[],0,5,5,56,1,hut3.jpg,golfcourse10.jpg,hut1.jpg,gasstation2.jpg,,
Image_List_1,,,,,,,,,,,,,,,,44548,2020-11-17_14h53.00.198,lingCatScenes,2020.1.3,MacIntel,60,"[1440,900]",,,[],,,,,,,,,,,,restaurant14.jpg,space,0.161585,[],[],[],[],[],[],[],0,6,6,86,1,stripmall.jpg,ruralroad3.jpg,sandDunes_desert_outdoor8.jpg,rooftop4.jpg,,
Image_List_1,,,,,,,,,,,,,,,,44548,2020-11-17_14h53.00.198,lingCatScenes,2020.1.3,MacIntel,60,"[1440,900]",,,[],,,,,,,,,,,,attic3.jpg,space,0.21025,[],[],[],[],[],[],[],0,7,7,8,1,banquetHall6.jpg,balconyIN.jpg,bar.jpg,applestore4.jpg,,
Image_List_1,,,,,,,,,,,,,,,,44548,2020-11-17_14h53.00.198,lingCatScenes,2020.1.3,MacIntel,60,"[1440,900]",,,[],,,,,,,,,,,,wineVineyard9.jpg,space,0.207435,[],[],[],[],[],[],[],0,8,8,99,1,yogastudio4.jpg,windmill2.jpg,wrestlingring7.jpg,yogastudio1.jpg,,
Image_List_1,,,,,,,,,,,,,,,,44548,2020-11-17_14h53.00.198,lingCatScenes,2020.1.3,MacIntel,60,"[1440,900]",,,[],,,,,,,,,,,,promenadeDeck.jpg,space,0.198125,[],[],[],[],[],[],[],0,9,9,81,1,ruralroad5.jpg,promenadeDeck2.jpg,rainforest5.jpg,pasture8.jpg,,
Image_List_1,,,,,,,,,,,,,,,,44548,2020-11-17_14h53.00.198,lingCatScenes,2020.1.3,MacIntel,60,"[1440,900]",,,[],,,,,,,,,,,,churchInside1.jpg,space,0.1777,[],[],[],[],[],[],[],0,10,10,28,1,dancestudio5.jpg,citystreet10.jpg,clothingstore5.jpg,bridalboutique2.jpg,,
Image_List_1,,,,,,,,,,,,,,,,44548,2020-11-17_14h53.00.198,lingCatScenes,2020.1.3,MacIntel,60,"[1440,900]",,,[],,,,,,,,,,,,ruralroad7.jpg,space,0.19632,[],[],[],[],[],[],[],0,11,11,89,1,track5.jpg,ShowJumping7.jpg,staircase7.jpg,sculpturegarden3.jpg,,
Image_List_1,,,,,,,,,,,,,,,,44548,2020-11-17_14h53.00.198,lingCatScenes,2020.1.3,MacIntel,60,"[1440,900]",,,[],,,,,,,,,,,,dancestudio6.jpg,space,0.18073,[],[],[],[],[],[],[],0,12,12,32,1,diner12.jpg,constructionSite2.jpg,dentist4.jpg,cabin4.jpg,,
Image_List_1,,,,,,,,,,,,,,,,44548,2020-11-17_14h53.00.198,lingCatScenes,2020.1.3,MacIntel,60,"[1440,900]",,,[],,,,,,,,,,,,flowershop.jpg,space,0.18421,[],[],[],[],[],[],[],0,13,13,46,1,frontLawn5.jpg,farmersmarket4.jpg,fountain4.jpg,dormroom6.jpg,,
Image_List_1,,,,,,,,,,,,,,,,44548,2020-11-17_14h53.00.198,lingCatScenes,2020.1.3,MacIntel,60,"[1440,900]",,,[],,,,,,,,,,,,baggageClaim4.jpg,space,0.19404,[],[],[],[],[],[],[],0,14,14,12,1,bedroom6.jpg,bambooforest5.jpg,bleachers7.jpg,backyard5.jpg,,
Image_List_1,,,,,,,,,,,,,,,,44548,2020-11-17_14h53.00.198,lingCatScenes,2020.1.3,MacIntel,60,"[1440,900]",,,[],,,,,,,,,,,,diner14.jpg,space,0.178385,[],[],[],[],[],[],[],0,15,15,36,1,dormroom9.jpg,dining_car3.jpg,doctor1.jpg,checkoutcounter9.jpg,,
Image_List_1,,,,,,,,,,,,,,,,44548,2020-11-17_14h53.00.198,lingCatScenes,2020.1.3,MacIntel,60,"[1440,900]",,,[],,,,,,,,,,,,pantry5.jpg,space,0.208635,[],[],[],[],[],[],[],0,16,16,75,1,playground6.jpg,operatingroom4.jpg,park.jpg,lockerroom.jpg,,
Image_List_1,,,,,,,,,,,,,,,,44548,2020-11-17_14h53.00.198,lingCatScenes,2020.1.3,MacIntel,60,"[1440,900]",,,[],,,,,,,,,,,,airplanecabin1.jpg,space,0.14705,[],[],[],[],[],[],[],0,17,17,0,1,alley2.jpg,appleorchard4.jpg,airplanecabin5.jpg,airplanecabin3.jpg,,
Image_List_1,,,,,,,,,,,,,,,,44548,2020-11-17_14h53.00.198,lingCatScenes,2020.1.3,MacIntel,60,"[1440,900]",,,[],,,,,,,,,,,,recordingstudio4.jpg,space,0.14572,[],[],[],[],[],[],[],0,18,18,85,1,sidewalk5.jpg,ruralroad2.jpg,sandDunes_desert_outdoor3.jpg,rooftop3.jpg,,
Image_List_1,,,,,,,,,,,,,,,,44548,2020-11-17_14h53.00.198,lingCatScenes,2020.1.3,MacIntel,60,"[1440,900]",,,[],,,,,,,,,,,,staircase.jpg,space,0.142505,[],[],[],[],[],[],[],0,19,19,92,1,volleyballcourt.jpg,skatepark7.jpg,tvstudio2.jpg,soccerfield2.jpg,,
Image_List_1,,,,,,,,,,,,,,,,44548,2020-11-17_14h53.00.198,lingCatScenes,2020.1.3,MacIntel,60,"[1440,900]",,,[],,,,,,,,,,,,parkinglot3.jpg,space,0.13048,[],[],[],[],[],[],[],0,20,20,78,1,poolhall1.jpg,pier5.jpg,pavilion3.jpg,observatory1.jpg,,
Image_List_1,,,,,,,,,,,,,,,,44548,2020-11-17_14h53.00.198,lingCatScenes,2020.1.3,MacIntel,60,"[1440,900]",,,[],,,,,,,,,,,,gasstation6.jpg,space,0.19289,[],[],[],[],[],[],[],0,21,21,51,1,hallway5.jpg,frontDoor5.jpg,hayfield4.jpg,firestation5.jpg,,
Image_List_1,,,,,,,,,,,,,,,,44548,2020-11-17_14h53.00.198,lingCatScenes,2020.1.3,MacIntel,60,"[1440,900]",,,[],,,,,,,,,,,,homegarden7.jpg,space,0.110805,[],[],[],[],[],[],[],0,22,22,59,1,library_aisle8.jpg,highway4.jpg,kindergarten_classroom5.jpg,grocerystore3.jpg,,
Image_List_1,,,,,,,,,,,,,,,,44548,2020-11-17_14h53.00.198,lingCatScenes,2020.1.3,MacIntel,60,"[1440,900]",,,[],,,,,,,,,,,,warehouse4.jpg,space,0.163655,[],[],[],[],[],[],[],0,23,23,96,1,warehouseoutside1.jpg,tenniscourt3.jpg,windmill1.jpg,warehouse1.jpg,,
Image_List_1,,,,,,,,,,,,,,,,44548,2020-11-17_14h53.00.198,lingCatScenes,2020.1.3,MacIntel,60,"[1440,900]",,,[],,,,,,,,,,,,artStudio3.jpg,space,0.1649,[],[],[],[],[],[],[],0,24,24,5,1,bambooforest.jpg,auto_showroom4.jpg,attic4.jpg,amusement3.jpg,,
Image_List_1,,,,,,,,,,,,,,,,44548,2020-11-17_14h53.00.198,lingCatScenes,2020.1.3,MacIntel,60,"[1440,900]",,,[],,,,,,,,,,,,gazebo3.jpg,space,0.358755,[],[],[],[],[],[],[],0,25,25,53,1,homeoffice.jpg,frontLawn3.jpg,homegarage3.jpg,fountain.jpg,,
Image_List_1,,,,,,,,,,,,,,,,44548,2020-11-17_14h53.00.198,lingCatScenes,2020.1.3,MacIntel,60,"[1440,900]",,,[],,,,,,,,,,,,restaurantkitchen2.jpg,space,0.182905,[],[],[],[],[],[],[],0,26,26,87,1,theater2.jpg,savanna.jpg,sculpturegarden2.jpg,RVinside2.jpg,,
Image_List_1,,,,,,,,,,,,,,,,44548,2020-11-17_14h53.00.198,lingCatScenes,2020.1.3,MacIntel,60,"[1440,900]",,,[],,,,,,,,,,,,basement.jpg,space,0.44428,[],[],[],[],[],[],[],0,27,27,16,1,cafeteria6.jpg,breakroom2.jpg,campusquad4.jpg,barbershop2.jpg,,
Image_List_1,,,,,,,,,,,,,,,,44548,2020-11-17_14h53.00.198,lingCatScenes,2020.1.3,MacIntel,60,"[1440,900]",,,[],,,,,,,,,,,,campsite.jpg,space,0.275215,[],[],[],[],[],[],[],0,28,28,24,1,cliff3.jpg,cave6.jpg,cemetery5.jpg,boardwalk.jpg,,
Image_List_1,,,,,,,,,,,,,,,,44548,2020-11-17_14h53.00.198,lingCatScenes,2020.1.3,MacIntel,60,"[1440,900]",,,[],,,,,,,,,,,,savanna5.jpg,space,0.282955,[],[],[],[],[],[],[],0,29,29,90,1,trainStation1.jpg,sidewalk1.jpg,stripmall3.jpg,shoestore4.jpg,,
Image_List_1,,,,,,,,,,,,,,,,44548,2020-11-17_14h53.00.198,lingCatScenes,2020.1.3,MacIntel,60,"[1440,900]",,,[],,,,,,,,,,,,publicrestroom2.jpg,space,0.27728,[],[],[],[],[],[],[],0,30,30,82,1,sandDunes_desert_outdoor9.jpg,promenadeDeck3.jpg,readingroom4.jpg,postoffice4.jpg,,
Image_List_1,,,,,,,,,,,,,,,,44548,2020-11-17_14h53.00.198,lingCatScenes,2020.1.3,MacIntel,60,"[1440,900]",,,[],,,,,,,,,,,,weightroom5.jpg,space,0.17592,[],[],[],[],[],[],[],0,31,31,98,1,wineVineyard8.jpg,warehouse3.jpg,winebarrel4.jpg,winebarrel2.jpg,,
Image_List_1,,,,,,,,,,,,,,,,44548,2020-11-17_14h53.00.198,lingCatScenes,2020.1.3,MacIntel,60,"[1440,900]",,,[],,,,,,,,,,,,HorseRaceTrack.jpg,space,0.16676,[],[],[],[],[],[],[],0,32,32,61,1,metroInside4.jpg,homegarden6.jpg,kindergarten_classroom7.jpg,hayfield6.jpg,,
Image_List_1,,,,,,,,,,,,,,,,44548,2020-11-17_14h53.00.198,lingCatScenes,2020.1.3,MacIntel,60,"[1440,900]",,,[],,,,,,,,,,,,drycleaners4.jpg,space,0.162745,[],[],[],[],[],[],[],0,33,33,40,1,farm1.jpg,drymountains.jpg,dugout1.jpg,clothingstore3.jpg,,
Image_List_1,,,,,,,,,,,,,,,,44548,2020-11-17_14h53.00.198,lingCatScenes,2020.1.3,MacIntel,60,"[1440,900]",,,[],,,,,,,,,,,,shoestore2.jpg,space,0.177705,[],[],[],[],[],[],[],0,34,34,91,1,trainStation5.jpg,skatepark5.jpg,ticket_counter6.jpg,sidewalk3.jpg,,
Image_List_1,,,,,,,,,,,,,,,,44548,2020-11-17_14h53.00.198,lingCatScenes,2020.1.3,MacIntel,60,"[1440,900]",,,[],,,,,,,,,,,,cubicle4.jpg,space,0.16894,[],[],[],[],[],[],[],0,35,35,31,1,desertvegetation6.jpg,conference4.jpg,courtroom2.jpg,cabin3.jpg,,
Image_List_1,,,,,,,,,,,,,,,,44548,2020-11-17_14h53.00.198,lingCatScenes,2020.1.3,MacIntel,60,"[1440,900]",,,[],,,,,,,,,,,,attic2.jpg,space,0.29438,[],[],[],[],[],[],[],0,36,36,7,1,banquetHall4.jpg,backstage1.jpg,baggageClaim3.jpg,applestore2.jpg,,
Image_List_1,,,,,,,,,,,,,,,,44548,2020-11-17_14h53.00.198,lingCatScenes,2020.1.3,MacIntel,60,"[1440,900]",,,[],,,,,,,,,,,,artStudio1.jpg,space,0.41018,[],[],[],[],[],[],[],0,37,37,4,1,baggageClaim2.jpg,auto_showroom1.jpg,appleorchard3.jpg,alley4.jpg,,
Image_List_1,,,,,,,,,,,,,,,,44548,2020-11-17_14h53.00.198,lingCatScenes,2020.1.3,MacIntel,60,"[1440,900]",,,[],,,,,,,,,,,,apartmentBuilding2.jpg,space,0.414115,[],[],[],[],[],[],[],0,38,38,3,1,attic1.jpg,aquarium1.jpg,appleorchard2.jpg,alley3.jpg,,
Image_List_1,,,,,,,,,,,,,,,,44548,2020-11-17_14h53.00.198,lingCatScenes,2020.1.3,MacIntel,60,"[1440,900]",,,[],,,,,,,,,,,,parkinggarage2.jpg,space,0.335295,[],[],[],[],[],[],[],0,39,39,77,1,playroom6.jpg,pasture9.jpg,park8.jpg,mallindoor6.jpg,,
Image_List_1,,,,,,,,,,,,,,,,44548,2020-11-17_14h53.00.198,lingCatScenes,2020.1.3,MacIntel,60,"[1440,900]",,,[],,,,,,,,,,,,exerciseequipment3.jpg,space,0.344625,[],[],[],[],[],[],[],0,40,40,42,1,firestation3.jpg,drymountains6.jpg,farm4.jpg,desertvegetation2.jpg,,
Image_List_1,,,,,,,,,,,,,,,,44548,2020-11-17_14h53.00.198,lingCatScenes,2020.1.3,MacIntel,60,"[1440,900]",,,[],,,,,,,,,,,,deck5.jpg,space,0.346565,[],[],[],[],[],[],[],0,41,41,35,1,dock3.jpg,cubicle7.jpg,dining_car6.jpg,carmechanic2.jpg,,
Image_List_1,,,,,,,,,,,,,,,,44548,2020-11-17_14h53.00.198,lingCatScenes,2020.1.3,MacIntel,60,"[1440,900]",,,[],,,,,,,,,,,,hayfield5.jpg,space,0.44762,[],[],[],[],[],[],[],0,42,42,57,1,jail1.jpg,hallway4.jpg,hut5.jpg,gazebo.jpg,,
Image_List_1,,,,,,,,,,,,,,,,44548,2020-11-17_14h53.00.198,lingCatScenes,2020.1.3,MacIntel,60,"[1440,900]",,,[],,,,,,,,,,,,bikerack1.jpg,space,0.443435,[],[],[],[],[],[],[],0,43,43,17,1,campsite6.jpg,breakroom4.jpg,carmechanic.jpg,baseball6.jpg,,
Image_List_1,,,,,,,,,,,,,,,,44548,2020-11-17_14h53.00.198,lingCatScenes,2020.1.3,MacIntel,60,"[1440,900]",,,[],,,,,,,,,,,,hut2.jpg,space,0.405845,[],[],[],[],[],[],[],0,44,44,63,1,museum6.jpg,hotelRoom2.jpg,lab4.jpg,highway2.jpg,,
Image_List_1,,,,,,,,,,,,,,,,44548,2020-11-17_14h53.00.198,lingCatScenes,2020.1.3,MacIntel,60,"[1440,900]",,,[],,,,,,,,,,,,hotellobby2.jpg,space,0.409685,[],[],[],[],[],[],[],0,45,45,62,1,minigolf.jpg,horsebarn8.jpg,lab3.jpg,hayfield7.jpg,,
Image_List_1,,,,,,,,,,,,,,,,44548,2020-11-17_14h53.00.198,lingCatScenes,2020.1.3,MacIntel,60,"[1440,900]",,,[],,,,,,,,,,,,backyard2.jpg,space,0.466855,[],[],[],[],[],[],[],0,46,46,11,1,basketballcourt4.jpg,bambooforest3.jpg,baywindow5.jpg,backyard1.jpg,,
Image_List_1,,,,,,,,,,,,,,,,44548,2020-11-17_14h53.00.198,lingCatScenes,2020.1.3,MacIntel,60,"[1440,900]",,,[],,,,,,,,,,,,bleachers5.jpg,space,0.379195,[],[],[],[],[],[],[],0,47,47,18,1,casino1.jpg,brewery4.jpg,castle2.jpg,basement6.jpg,,
Image_List_1,,,,,,,,,,,,,,,,44548,2020-11-17_14h53.00.198,lingCatScenes,2020.1.3,MacIntel,60,"[1440,900]",,,[],,,,,,,,,,,,highway7.jpg,space,0.435825,[],[],[],[],[],[],[],0,48,48,58,1,lab1.jpg,hedgemaze1.jpg,igloo4.jpg,grocerystore2.jpg,,
Image_List_1,,,,,,,,,,,,,,,,44548,2020-11-17_14h53.00.198,lingCatScenes,2020.1.3,MacIntel,60,"[1440,900]",,,[],,,,,,,,,,,,ballroom1.jpg,space,0.36014,[],[],[],[],[],[],[],0,49,49,14,1,breakroom5.jpg,bistrooutdoor5.jpg,botanicalGarden5.jpg,ballroom3.jpg,,
Image_List_1,,,,,,,,,,,,,,,,44548,2020-11-17_14h53.00.198,lingCatScenes,2020.1.3,MacIntel,60,"[1440,900]",,,[],,,,,,,,,,,,ATM1.jpg,space,0.28534,[],[],[],[],[],[],[],0,50,50,6,1,banquetHall2.jpg,auto_showroom5.jpg,baggageClaim1.jpg,apartmentBuilding3.jpg,,
Image_List_1,,,,,,,,,,,,,,,,44548,2020-11-17_14h53.00.198,lingCatScenes,2020.1.3,MacIntel,60,"[1440,900]",,,[],,,,,,,,,,,,boardwalk6.jpg,space,0.346875,[],[],[],[],[],[],[],0,51,51,20,1,cave.jpg,campsite3.jpg,cave4.jpg,basketballcourt7.jpg,,
Image_List_1,,,,,,,,,,,,,,,,44548,2020-11-17_14h53.00.198,lingCatScenes,2020.1.3,MacIntel,60,"[1440,900]",,,[],,,,,,,,,,,,dugout4.jpg,space,0.32831,[],[],[],[],[],[],[],0,52,52,41,1,farm3.jpg,drymountains3.jpg,fabricstore1.jpg,dentist2.jpg,,
Image_List_1,,,,,,,,,,,,,,,,44548,2020-11-17_14h53.00.198,lingCatScenes,2020.1.3,MacIntel,60,"[1440,900]",,,[],,,,,,,,,,,,liquorstore8.jpg,space,0.24465,[],[],[],[],[],[],[],0,53,53,69,1,parkinglot2.jpg,livingroom.jpg,metroInside1.jpg,icecream2.jpg,,
Image_List_1,,,,,,,,,,,,,,,,44548,2020-11-17_14h53.00.198,lingCatScenes,2020.1.3,MacIntel,60,"[1440,900]",,,[],,,,,,,,,,,,bus_shelter.jpg,space,0.4349,[],[],[],[],[],[],[],0,54,54,23,1,church8.jpg,carmechanic4.jpeg,cemetery3.jpg,bleachers6.jpg,,
Image_List_1,,,,,,,,,,,,,,,,44548,2020-11-17_14h53.00.198,lingCatScenes,2020.1.3,MacIntel,60,"[1440,900]",,,[],,,,,,,,,,,,pavilion2.jpg,space,0.470495,[],[],[],[],[],[],[],0,55,55,80,1,racecarcourse2.jpg,porch.jpg,poolhall5.jpg,parkinggarage4.jpg,,
Image_List_1,,,,,,,,,,,,,,,,44548,2020-11-17_14h53.00.198,lingCatScenes,2020.1.3,MacIntel,60,"[1440,900]",,,[],,,,,,,,,,,,frontDoor2.jpg,space,0.31993,[],[],[],[],[],[],[],0,56,56,48,1,golfcourse6.jpg,fittingroom5.jpg,golfcourse7.jpg,fabricstore2.jpg,,
Image_List_1,,,,,,,,,,,,,,,,44548,2020-11-17_14h53.00.198,lingCatScenes,2020.1.3,MacIntel,60,"[1440,900]",,,[],,,,,,,,,,,,deck1.jpg,space,0.38158,[],[],[],[],[],[],[],0,57,57,33,1,diningroom1.jpg,courthouse2.jpg,diner10.jpg,cabinIndoors5.jpg,,
Image_List_1,,,,,,,,,,,,,,,,44548,2020-11-17_14h53.00.198,lingCatScenes,2020.1.3,MacIntel,60,"[1440,900]",,,[],,,,,,,,,,,,bowlingalley5.jpg,space,0.32727,[],[],[],[],[],[],[],0,58,58,22,1,church6.jpg,cargo5.jpg,cemetery.jpg,bistrooutdoor6.jpg,,
Image_List_1,,,,,,,,,,,,,,,,44548,2020-11-17_14h53.00.198,lingCatScenes,2020.1.3,MacIntel,60,"[1440,900]",,,[],,,,,,,,,,,,warehouseoutside4.jpg,space,0.39417,[],[],[],[],[],[],[],0,59,59,97,1,wineVineyard2.jpg,waitingroom4.jpg,winebarrel3.jpg,warehouseoutside3.jpg,,
Image_List_1,,,,,,,,,,,,,,,,44548,2020-11-17_14h53.00.198,lingCatScenes,2020.1.3,MacIntel,60,"[1440,900]",,,[],,,,,,,,,,,,greenhouse2.jpg,space,0.341755,[],[],[],[],[],[],[],0,60,60,54,1,horsebarn11.jpg,gazebo2.jpg,homegarage4.jpg,frontFoyer.jpg,,
Image_List_1,,,,,,,,,,,,,,,,44548,2020-11-17_14h53.00.198,lingCatScenes,2020.1.3,MacIntel,60,"[1440,900]",,,[],,,,,,,,,,,,campsite7.jpg,space,0.35911,[],[],[],[],[],[],[],0,61,61,25,1,conference3.jpg,church3.jpg,checkoutcounter2.jpg,botanicalGarden4.jpg,,
Image_List_1,,,,,,,,,,,,,,,,44548,2020-11-17_14h53.00.198,lingCatScenes,2020.1.3,MacIntel,60,"[1440,900]",,,"[""trial_ahead_box"",""trial_slight_left_box""]",,,,,,,,,,,,newsstand2.jpg,space,2.040355,"[0.013676215277777778,-0.20875434027777778]","[-0.29672743055555556,-0.31026909722222223]","[1,1]","[0,0]","[0,0]","[1.0302049999882001,1.8319349999947008]","[""trial_ahead_box"",""trial_slight_left_box""]",0,62,62,74,1,playground10.jpg,observatory4.jpeg,operatingroom1.jpg,lightingstore2.jpg,,
Image_List_1,,,,,,,,,,,,,,,,44548,2020-11-17_14h53.00.198,lingCatScenes,2020.1.3,MacIntel,60,"[1440,900]",,,"[""trial_slight_left_box""]",,,,,,,,,,,,courthouse1.jpg,space,0.812425,[-0.20299913194444444],[-0.2847873263888889],[1],[0],[0],[0.6469149999902584],"[""trial_slight_left_box""]",0,63,63,30,1,desertvegetation3.jpg,clothingstore2.jpg,copyroom2.jpg,bus_shelter3.jpg,,
Image_List_1,,,,,,,,,,,,,,,,44548,2020-11-17_14h53.00.198,lingCatScenes,2020.1.3,MacIntel,60,"[1440,900]",,,[],,,,,,,,,,,,botanicalGarden6.jpg,space,0.81155,[0.010481770833333333],[-0.27313368055555554],[1],[0],[0],[0.6134700000111479],[],0,64,64,21,1,cemetery6.jpg,campusquad3.jpg,cave5.jpg,beach1.jpeg,,
Image_List_1,,,,,,,,,,,,,,,,44548,2020-11-17_14h53.00.198,lingCatScenes,2020.1.3,MacIntel,60,"[1440,900]",,,"[""trial_ahead_box""]",,,,,,,,,,,,rooftop1.jpg,space,0.8626,[-0.002183159722222222],[-0.2931467013888889],[1],[0],[0],[0.6601550000195857],"[""trial_ahead_box""]",0,65,65,88,1,track.jpg,sculpturegarden4.jpg,soccerfield.jpg,sandbox.jpg,,
Image_List_1,,,,,,,,,,,,,,,,44548,2020-11-17_14h53.00.198,lingCatScenes,2020.1.3,MacIntel,60,"[1440,900]",,,"[""trial_ahead_box""]",,,,,,,,,,,,alley1.jpg,space,0.661505,[-0.002183159722222222],[-0.2931467013888889],[1],[0],[0],[0.35962999999173917],"[""trial_ahead_box""]",0,66,66,2,1,arcade1.jpg,applestore6.jpg,apartmentBuilding4.jpg,airportTerminal6.jpg,,
Image_List_1,,,,,,,,,,,,,,,,44548,2020-11-17_14h53.00.198,lingCatScenes,2020.1.3,MacIntel,60,"[1440,900]",,,"[""trial_ahead_box""]",,,,,,,,,,,,driveway6.jpg,space,0.88882,[-0.0032942708333333335],[-0.2931467013888889],[1],[0],[0],[0.5794400000013411],"[""trial_ahead_box""]",0,67,67,39,1,eyeglassstore9.jpg,drycleaners6.jpg,drymountains5.jpg,cliff5.jpg,,
Image_List_1,,,,,,,,,,,,,,,,44548,2020-11-17_14h53.00.198,lingCatScenes,2020.1.3,MacIntel,60,"[1440,900]",,,"[""trial_slight_right_box""]",,,,,,,,,,,,dining_car.jpg,space,0.8956,[0.18775173611111112],[-0.29237413194444445],[1],[0],[0],[0.6789799999969546],"[""trial_slight_right_box""]",0,68,68,37,1,driveway4.jpg,dinosaur4.jpg,driveway7.jpg,citystreet9.jpg,,
Image_List_1,,,,,,,,,,,,,,,,44548,2020-11-17_14h53.00.198,lingCatScenes,2020.1.3,MacIntel,60,"[1440,900]",,,"[""trial_slight_right_box""]",,,,,,,,,,,,readingroom5.jpg,space,0.76291,[0.19002170138888888],[-0.2942578125],[1],[0],[0],[0.49532499999622814],"[""trial_slight_right_box""]",0,69,69,84,1,sidewalk2.jpg,restaurant13.jpg,sandDunes_desert_outdoor.jpg,rooftop2.jpg,,
Image_List_1,,,,,,,,,,,,,,,,44548,2020-11-17_14h53.00.198,lingCatScenes,2020.1.3,MacIntel,60,"[1440,900]",,,"[""trial_slight_right_box""]",,,,,,,,,,,,frontDoor3.jpg,space,0.70457,[0.19002170138888888],[-0.2942578125],[1],[0],[0],[0.4282250000105705],"[""trial_slight_right_box""]",0,70,70,49,1,greenhouse5.jpg,flowershop3.jpg,greenhouse.jpg,farm2.jpg,,
Image_List_1,,,,,,,,,,,,,,,,44548,2020-11-17_14h53.00.198,lingCatScenes,2020.1.3,MacIntel,60,"[1440,900]",,,"[""trial_slight_right_box""]",,,,,,,,,,,,musicStore3.jpg,space,0.80265,[0.19002170138888888],[-0.2942578125],[1],[0],[0],[0.5286849999974947],"[""trial_slight_right_box""]",0,71,71,73,1,photographer_studio2.jpg,nursery.jpg,nursery4.jpg,library_aisle9.jpg,,
Image_List_1,,,,,,,,,,,,,,,,44548,2020-11-17_14h53.00.198,lingCatScenes,2020.1.3,MacIntel,60,"[1440,900]",,,"[""trial_slight_right_box""]",,,,,,,,,,,,frontDoor.jpg,space,0.735135,[0.19002170138888888],[-0.2942578125],[1],[0],[0],[0.4121349999913946],"[""trial_slight_right_box""]",0,72,72,47,1,gasstation8.jpg,firestation4.jpg,fountain7.jpg,elevatorOutside2.jpg,,
Image_List_1,,,,,,,,,,,,,,,,44548,2020-11-17_14h53.00.198,lingCatScenes,2020.1.3,MacIntel,60,"[1440,900]",,,"[""trial_slight_right_box""]",,,,,,,,,,,,dining_car2.jpg,space,0.7104,[0.19002170138888888],[-0.2942578125],[1],[0],[0],[0.37684499999159016],"[""trial_slight_right_box""]",0,73,73,38,1,elevatorOutside4.jpg,dock1.jpg,driveway8.jpg,classroom1.jpg,,
Image_List_1,,,,,,,,,,,,,,,,44548,2020-11-17_14h53.00.198,lingCatScenes,2020.1.3,MacIntel,60,"[1440,900]",,,"[""trial_slight_right_box""]",,,,,,,,,,,,treehouse.jpg,space,0.658745,[0.19002170138888888],[-0.2942578125],[1],[0],[0],[0.36115500002051704],"[""trial_slight_right_box""]",0,74,74,94,1,waitingroom3.jpg,staircase6.jpg,weightroom.jpg,trainStation3.jpg,,
Image_List_1,,,,,,,,,,,,,,,,44548,2020-11-17_14h53.00.198,lingCatScenes,2020.1.3,MacIntel,60,"[1440,900]",,,"[""trial_slight_right_box""]",,,,,,,,,,,,gasstation7.jpg,space,0.78458,[0.19002170138888888],[-0.2942578125],[1],[0],[0],[0.4787650000071153],"[""trial_slight_right_box""]",0,75,75,52,1,hardwarestore1.jpg,frontFoyer6.jpg,highway.jpg,forestpath2.jpg,,
Image_List_1,,,,,,,,,,,,,,,,44548,2020-11-17_14h53.00.198,lingCatScenes,2020.1.3,MacIntel,60,"[1440,900]",,,"[""trial_right_box""]",,,,,,,,,,,,library_aisle10.jpg,space,0.982095,[0.39373697916666667],[-0.2973046875],[1],[0],[0],[0.762879999994766],"[""trial_right_box""]",0,76,76,66,1,office3.jpg,laundromat3.jpg,liquorstore.jpg,horsebarn9.jpg,,
Image_List_1,,,,,,,,,,,,,,,,44548,2020-11-17_14h53.00.198,lingCatScenes,2020.1.3,MacIntel,60,"[1440,900]",,,"[""trial_right_box""]",,,,,,,,,,,,greenmountains.jpg,space,0.71289,[0.39373697916666667],[-0.2984157986111111],[1],[0],[0],[0.4436899999855086],"[""trial_right_box""]",0,77,77,55,1,hotelRoom3.jpg,gazebo5.jpg,hotelRoom7.jpg,frontLawn2.jpg,,
Image_List_1,,,,,,,,,,,,,,,,44548,2020-11-17_14h53.00.198,lingCatScenes,2020.1.3,MacIntel,60,"[1440,900]",,,"[""trial_right_box""]",,,,,,,,,,,,castle3.jpg,space,0.60943,[0.39373697916666667],[-0.29952690972222223],[1],[0],[0],[0.3770850000146311],"[""trial_right_box""]",0,78,78,27,1,courtroom3.jpg,churchInside4.jpg,closet.jpg,brewery2.jpg,,
Image_List_1,,,,,,,,,,,,,,,,44548,2020-11-17_14h53.00.198,lingCatScenes,2020.1.3,MacIntel,60,"[1440,900]",,,"[""trial_right_box""]",,,,,,,,,,,,waitingroom2.jpg,space,0.644785,[0.39373697916666667],[-0.29952690972222223],[1],[0],[0],[0.3769099999917671],"[""trial_right_box""]",0,79,79,95,1,warehouse2.jpg,stripmall6.jpg,weightroom4.jpg,tvstudio3.jpg,,
Image_List_1,,,,,,,,,,,,,,,,44548,2020-11-17_14h53.00.198,lingCatScenes,2020.1.3,MacIntel,60,"[1440,900]",,,"[""trial_right_box""]",,,,,,,,,,,,auto_showroom3.jpg,space,0.694985,[0.39373697916666667],[-0.29952690972222223],[1],[0],[0],[0.39557500000228174],"[""trial_right_box""]",0,80,80,9,1,bar2.jpg,ballroom2.jpg,basement5.jpg,arcade2.jpg,,
Image_List_1,,,,,,,,,,,,,,,,44548,2020-11-17_14h53.00.198,lingCatScenes,2020.1.3,MacIntel,60,"[1440,900]",,,"[""trial_right_box""]",,,,,,,,,,,,liquorstore7.jpg,space,0.626375,[0.39373697916666667],[-0.29952690972222223],[1],[0],[0],[0.2604200000059791],"[""trial_right_box""]",0,81,81,68,1,parkinglot.jpg,lightingstore4.jpg,lockerroom2.jpg,hospitalroom3.jpg,,
Image_List_1,,,,,,,,,,,,,,,,44548,2020-11-17_14h53.00.198,lingCatScenes,2020.1.3,MacIntel,60,"[1440,900]",,,"[""trial_right_box""]",,,,,,,,,,,,metroInside2.jpg,space,0.662285,[0.39373697916666667],[-0.29952690972222223],[1],[0],[0],[0.3957700000028126],"[""trial_right_box""]",0,82,82,71,1,pavilion5.jpg,metroInside3.jpg,museum3.jpg,jewelrystore.jpg,,
Image_List_1,,,,,,,,,,,,,,,,44548,2020-11-17_14h53.00.198,lingCatScenes,2020.1.3,MacIntel,60,"[1440,900]",,,"[""trial_right_box""]",,,,,,,,,,,,parkinggarage.jpg,space,0.67088,[0.39373697916666667],[-0.29952690972222223],[1],[0],[0],[0.3610499999776948],"[""trial_right_box""]",0,83,83,76,1,playroom4.jpg,parkinggarage3.jpg,park2.jpg,lookout4.jpg,,
Image_List_1,,,,,,,,,,,,,,,,44548,2020-11-17_14h53.00.198,lingCatScenes,2020.1.3,MacIntel,60,"[1440,900]",,,"[""trial_right_box""]",,,,,,,,,,,,cornfield2.jpg,space,0.695725,[0.39373697916666667],[-0.29952690972222223],[1],[0],[0],[0.3457699999853503],"[""trial_right_box""]",0,84,84,29,1,deck2.jpg,cliff2.jpg,constructionSite4.jpg,bridalboutique3.jpg,,
Image_List_1,,,,,,,,,,,,,,,,44548,2020-11-17_14h53.00.198,lingCatScenes,2020.1.3,MacIntel,60,"[1440,900]",,,"[""trial_slight_right_box""]",,,,,,,,,,,,firestation2.jpg,space,0.66059,[0.17947916666666666],[-0.3115190972222222],[1],[0],[0],[0.4451249999983702],"[""trial_slight_right_box""]",0,85,85,44,1,frontFoyer4.jpg,elevatorOutside1.jpg,foodcourt6.jpg,dock2.jpg,,
Image_List_1,,,,,,,,,,,,,,,,44548,2020-11-17_14h53.00.198,lingCatScenes,2020.1.3,MacIntel,60,"[1440,900]",,,"[""trial_ahead_box""]",,,,,,,,,,,,lockerroom4.jpg,space,0.828495,[-0.01572482638888889],[-0.3115190972222222],[1],[0],[0],[0.6135850000136998],"[""trial_ahead_box""]",0,86,86,70,1,pavilion.jpg,lockerroom3.jpg,minigolf8.jpg,igloo.jpg,,
Image_List_1,,,,,,,,,,,,,,,,44548,2020-11-17_14h53.00.198,lingCatScenes,2020.1.3,MacIntel,60,"[1440,900]",,,"[""trial_slight_left_box""]",,,,,,,,,,,,frontLawn4.jpg,space,1.06353,[-0.1787673611111111],[-0.31461371527777776],[1],[0],[0],[0.8136449999874458],"[""trial_slight_left_box""]",0,87,87,50,1,grocerystore6.jpg,forestpath6.jpg,hallway2.jpg,fireplace4.jpg,,
Image_List_1,,,,,,,,,,,,,,,,44548,2020-11-17_14h53.00.198,lingCatScenes,2020.1.3,MacIntel,60,"[1440,900]",,,"[""trial_ahead_box""]",,,,,,,,,,,,fittingroom2.jpg,space,1.320195,"[0.07417100694444445,-0.0037239583333333335]","[-0.28328125,-0.2843923611111111]","[1,1]","[0,0]","[0,0]","[0.5959600000060163,1.0797099999908824]","[""trial_ahead_box""]",0,88,88,45,1,frontFoyer7.jpg,factory1.jpg,forestpath4.jpg,dock4.jpg,,
Image_List_1,,,,,,,,,,,,,,,,44548,2020-11-17_14h53.00.198,lingCatScenes,2020.1.3,MacIntel,60,"[1440,900]",,,"[""trial_slight_left_box""]",,,,,,,,,,,,library_aisle3.jpg,space,1.05417,[-0.21773871527777777],[-0.2975434027777778],[1],[0],[0],[0.8120800000033341],"[""trial_slight_left_box""]",0,89,89,67,1,park7.jpg,laundromat4.jpg,liquorstore2.jpg,hospitalroom2.jpg,,
Image_List_1,,,,,,,,,,,,,,,,44548,2020-11-17_14h53.00.198,lingCatScenes,2020.1.3,MacIntel,60,"[1440,900]",,,[],,,,,,,,,,,,balconyIN2.jpg,space,1.10231,[-0.03056423611111111],[-0.28129774305555555],[1],[0],[0],[0.8139099999971222],[],0,90,90,13,1,bowlingalley3.jpg,beach2.jpg,boardwalk4.jpg,backyard6.jpg,,
Image_List_1,,,,,,,,,,,,,,,,44548,2020-11-17_14h53.00.198,lingCatScenes,2020.1.3,MacIntel,60,"[1440,900]",,,"[""trial_ahead_box""]",,,,,,,,,,,,readingroom1.jpg,space,0.8373,[0.021610243055555554],[-0.28129774305555555],[1],[0],[0],[0.4791100000147708],"[""trial_ahead_box""]",0,91,91,83,1,sculpturegarden1.jpg,promenadeDeck6.jpg,restaurant8.jpg,readingroom2.jpg,,
Image_List_1,,,,,,,,,,,,,,,,44548,2020-11-17_14h53.00.198,lingCatScenes,2020.1.3,MacIntel,60,"[1440,900]",,,"[""trial_slight_left_box""]",,,,,,,,,,,,hometheater2.jpg,space,0.903785,[-0.19844618055555555],[-0.30450520833333333],[1],[0],[0],[0.6614249999984168],"[""trial_slight_left_box""]",0,92,92,60,1,lightingstore3.jpg,homegarage.jpg,kindergarten_classroom6.jpg,hallway.jpg,,
Image_List_1,,,,,,,,,,,,,,,,44548,2020-11-17_14h53.00.198,lingCatScenes,2020.1.3,MacIntel,60,"[1440,900]",,,"[""trial_ahead_box"",""trial_slight_left_box"",""trial_left_box"",""trial_slight_right_box""]",,,,,,,,,,,,campusquad2.jpg,space,4.27854,"[-0.0043055555555555555,-0.2321527777777778,-0.21644097222222222,-0.39307291666666666,0.17944010416666667]","[-0.2816840277777778,-0.28284288194444446,-0.28284288194444446,-0.2898090277777778,-0.30072916666666666]","[1,1,1,1,1]","[0,0,0,0,0]","[0,0,0,0,0]","[0.6803800000052433,1.36483499998576,1.9501599999784958,2.7693299999809824,4.1549749999830965]","[""trial_ahead_box"",""trial_slight_left_box"",""trial_left_box"",""trial_slight_right_box""]",0,93,93,26,1,cornfield4.jpg,church4.jpg,churchInside3.jpg,botanicalGarden7.jpg,,
Image_List_1,,,,,,,,,,,,,,,,44548,2020-11-17_14h53.00.198,lingCatScenes,2020.1.3,MacIntel,60,"[1440,900]",,,"[""trial_ahead_box""]",,,,,,,,,,,,pasture.jpg,space,1.19908,[0.0166796875],[-0.3038237847222222],[1],[0],[0],[0.8961249999993015],"[""trial_ahead_box""]",0,94,94,79,1,poolhall2.jpeg,playground9.jpg,pier2.jpg,observatory2.jpg,,
Image_List_1,,,,,,,,,,,,,,,,44548,2020-11-17_14h53.00.198,lingCatScenes,2020.1.3,MacIntel,60,"[1440,900]",,,"[""trial_slight_right_box""]",,,,,,,,,,,,museum5.jpg,space,1.0454,[0.17793836805555555],[-0.2949262152777778],[1],[0],[0],[0.7955500000098255],"[""trial_slight_right_box""]",0,95,95,72,1,pharmacy4.jpg,musicStore1.jpg,museum4.jpg,kindergarten_classroom.jpg,,
Image_List_1,,,,,,,,,,,,,,,,44548,2020-11-17_14h53.00.198,lingCatScenes,2020.1.3,MacIntel,60,"[1440,900]",,,"[""trial_ahead_box""]",,,,,,,,,,,,exerciseequipment5.jpg,space,1.12785,[0.020546875],[-0.3018880208333333],[1],[0],[0],[0.9122050000005402],"[""trial_ahead_box""]",0,96,96,43,1,forestpath10.jpg,dugout2.jpg,foodcourt.jpg,diningroom3.jpg,,
Image_List_1,,,,,,,,,,,,,,,,44548,2020-11-17_14h53.00.198,lingCatScenes,2020.1.3,MacIntel,60,"[1440,900]",,,"[""trial_slight_right_box""]",,,,,,,,,,,,airportTerminal4.jpg,space,0.915825,[0.18132378472222221],[-0.3030512152777778],[1],[0],[0],[0.7108099999895785],"[""trial_slight_right_box""]",0,97,97,1,1,apartmentBuilding1.jpg,applestore1.jpg,airportTerminal3.jpg,airportTerminal2.jpg,,
Image_List_1,,,,,,,,,,,,,,,,44548,2020-11-17_14h53.00.198,lingCatScenes,2020.1.3,MacIntel,60,"[1440,900]",,,"[""trial_slight_right_box"",""trial_ahead_box""]",,,,,,,,,,,,deck4.jpg,space,3.619065,"[0.18248263888888888,-0.008125,-0.1744140625]","[-0.287578125,-0.30614583333333334,-0.31581597222222224]","[1,1,1]","[0,0,0]","[0,0,0]","[1.8490749999764375,2.6839599999948405,3.4035399999993388]","[""trial_slight_right_box"",""trial_ahead_box""]",0,98,98,34,1,diningroom5.jpg,courthouse4.jpg,diner11.jpg,campusquad1.jpg,,
Image_List_1,,,,,,,,,,,,,,,,44548,2020-11-17_14h53.00.198,lingCatScenes,2020.1.3,MacIntel,60,"[1440,900]",,,"[""trial_slight_left_box""]",,,,,,,,,,,,igloo2.jpg,space,0.860705,[-0.18587239583333334],[-0.3146527777777778],[1],[0],[0],[0.5612299999920651],"[""trial_slight_left_box""]",0,99,99,64,1,newsstand5.jpg,jewelrystore8.jpg,lab5.jpg,homegarage2.jpg,,
Image_List_1,,,,,,,,,,,,,,,,44548,2020-11-17_14h53.00.198,lingCatScenes,2020.1.3,MacIntel,60,,,,,,,,,,,,,,,,,,,,,,,,,,,,,,,,,,,space,22.02376
