image_list,key_resp_intructions.keys,key_resp_intructions.rt,key_resp_intructions_3.keys,key_resp_intructions_3.rt,PracticeComplete_2.keys,PracticeComplete_2.rt,PracticeComplete_3.keys,PracticeComplete_3.rt,demo_trials.thisRepN,demo_trials.thisTrialN,demo_trials.thisN,demo_trials.thisIndex,demo_trials.ran,demo_images,path_images,participant,date,expName,psychopyVersion,OS,frameRate,windowSize,practice_complete.keys,practice_complete.rt,boxes_checked,PracticeComplete.keys,PracticeComplete.rt,practice_trials.thisRepN,practice_trials.thisTrialN,practice_trials.thisN,practice_trials.thisIndex,practice_trials.ran,practice_images,feedback_images,key_resp_intructions_2.keys,key_resp_intructions_2.rt,Image_List_2,trial_complete.keys,trial_complete.rt,trial_mouse.x,trial_mouse.y,trial_mouse.leftButton,trial_mouse.midButton,trial_mouse.rightButton,trial_mouse.time,trial_mouse.clicked_name,trials.thisRepN,trials.thisTrialN,trials.thisN,trials.thisIndex,trials.ran,Image_List_1,Image_List_3,Image_List_4,Image_List_5,key_resp.keys,key_resp.rt
Image_List_2,space,1.74985,space,0.41124,space,0.536795,space,0.337395,0,0,0,2,1,ahead_right.jpg,ahead_right_path.jpg,44548,2020-11-17_14h51.13.687,lingCatScenes,2020.1.3,MacIntel,60,,,,,,,,,,,,,,,,,,,,,,,,,,,,,,,,,,,,
Image_List_2,,,,,space,0.234205,space,0.202055,0,1,1,0,1,ahead.jpg,ahead_path.jpg,44548,2020-11-17_14h51.13.687,lingCatScenes,2020.1.3,MacIntel,60,,,,,,,,,,,,,,,,,,,,,,,,,,,,,,,,,,,,
Image_List_2,,,,,space,0.002285,space,0.00116,0,2,2,1,1,ahead_left.jpg,ahead_left_path.jpg,44548,2020-11-17_14h51.13.687,lingCatScenes,2020.1.3,MacIntel,60,,,,,,,,,,,,,,,,,,,,,,,,,,,,,,,,,,,,
Image_List_2,,,,,space,0.01421,space,0.1762,0,3,3,4,1,left.jpg,left_path.jpg,44548,2020-11-17_14h51.13.687,lingCatScenes,2020.1.3,MacIntel,60,,,,,,,,,,,,,,,,,,,,,,,,,,,,,,,,,,,,
Image_List_2,,,,,space,0.33436,space,0.16868,0,4,4,3,1,ahead_right_left.jpg,ahead_right_left_path.jpg,44548,2020-11-17_14h51.13.687,lingCatScenes,2020.1.3,MacIntel,60,,,,,,,,,,,,,,,,,,,,,,,,,,,,,,,,,,,,
Image_List_2,,,,,space,0.14018,space,0.14921,0,5,5,6,1,right_left.jpg,right_left_path.jpg,44548,2020-11-17_14h51.13.687,lingCatScenes,2020.1.3,MacIntel,60,,,,,,,,,,,,,,,,,,,,,,,,,,,,,,,,,,,,
Image_List_2,,,,,space,0.18416,space,0.19118,0,6,6,5,1,right.jpg,right_path.jpg,44548,2020-11-17_14h51.13.687,lingCatScenes,2020.1.3,MacIntel,60,,,,,,,,,,,,,,,,,,,,,,,,,,,,,,,,,,,,
Image_List_2,,,,,,,,,,,,,,,,44548,2020-11-17_14h51.13.687,lingCatScenes,2020.1.3,MacIntel,60,"[1440,900]",space,0.15186,[],space,0.17717,0,0,0,1,1,ahead_left_2.jpg,ahead_left_2_path.jpg,,,,,,,,,,,,,,,,,,,,,,,
Image_List_2,,,,,,,,,,,,,,,,44548,2020-11-17_14h51.13.687,lingCatScenes,2020.1.3,MacIntel,60,"[1440,900]",space,0.171385,[],space,0.186195,0,1,1,5,1,right_2.jpg,right_2_path.jpg,,,,,,,,,,,,,,,,,,,,,,,
Image_List_2,,,,,,,,,,,,,,,,44548,2020-11-17_14h51.13.687,lingCatScenes,2020.1.3,MacIntel,60,"[1440,900]",space,0.210995,[],space,0.17847,0,2,2,2,1,ahead_right_2.jpg,ahead_right_2_path.jpg,,,,,,,,,,,,,,,,,,,,,,,
Image_List_2,,,,,,,,,,,,,,,,44548,2020-11-17_14h51.13.687,lingCatScenes,2020.1.3,MacIntel,60,"[1440,900]",space,0.164805,[],space,0.20302,0,3,3,6,1,right_left_2.jpg,right_left_2_path.jpg,,,,,,,,,,,,,,,,,,,,,,,
Image_List_2,,,,,,,,,,,,,,,,44548,2020-11-17_14h51.13.687,lingCatScenes,2020.1.3,MacIntel,60,"[1440,900]",space,0.202165,[],space,0.22066,0,4,4,0,1,ahead_2.jpg,ahead_2_path.jpg,,,,,,,,,,,,,,,,,,,,,,,
Image_List_2,,,,,,,,,,,,,,,,44548,2020-11-17_14h51.13.687,lingCatScenes,2020.1.3,MacIntel,60,"[1440,900]",space,0.001225,[],space,0.17228,0,5,5,4,1,left_2.jpg,left_2_path.jpg,,,,,,,,,,,,,,,,,,,,,,,
Image_List_2,,,,,,,,,,,,,,,,44548,2020-11-17_14h51.13.687,lingCatScenes,2020.1.3,MacIntel,60,"[1440,900]",space,0.322965,[],space,0.244025,0,6,6,3,1,ahead_right_left_2.jpg,ahead_right_left_2_path.jpg,,,,,,,,,,,,,,,,,,,,,,,
Image_List_2,,,,,,,,,,,,,,,,44548,2020-11-17_14h51.13.687,lingCatScenes,2020.1.3,MacIntel,60,"[1440,900]",,,[],,,,,,,,,,space,0.249575,conference3.jpg,space,3.323175,[],[],[],[],[],[],[],0,0,0,25,1,campsite7.jpg,church3.jpg,checkoutcounter2.jpg,botanicalGarden4.jpg,,
Image_List_2,,,,,,,,,,,,,,,,44548,2020-11-17_14h51.13.687,lingCatScenes,2020.1.3,MacIntel,60,"[1440,900]",,,[],,,,,,,,,,,,dormroom9.jpg,space,0.41034,[],[],[],[],[],[],[],0,1,1,36,1,diner14.jpg,dining_car3.jpg,doctor1.jpg,checkoutcounter9.jpg,,
Image_List_2,,,,,,,,,,,,,,,,44548,2020-11-17_14h51.13.687,lingCatScenes,2020.1.3,MacIntel,60,"[1440,900]",,,[],,,,,,,,,,,,dock3.jpg,space,0.51334,[],[],[],[],[],[],[],0,2,2,35,1,deck5.jpg,cubicle7.jpg,dining_car6.jpg,carmechanic2.jpg,,
Image_List_2,,,,,,,,,,,,,,,,44548,2020-11-17_14h51.13.687,lingCatScenes,2020.1.3,MacIntel,60,"[1440,900]",,,[],,,,,,,,,,,,elevatorOutside4.jpg,space,0.563745,[],[],[],[],[],[],[],0,3,3,38,1,dining_car2.jpg,dock1.jpg,driveway8.jpg,classroom1.jpg,,
Image_List_2,,,,,,,,,,,,,,,,44548,2020-11-17_14h51.13.687,lingCatScenes,2020.1.3,MacIntel,60,"[1440,900]",,,"[""trial_ahead_box""]",,,,,,,,,,,,playroom4.jpg,space,5.340605,[-0.009822048611111111],[-0.28951822916666664],[1],[0],[0],[0.848085000005085],"[""trial_ahead_box""]",0,4,4,76,1,parkinggarage.jpg,parkinggarage3.jpg,park2.jpg,lookout4.jpg,,
Image_List_2,,,,,,,,,,,,,,,,44548,2020-11-17_14h51.13.687,lingCatScenes,2020.1.3,MacIntel,60,"[1440,900]",,,[],,,,,,,,,,,,playground10.jpg,space,0.99383,[],[],[],[],[],[],[],0,5,5,74,1,newsstand2.jpg,observatory4.jpeg,operatingroom1.jpg,lightingstore2.jpg,,
Image_List_2,,,,,,,,,,,,,,,,44548,2020-11-17_14h51.13.687,lingCatScenes,2020.1.3,MacIntel,60,"[1440,900]",,,"[""trial_ahead_box""]",,,,,,,,,,,,hallway5.jpg,space,0.71387,[-0.0020833333333333333],[-0.2795095486111111],[1],[0],[0],[0.4122499999939464],"[""trial_ahead_box""]",0,6,6,51,1,gasstation6.jpg,frontDoor5.jpg,hayfield4.jpg,firestation5.jpg,,
Image_List_2,,,,,,,,,,,,,,,,44548,2020-11-17_14h51.13.687,lingCatScenes,2020.1.3,MacIntel,60,"[1440,900]",,,"[""trial_ahead_box""]",,,,,,,,,,,,campsite6.jpg,space,0.644795,[-0.0020833333333333333],[-0.2795095486111111],[1],[0],[0],[0.42867500000284053],"[""trial_ahead_box""]",0,7,7,17,1,bikerack1.jpg,breakroom4.jpg,carmechanic.jpg,baseball6.jpg,,
Image_List_2,,,,,,,,,,,,,,,,44548,2020-11-17_14h51.13.687,lingCatScenes,2020.1.3,MacIntel,60,"[1440,900]",,,"[""trial_ahead_box""]",,,,,,,,,,,,parkinglot2.jpg,space,0.72771,[-0.0020833333333333333],[-0.2795095486111111],[1],[0],[0],[0.4783199999947101],"[""trial_ahead_box""]",0,8,8,69,1,liquorstore8.jpg,livingroom.jpg,metroInside1.jpg,icecream2.jpg,,
Image_List_2,,,,,,,,,,,,,,,,44548,2020-11-17_14h51.13.687,lingCatScenes,2020.1.3,MacIntel,60,"[1440,900]",,,"[""trial_ahead_box""]",,,,,,,,,,,,hut3.jpg,space,0.6092,[-0.0020833333333333333],[-0.2795095486111111],[1],[0],[0],[0.39483999999356456],"[""trial_ahead_box""]",0,9,9,56,1,grocerystore5.jpg,golfcourse10.jpg,hut1.jpg,gasstation2.jpg,,
Image_List_2,,,,,,,,,,,,,,,,44548,2020-11-17_14h51.13.687,lingCatScenes,2020.1.3,MacIntel,60,"[1440,900]",,,"[""trial_ahead_box""]",,,,,,,,,,,,farm1.jpg,space,0.57678,[-0.0020833333333333333],[-0.2795095486111111],[1],[0],[0],[0.36212000000523403],"[""trial_ahead_box""]",0,10,10,40,1,drycleaners4.jpg,drymountains.jpg,dugout1.jpg,clothingstore3.jpg,,
Image_List_2,,,,,,,,,,,,,,,,44548,2020-11-17_14h51.13.687,lingCatScenes,2020.1.3,MacIntel,60,"[1440,900]",,,"[""trial_ahead_box""]",,,,,,,,,,,,ruralroad5.jpg,space,0.674605,[-0.0020833333333333333],[-0.2795095486111111],[1],[0],[0],[0.4113350000116043],"[""trial_ahead_box""]",0,11,11,81,1,promenadeDeck.jpg,promenadeDeck2.jpg,rainforest5.jpg,pasture8.jpg,,
Image_List_2,,,,,,,,,,,,,,,,44548,2020-11-17_14h51.13.687,lingCatScenes,2020.1.3,MacIntel,60,"[1440,900]",,,"[""trial_ahead_box""]",,,,,,,,,,,,stripmall.jpg,space,0.543365,[-0.0020833333333333333],[-0.2795095486111111],[1],[0],[0],[0.24515999999130145],"[""trial_ahead_box""]",0,12,12,86,1,restaurant14.jpg,ruralroad3.jpg,sandDunes_desert_outdoor8.jpg,rooftop4.jpg,,
Image_List_2,,,,,,,,,,,,,,,,44548,2020-11-17_14h51.13.687,lingCatScenes,2020.1.3,MacIntel,60,"[1440,900]",,,"[""trial_ahead_box""]",,,,,,,,,,,,bar2.jpg,space,0.52937,[-0.0020833333333333333],[-0.2795095486111111],[1],[0],[0],[0.2614400000020396],"[""trial_ahead_box""]",0,13,13,9,1,auto_showroom3.jpg,ballroom2.jpg,basement5.jpg,arcade2.jpg,,
Image_List_2,,,,,,,,,,,,,,,,44548,2020-11-17_14h51.13.687,lingCatScenes,2020.1.3,MacIntel,60,"[1440,900]",,,"[""trial_ahead_box""]",,,,,,,,,,,,wineVineyard2.jpg,space,0.562025,[-0.0020833333333333333],[-0.2795095486111111],[1],[0],[0],[0.295574999996461],"[""trial_ahead_box""]",0,14,14,97,1,warehouseoutside4.jpg,waitingroom4.jpg,winebarrel3.jpg,warehouseoutside3.jpg,,
Image_List_2,,,,,,,,,,,,,,,,44548,2020-11-17_14h51.13.687,lingCatScenes,2020.1.3,MacIntel,60,"[1440,900]",,,"[""trial_ahead_box""]",,,,,,,,,,,,sidewalk5.jpg,space,0.5076,[-0.0020833333333333333],[-0.2795095486111111],[1],[0],[0],[0.2431849999993574],"[""trial_ahead_box""]",0,15,15,85,1,recordingstudio4.jpg,ruralroad2.jpg,sandDunes_desert_outdoor3.jpg,rooftop3.jpg,,
Image_List_2,,,,,,,,,,,,,,,,44548,2020-11-17_14h51.13.687,lingCatScenes,2020.1.3,MacIntel,60,"[1440,900]",,,"[""trial_ahead_box""]",,,,,,,,,,,,driveway4.jpg,space,0.54627,[-0.0020833333333333333],[-0.2795095486111111],[1],[0],[0],[0.24285500001860783],"[""trial_ahead_box""]",0,16,16,37,1,dining_car.jpg,dinosaur4.jpg,driveway7.jpg,citystreet9.jpg,,
Image_List_2,,,,,,,,,,,,,,,,44548,2020-11-17_14h51.13.687,lingCatScenes,2020.1.3,MacIntel,60,"[1440,900]",,,"[""trial_ahead_box""]",,,,,,,,,,,,breakroom5.jpg,space,0.583625,[-0.0020833333333333333],[-0.2795095486111111],[1],[0],[0],[0.19404000000213273],"[""trial_ahead_box""]",0,17,17,14,1,ballroom1.jpg,bistrooutdoor5.jpg,botanicalGarden5.jpg,ballroom3.jpg,,
Image_List_2,,,,,,,,,,,,,,,,44548,2020-11-17_14h51.13.687,lingCatScenes,2020.1.3,MacIntel,60,"[1440,900]",,,"[""trial_ahead_box""]",,,,,,,,,,,,sculpturegarden1.jpg,space,0.509595,[-0.0020833333333333333],[-0.2795095486111111],[1],[0],[0],[0.24382499998318963],"[""trial_ahead_box""]",0,18,18,83,1,readingroom1.jpg,promenadeDeck6.jpg,restaurant8.jpg,readingroom2.jpg,,
Image_List_2,,,,,,,,,,,,,,,,44548,2020-11-17_14h51.13.687,lingCatScenes,2020.1.3,MacIntel,60,"[1440,900]",,,"[""trial_ahead_box""]",,,,,,,,,,,,trainStation1.jpg,space,0.5133,[-0.0020833333333333333],[-0.2795095486111111],[1],[0],[0],[0.26178500000969507],"[""trial_ahead_box""]",0,19,19,90,1,savanna5.jpg,sidewalk1.jpg,stripmall3.jpg,shoestore4.jpg,,
Image_List_2,,,,,,,,,,,,,,,,44548,2020-11-17_14h51.13.687,lingCatScenes,2020.1.3,MacIntel,60,"[1440,900]",,,"[""trial_ahead_box""]",,,,,,,,,,,,trainStation5.jpg,space,0.494755,[-0.0020833333333333333],[-0.2795095486111111],[1],[0],[0],[0.2626250000030268],"[""trial_ahead_box""]",0,20,20,91,1,shoestore2.jpg,skatepark5.jpg,ticket_counter6.jpg,sidewalk3.jpg,,
Image_List_2,,,,,,,,,,,,,,,,44548,2020-11-17_14h51.13.687,lingCatScenes,2020.1.3,MacIntel,60,"[1440,900]",,,"[""trial_ahead_box""]",,,,,,,,,,,,firestation3.jpg,space,0.47881,[-0.0020833333333333333],[-0.2795095486111111],[1],[0],[0],[0.2255449999938719],"[""trial_ahead_box""]",0,21,21,42,1,exerciseequipment3.jpg,drymountains6.jpg,farm4.jpg,desertvegetation2.jpg,,
Image_List_2,,,,,,,,,,,,,,,,44548,2020-11-17_14h51.13.687,lingCatScenes,2020.1.3,MacIntel,60,"[1440,900]",,,"[""trial_ahead_box""]",,,,,,,,,,,,grocerystore6.jpg,space,0.53172,[-0.0020833333333333333],[-0.2795095486111111],[1],[0],[0],[0.2778499999840278],"[""trial_ahead_box""]",0,22,22,50,1,frontLawn4.jpg,forestpath6.jpg,hallway2.jpg,fireplace4.jpg,,
Image_List_2,,,,,,,,,,,,,,,,44548,2020-11-17_14h51.13.687,lingCatScenes,2020.1.3,MacIntel,60,"[1440,900]",,,"[""trial_ahead_box""]",,,,,,,,,,,,cafeteria5.jpg,space,0.709875,[-0.0020833333333333333],[-0.2795095486111111],[1],[0],[0],[0.22591000000829808],"[""trial_ahead_box""]",0,23,23,15,1,bambooforest4.jpg,bleachers8.jpg,cabinIndoors.jpg,bar8.jpg,,
Image_List_2,,,,,,,,,,,,,,,,44548,2020-11-17_14h51.13.687,lingCatScenes,2020.1.3,MacIntel,60,"[1440,900]",,,"[""trial_ahead_box""]",,,,,,,,,,,,banquetHall4.jpg,space,0.516505,[-0.0020833333333333333],[-0.2795095486111111],[1],[0],[0],[0.19356499999412335],"[""trial_ahead_box""]",0,24,24,7,1,attic2.jpg,backstage1.jpg,baggageClaim3.jpg,applestore2.jpg,,
Image_List_2,,,,,,,,,,,,,,,,44548,2020-11-17_14h51.13.687,lingCatScenes,2020.1.3,MacIntel,60,"[1440,900]",,,"[""trial_ahead_box""]",,,,,,,,,,,,cliff3.jpg,space,0.558695,[-0.0020833333333333333],[-0.2795095486111111],[1],[0],[0],[0.3104049999965355],"[""trial_ahead_box""]",0,25,25,24,1,campsite.jpg,cave6.jpg,cemetery5.jpg,boardwalk.jpg,,
Image_List_2,,,,,,,,,,,,,,,,44548,2020-11-17_14h51.13.687,lingCatScenes,2020.1.3,MacIntel,60,"[1440,900]",,,"[""trial_ahead_box""]",,,,,,,,,,,,eyeglassstore9.jpg,space,0.57632,[-0.0020833333333333333],[-0.2795095486111111],[1],[0],[0],[0.27723500001593493],"[""trial_ahead_box""]",0,26,26,39,1,driveway6.jpg,drycleaners6.jpg,drymountains5.jpg,cliff5.jpg,,
Image_List_2,,,,,,,,,,,,,,,,44548,2020-11-17_14h51.13.687,lingCatScenes,2020.1.3,MacIntel,60,"[1440,900]",,,"[""trial_ahead_box""]",,,,,,,,,,,,track.jpg,space,0.6436,[-0.0020833333333333333],[-0.2795095486111111],[1],[0],[0],[0.26046999997925013],"[""trial_ahead_box""]",0,27,27,88,1,rooftop1.jpg,sculpturegarden4.jpg,soccerfield.jpg,sandbox.jpg,,
Image_List_2,,,,,,,,,,,,,,,,44548,2020-11-17_14h51.13.687,lingCatScenes,2020.1.3,MacIntel,60,"[1440,900]",,,"[""trial_ahead_box""]",,,,,,,,,,,,track5.jpg,space,0.642985,[-0.0020833333333333333],[-0.2795095486111111],[1],[0],[0],[0.3434899999992922],"[""trial_ahead_box""]",0,28,28,89,1,ruralroad7.jpg,ShowJumping7.jpg,staircase7.jpg,sculpturegarden3.jpg,,
Image_List_2,,,,,,,,,,,,,,,,44548,2020-11-17_14h51.13.687,lingCatScenes,2020.1.3,MacIntel,60,"[1440,900]",,,"[""trial_ahead_box""]",,,,,,,,,,,,poolhall2.jpeg,space,0.651525,[-0.0020833333333333333],[-0.2795095486111111],[1],[0],[0],[0.41113000002224],"[""trial_ahead_box""]",0,29,29,79,1,pasture.jpg,playground9.jpg,pier2.jpg,observatory2.jpg,,
Image_List_2,,,,,,,,,,,,,,,,44548,2020-11-17_14h51.13.687,lingCatScenes,2020.1.3,MacIntel,60,"[1440,900]",,,"[""trial_ahead_box""]",,,,,,,,,,,,pavilion5.jpg,space,0.50912,[-0.0020833333333333333],[-0.2795095486111111],[1],[0],[0],[0.27803499999572523],"[""trial_ahead_box""]",0,30,30,71,1,metroInside2.jpg,metroInside3.jpg,museum3.jpg,jewelrystore.jpg,,
Image_List_2,,,,,,,,,,,,,,,,44548,2020-11-17_14h51.13.687,lingCatScenes,2020.1.3,MacIntel,60,"[1440,900]",,,"[""trial_ahead_box""]",,,,,,,,,,,,warehouse2.jpg,space,0.51193,[-0.0020833333333333333],[-0.2795095486111111],[1],[0],[0],[0.26032000000122935],"[""trial_ahead_box""]",0,31,31,95,1,waitingroom2.jpg,stripmall6.jpg,weightroom4.jpg,tvstudio3.jpg,,
Image_List_2,,,,,,,,,,,,,,,,44548,2020-11-17_14h51.13.687,lingCatScenes,2020.1.3,MacIntel,60,"[1440,900]",,,"[""trial_ahead_box""]",,,,,,,,,,,,courtroom3.jpg,space,0.542725,[-0.0020833333333333333],[-0.2795095486111111],[1],[0],[0],[0.2774199999985285],"[""trial_ahead_box""]",0,32,32,27,1,castle3.jpg,churchInside4.jpg,closet.jpg,brewery2.jpg,,
Image_List_2,,,,,,,,,,,,,,,,44548,2020-11-17_14h51.13.687,lingCatScenes,2020.1.3,MacIntel,60,"[1440,900]",,,"[""trial_ahead_box""]",,,,,,,,,,,,apartmentBuilding1.jpg,space,0.542725,[-0.0020833333333333333],[-0.2795095486111111],[1],[0],[0],[0.2938500000163913],"[""trial_ahead_box""]",0,33,33,1,1,airportTerminal4.jpg,applestore1.jpg,airportTerminal3.jpg,airportTerminal2.jpg,,
Image_List_2,,,,,,,,,,,,,,,,44548,2020-11-17_14h51.13.687,lingCatScenes,2020.1.3,MacIntel,60,"[1440,900]",,,"[""trial_ahead_box""]",,,,,,,,,,,,bambooforest.jpg,space,0.71059,[-0.0020833333333333333],[-0.2795095486111111],[1],[0],[0],[0.4281550000014249],"[""trial_ahead_box""]",0,34,34,5,1,artStudio3.jpg,auto_showroom4.jpg,attic4.jpg,amusement3.jpg,,
Image_List_2,,,,,,,,,,,,,,,,44548,2020-11-17_14h51.13.687,lingCatScenes,2020.1.3,MacIntel,60,"[1440,900]",,,"[""trial_ahead_box""]",,,,,,,,,,,,cafeteria6.jpg,space,0.51037,[-0.0020833333333333333],[-0.2795095486111111],[1],[0],[0],[0.277025000017602],"[""trial_ahead_box""]",0,35,35,16,1,basement.jpg,breakroom2.jpg,campusquad4.jpg,barbershop2.jpg,,
Image_List_2,,,,,,,,,,,,,,,,44548,2020-11-17_14h51.13.687,lingCatScenes,2020.1.3,MacIntel,60,"[1440,900]",,,"[""trial_ahead_box""]",,,,,,,,,,,,sandDunes_desert_outdoor9.jpg,space,0.584565,[-0.0020833333333333333],[-0.2795095486111111],[1],[0],[0],[0.32880499999737367],"[""trial_ahead_box""]",0,36,36,82,1,publicrestroom2.jpg,promenadeDeck3.jpg,readingroom4.jpg,postoffice4.jpg,,
Image_List_2,,,,,,,,,,,,,,,,44548,2020-11-17_14h51.13.687,lingCatScenes,2020.1.3,MacIntel,60,"[1440,900]",,,"[""trial_ahead_box""]",,,,,,,,,,,,barbershop3.jpg,space,0.60375,[-0.0020833333333333333],[-0.2795095486111111],[1],[0],[0],[0.3143900000141002],"[""trial_ahead_box""]",0,37,37,10,1,backstage2.jpg,ballroom4.jpg,basketballcourt3.jpg,ATM4.jpg,,
Image_List_2,,,,,,,,,,,,,,,,44548,2020-11-17_14h51.13.687,lingCatScenes,2020.1.3,MacIntel,60,"[1440,900]",,,"[""trial_ahead_box""]",,,,,,,,,,,,volleyballcourt4.jpg,space,0.53073,[-0.0020833333333333333],[-0.2795095486111111],[1],[0],[0],[0.24386999997659586],"[""trial_ahead_box""]",0,38,38,93,1,tollbooth8.jpg,staircase4.jpg,warehouseoutside2.jpg,tenniscourt.jpg,,
Image_List_2,,,,,,,,,,,,,,,,44548,2020-11-17_14h51.13.687,lingCatScenes,2020.1.3,MacIntel,60,"[1440,900]",,,"[""trial_ahead_box""]",,,,,,,,,,,,golfcourse6.jpg,space,0.516645,[-0.0031944444444444446],[-0.2795095486111111],[1],[0],[0],[0.27663000000757165],"[""trial_ahead_box""]",0,39,39,48,1,frontDoor2.jpg,fittingroom5.jpg,golfcourse7.jpg,fabricstore2.jpg,,
Image_List_2,,,,,,,,,,,,,,,,44548,2020-11-17_14h51.13.687,lingCatScenes,2020.1.3,MacIntel,60,"[1440,900]",,,"[""trial_ahead_box""]",,,,,,,,,,,,playground6.jpg,space,0.52966,[-0.0043055555555555555],[-0.2795095486111111],[1],[0],[0],[0.2949099999968894],"[""trial_ahead_box""]",0,40,40,75,1,pantry5.jpg,operatingroom4.jpg,park.jpg,lockerroom.jpg,,
Image_List_2,,,,,,,,,,,,,,,,44548,2020-11-17_14h51.13.687,lingCatScenes,2020.1.3,MacIntel,60,"[1440,900]",,,"[""trial_ahead_box""]",,,,,,,,,,,,playroom6.jpg,space,0.56196,[-0.0043055555555555555],[-0.2795095486111111],[1],[0],[0],[0.310429999983171],"[""trial_ahead_box""]",0,41,41,77,1,parkinggarage2.jpg,pasture9.jpg,park8.jpg,mallindoor6.jpg,,
Image_List_2,,,,,,,,,,,,,,,,44548,2020-11-17_14h51.13.687,lingCatScenes,2020.1.3,MacIntel,60,"[1440,900]",,,"[""trial_ahead_box""]",,,,,,,,,,,,desertvegetation3.jpg,space,0.52013,[-0.0043055555555555555],[-0.2795095486111111],[1],[0],[0],[0.2609649999940302],"[""trial_ahead_box""]",0,42,42,30,1,courthouse1.jpg,clothingstore2.jpg,copyroom2.jpg,bus_shelter3.jpg,,
Image_List_2,,,,,,,,,,,,,,,,44548,2020-11-17_14h51.13.687,lingCatScenes,2020.1.3,MacIntel,60,"[1440,900]",,,"[""trial_ahead_box""]",,,,,,,,,,,,greenhouse5.jpg,space,0.542495,[-0.0043055555555555555],[-0.2795095486111111],[1],[0],[0],[0.295285000000149],"[""trial_ahead_box""]",0,43,43,49,1,frontDoor3.jpg,flowershop3.jpg,greenhouse.jpg,farm2.jpg,,
Image_List_2,,,,,,,,,,,,,,,,44548,2020-11-17_14h51.13.687,lingCatScenes,2020.1.3,MacIntel,60,"[1440,900]",,,"[""trial_ahead_box""]",,,,,,,,,,,,metroInside4.jpg,space,0.530475,[-0.0043055555555555555],[-0.2795095486111111],[1],[0],[0],[0.29225500000757165],"[""trial_ahead_box""]",0,44,44,61,1,HorseRaceTrack.jpg,homegarden6.jpg,kindergarten_classroom7.jpg,hayfield6.jpg,,
Image_List_2,,,,,,,,,,,,,,,,44548,2020-11-17_14h51.13.687,lingCatScenes,2020.1.3,MacIntel,60,"[1440,900]",,,"[""trial_ahead_box""]",,,,,,,,,,,,casino1.jpg,space,0.41059,[-0.0043055555555555555],[-0.2795095486111111],[1],[0],[0],[0.24660499999299645],"[""trial_ahead_box""]",0,45,45,18,1,bleachers5.jpg,brewery4.jpg,castle2.jpg,basement6.jpg,,
Image_List_2,,,,,,,,,,,,,,,,44548,2020-11-17_14h51.13.687,lingCatScenes,2020.1.3,MacIntel,60,"[1440,900]",,,"[""trial_ahead_box""]",,,,,,,,,,,,cemetery6.jpg,space,0.36272,[-0.0043055555555555555],[-0.2795095486111111],[1],[0],[0],[0.19470500000170432],"[""trial_ahead_box""]",0,46,46,21,1,botanicalGarden6.jpg,campusquad3.jpg,cave5.jpg,beach1.jpeg,,
Image_List_2,,,,,,,,,,,,,,,,44548,2020-11-17_14h51.13.687,lingCatScenes,2020.1.3,MacIntel,60,"[1440,900]",,,"[""trial_ahead_box""]",,,,,,,,,,,,hardwarestore1.jpg,space,0.34875,[-0.0043055555555555555],[-0.2795095486111111],[1],[0],[0],[0.2116999999852851],"[""trial_ahead_box""]",0,47,47,52,1,gasstation7.jpg,frontFoyer6.jpg,highway.jpg,forestpath2.jpg,,
Image_List_2,,,,,,,,,,,,,,,,44548,2020-11-17_14h51.13.687,lingCatScenes,2020.1.3,MacIntel,60,"[1440,900]",,,[],,,,,,,,,,,,theater2.jpg,space,0.777345,[],[],[],[],[],[],[],0,48,48,87,1,restaurantkitchen2.jpg,savanna.jpg,sculpturegarden2.jpg,RVinside2.jpg,,
Image_List_2,,,,,,,,,,,,,,,,44548,2020-11-17_14h51.13.687,lingCatScenes,2020.1.3,MacIntel,60,"[1440,900]",,,[],,,,,,,,,,,,gasstation8.jpg,space,0.2921,[],[],[],[],[],[],[],0,49,49,47,1,frontDoor.jpg,firestation4.jpg,fountain7.jpg,elevatorOutside2.jpg,,
Image_List_2,,,,,,,,,,,,,,,,44548,2020-11-17_14h51.13.687,lingCatScenes,2020.1.3,MacIntel,60,"[1440,900]",,,[],,,,,,,,,,,,parkinglot.jpg,space,0.232155,[],[],[],[],[],[],[],0,50,50,68,1,liquorstore7.jpg,lightingstore4.jpg,lockerroom2.jpg,hospitalroom3.jpg,,
Image_List_2,,,,,,,,,,,,,,,,44548,2020-11-17_14h51.13.687,lingCatScenes,2020.1.3,MacIntel,60,"[1440,900]",,,[],,,,,,,,,,,,lab1.jpg,space,0.17781,[],[],[],[],[],[],[],0,51,51,58,1,highway7.jpg,hedgemaze1.jpg,igloo4.jpg,grocerystore2.jpg,,
Image_List_2,,,,,,,,,,,,,,,,44548,2020-11-17_14h51.13.687,lingCatScenes,2020.1.3,MacIntel,60,"[1440,900]",,,[],,,,,,,,,,,,arcade1.jpg,space,0.159245,[],[],[],[],[],[],[],0,52,52,2,1,alley1.jpg,applestore6.jpg,apartmentBuilding4.jpg,airportTerminal6.jpg,,
Image_List_2,,,,,,,,,,,,,,,,44548,2020-11-17_14h51.13.687,lingCatScenes,2020.1.3,MacIntel,60,"[1440,900]",,,[],,,,,,,,,,,,dancestudio5.jpg,space,0.248335,[],[],[],[],[],[],[],0,53,53,28,1,churchInside1.jpg,citystreet10.jpg,clothingstore5.jpg,bridalboutique2.jpg,,
Image_List_2,,,,,,,,,,,,,,,,44548,2020-11-17_14h51.13.687,lingCatScenes,2020.1.3,MacIntel,60,"[1440,900]",,,[],,,,,,,,,,,,desertvegetation6.jpg,space,0.162135,[],[],[],[],[],[],[],0,54,54,31,1,cubicle4.jpg,conference4.jpg,courtroom2.jpg,cabin3.jpg,,
Image_List_2,,,,,,,,,,,,,,,,44548,2020-11-17_14h51.13.687,lingCatScenes,2020.1.3,MacIntel,60,"[1440,900]",,,[],,,,,,,,,,,,newsstand5.jpg,space,0.17433,[],[],[],[],[],[],[],0,55,55,64,1,igloo2.jpg,jewelrystore8.jpg,lab5.jpg,homegarage2.jpg,,
Image_List_2,,,,,,,,,,,,,,,,44548,2020-11-17_14h51.13.687,lingCatScenes,2020.1.3,MacIntel,60,"[1440,900]",,,[],,,,,,,,,,,,bedroom6.jpg,space,0.14553,[],[],[],[],[],[],[],0,56,56,12,1,baggageClaim4.jpg,bambooforest5.jpg,bleachers7.jpg,backyard5.jpg,,
Image_List_2,,,,,,,,,,,,,,,,44548,2020-11-17_14h51.13.687,lingCatScenes,2020.1.3,MacIntel,60,"[1440,900]",,,[],,,,,,,,,,,,cave.jpg,space,0.15991,[],[],[],[],[],[],[],0,57,57,20,1,boardwalk6.jpg,campsite3.jpg,cave4.jpg,basketballcourt7.jpg,,
Image_List_2,,,,,,,,,,,,,,,,44548,2020-11-17_14h51.13.687,lingCatScenes,2020.1.3,MacIntel,60,"[1440,900]",,,[],,,,,,,,,,,,forestpath10.jpg,space,0.142705,[],[],[],[],[],[],[],0,58,58,43,1,exerciseequipment5.jpg,dugout2.jpg,foodcourt.jpg,diningroom3.jpg,,
Image_List_2,,,,,,,,,,,,,,,,44548,2020-11-17_14h51.13.687,lingCatScenes,2020.1.3,MacIntel,60,"[1440,900]",,,[],,,,,,,,,,,,basketballcourt4.jpg,space,0.17654,[],[],[],[],[],[],[],0,59,59,11,1,backyard2.jpg,bambooforest3.jpg,baywindow5.jpg,backyard1.jpg,,
Image_List_2,,,,,,,,,,,,,,,,44548,2020-11-17_14h51.13.687,lingCatScenes,2020.1.3,MacIntel,60,"[1440,900]",,,[],,,,,,,,,,,,cornfield4.jpg,space,0.11216,[],[],[],[],[],[],[],0,60,60,26,1,campusquad2.jpg,church4.jpg,churchInside3.jpg,botanicalGarden7.jpg,,
Image_List_2,,,,,,,,,,,,,,,,44548,2020-11-17_14h51.13.687,lingCatScenes,2020.1.3,MacIntel,60,"[1440,900]",,,[],,,,,,,,,,,,museum6.jpg,space,0.278865,[],[],[],[],[],[],[],0,61,61,63,1,hut2.jpg,hotelRoom2.jpg,lab4.jpg,highway2.jpg,,
Image_List_2,,,,,,,,,,,,,,,,44548,2020-11-17_14h51.13.687,lingCatScenes,2020.1.3,MacIntel,60,"[1440,900]",,,[],,,,,,,,,,,,hotelRoom3.jpg,space,0.174795,[],[],[],[],[],[],[],0,62,62,55,1,greenmountains.jpg,gazebo5.jpg,hotelRoom7.jpg,frontLawn2.jpg,,
Image_List_2,,,,,,,,,,,,,,,,44548,2020-11-17_14h51.13.687,lingCatScenes,2020.1.3,MacIntel,60,"[1440,900]",,,[],,,,,,,,,,,,photographer_studio2.jpg,space,0.16349,[],[],[],[],[],[],[],0,63,63,73,1,musicStore3.jpg,nursery.jpg,nursery4.jpg,library_aisle9.jpg,,
Image_List_2,,,,,,,,,,,,,,,,44548,2020-11-17_14h51.13.687,lingCatScenes,2020.1.3,MacIntel,60,"[1440,900]",,,[],,,,,,,,,,,,farm3.jpg,space,0.177505,[],[],[],[],[],[],[],0,64,64,41,1,dugout4.jpg,drymountains3.jpg,fabricstore1.jpg,dentist2.jpg,,
Image_List_2,,,,,,,,,,,,,,,,44548,2020-11-17_14h51.13.687,lingCatScenes,2020.1.3,MacIntel,60,"[1440,900]",,,[],,,,,,,,,,,,pharmacy4.jpg,space,0.175275,[],[],[],[],[],[],[],0,65,65,72,1,museum5.jpg,musicStore1.jpg,museum4.jpg,kindergarten_classroom.jpg,,
Image_List_2,,,,,,,,,,,,,,,,44548,2020-11-17_14h51.13.687,lingCatScenes,2020.1.3,MacIntel,60,"[1440,900]",,,"[""trial_ahead_box"",""trial_slight_left_box""]",,,,,,,,,,,,attic1.jpg,space,2.004185,"[-0.0043055555555555555,-0.1899392361111111]","[-0.2795095486111111,-0.3041189236111111]","[1,1]","[0,0]","[0,0]","[1.1474699999962468,1.881454999995185]","[""trial_ahead_box"",""trial_slight_left_box""]",0,66,66,3,1,apartmentBuilding2.jpg,aquarium1.jpg,appleorchard2.jpg,alley3.jpg,,
Image_List_2,,,,,,,,,,,,,,,,44548,2020-11-17_14h51.13.687,lingCatScenes,2020.1.3,MacIntel,60,"[1440,900]",,,"[""trial_slight_left_box""]",,,,,,,,,,,,jail1.jpg,space,0.593175,[-0.1899392361111111],[-0.3041189236111111],[1],[0],[0],[0.41214999998919666],"[""trial_slight_left_box""]",0,67,67,57,1,hayfield5.jpg,hallway4.jpg,hut5.jpg,gazebo.jpg,,
Image_List_2,,,,,,,,,,,,,,,,44548,2020-11-17_14h51.13.687,lingCatScenes,2020.1.3,MacIntel,60,"[1440,900]",,,"[""trial_ahead_box""]",,,,,,,,,,,,deck2.jpg,space,0.69531,[-0.0066796875],[-0.2979296875],[1],[0],[0],[0.5617749999801163],"[""trial_ahead_box""]",0,68,68,29,1,cornfield2.jpg,cliff2.jpg,constructionSite4.jpg,bridalboutique3.jpg,,
Image_List_2,,,,,,,,,,,,,,,,44548,2020-11-17_14h51.13.687,lingCatScenes,2020.1.3,MacIntel,60,"[1440,900]",,,"[""trial_ahead_box""]",,,,,,,,,,,,lightingstore3.jpg,space,0.676455,[-0.0066796875],[-0.2979296875],[1],[0],[0],[0.3109600000025239],"[""trial_ahead_box""]",0,69,69,60,1,hometheater2.jpg,homegarage.jpg,kindergarten_classroom6.jpg,hallway.jpg,,
Image_List_2,,,,,,,,,,,,,,,,44548,2020-11-17_14h51.13.687,lingCatScenes,2020.1.3,MacIntel,60,"[1440,900]",,,"[""trial_ahead_box""]",,,,,,,,,,,,horsebarn11.jpg,space,0.660655,[-0.0066796875],[-0.2979296875],[1],[0],[0],[0.3624250000284519],"[""trial_ahead_box""]",0,70,70,54,1,greenhouse2.jpg,gazebo2.jpg,homegarage4.jpg,frontFoyer.jpg,,
Image_List_2,,,,,,,,,,,,,,,,44548,2020-11-17_14h51.13.687,lingCatScenes,2020.1.3,MacIntel,60,"[1440,900]",,,"[""trial_ahead_box""]",,,,,,,,,,,,bowlingalley3.jpg,space,0.86203,[-0.0066796875],[-0.2979296875],[1],[0],[0],[0.3457450000278186],"[""trial_ahead_box""]",0,71,71,13,1,balconyIN2.jpg,beach2.jpg,boardwalk4.jpg,backyard6.jpg,,
Image_List_2,,,,,,,,,,,,,,,,44548,2020-11-17_14h51.13.687,lingCatScenes,2020.1.3,MacIntel,60,"[1440,900]",,,"[""trial_ahead_box""]",,,,,,,,,,,,library_aisle8.jpg,space,0.66178,[-0.0066796875],[-0.2979296875],[1],[0],[0],[0.37743500000215136],"[""trial_ahead_box""]",0,72,72,59,1,homegarden7.jpg,highway4.jpg,kindergarten_classroom5.jpg,grocerystore3.jpg,,
Image_List_2,,,,,,,,,,,,,,,,44548,2020-11-17_14h51.13.687,lingCatScenes,2020.1.3,MacIntel,60,"[1440,900]",,,"[""trial_ahead_box""]",,,,,,,,,,,,frontFoyer7.jpg,space,0.612465,[-0.0066796875],[-0.2979296875],[1],[0],[0],[0.34483499999623746],"[""trial_ahead_box""]",0,73,73,45,1,fittingroom2.jpg,factory1.jpg,forestpath4.jpg,dock4.jpg,,
Image_List_2,,,,,,,,,,,,,,,,44548,2020-11-17_14h51.13.687,lingCatScenes,2020.1.3,MacIntel,60,"[1440,900]",,,"[""trial_ahead_box""]",,,,,,,,,,,,yogastudio4.jpg,space,0.594385,[-0.0066796875],[-0.2979296875],[1],[0],[0],[0.32979500002693385],"[""trial_ahead_box""]",0,74,74,99,1,wineVineyard9.jpg,windmill2.jpg,wrestlingring7.jpg,yogastudio1.jpg,,
Image_List_2,,,,,,,,,,,,,,,,44548,2020-11-17_14h51.13.687,lingCatScenes,2020.1.3,MacIntel,60,"[1440,900]",,,"[""trial_ahead_box""]",,,,,,,,,,,,baggageClaim2.jpg,space,0.642935,[-0.0066796875],[-0.2979296875],[1],[0],[0],[0.3287750000017695],"[""trial_ahead_box""]",0,75,75,4,1,artStudio1.jpg,auto_showroom1.jpg,appleorchard3.jpg,alley4.jpg,,
Image_List_2,,,,,,,,,,,,,,,,44548,2020-11-17_14h51.13.687,lingCatScenes,2020.1.3,MacIntel,60,"[1440,900]",,,"[""trial_ahead_box""]",,,,,,,,,,,,frontFoyer4.jpg,space,0.61965,[-0.0066796875],[-0.2979296875],[1],[0],[0],[0.312869999994291],"[""trial_ahead_box""]",0,76,76,44,1,firestation2.jpg,elevatorOutside1.jpg,foodcourt6.jpg,dock2.jpg,,
Image_List_2,,,,,,,,,,,,,,,,44548,2020-11-17_14h51.13.687,lingCatScenes,2020.1.3,MacIntel,60,"[1440,900]",,,"[""trial_ahead_box""]",,,,,,,,,,,,church8.jpg,space,0.70116,[-0.0055685763888888885],[-0.2979296875],[1],[0],[0],[0.3947550000157207],"[""trial_ahead_box""]",0,77,77,23,1,bus_shelter.jpg,carmechanic4.jpeg,cemetery3.jpg,bleachers6.jpg,,
Image_List_2,,,,,,,,,,,,,,,,44548,2020-11-17_14h51.13.687,lingCatScenes,2020.1.3,MacIntel,60,"[1440,900]",,,"[""trial_ahead_box""]",,,,,,,,,,,,banquetHall2.jpg,space,0.58398,[-0.0055685763888888885],[-0.2979296875],[1],[0],[0],[0.31098999999812804],"[""trial_ahead_box""]",0,78,78,6,1,ATM1.jpg,auto_showroom5.jpg,baggageClaim1.jpg,apartmentBuilding3.jpg,,
Image_List_2,,,,,,,,,,,,,,,,44548,2020-11-17_14h51.13.687,lingCatScenes,2020.1.3,MacIntel,60,"[1440,900]",,,"[""trial_ahead_box""]",,,,,,,,,,,,newsstand7.jpg,space,0.597745,[-0.0055685763888888885],[-0.2979296875],[1],[0],[0],[0.31163500002003275],"[""trial_ahead_box""]",0,79,79,65,1,igloo5.jpg,laundromat2.jpeg,labClass7.jpg,homeoffice8.jpg,,
Image_List_2,,,,,,,,,,,,,,,,44548,2020-11-17_14h51.13.687,lingCatScenes,2020.1.3,MacIntel,60,"[1440,900]",,,"[""trial_ahead_box""]",,,,,,,,,,,,alley2.jpg,space,0.56037,[-0.0055685763888888885],[-0.2979296875],[1],[0],[0],[0.2788849999778904],"[""trial_ahead_box""]",0,80,80,0,1,airplanecabin1.jpg,appleorchard4.jpg,airplanecabin5.jpg,airplanecabin3.jpg,,
Image_List_2,,,,,,,,,,,,,,,,44548,2020-11-17_14h51.13.687,lingCatScenes,2020.1.3,MacIntel,60,"[1440,900]",,,"[""trial_ahead_box""]",,,,,,,,,,,,pavilion.jpg,space,0.58003,[-0.0055685763888888885],[-0.2979296875],[1],[0],[0],[0.29375000001164153],"[""trial_ahead_box""]",0,81,81,70,1,lockerroom4.jpg,lockerroom3.jpg,minigolf8.jpg,igloo.jpg,,
Image_List_2,,,,,,,,,,,,,,,,44548,2020-11-17_14h51.13.687,lingCatScenes,2020.1.3,MacIntel,60,"[1440,900]",,,"[""trial_ahead_box""]",,,,,,,,,,,,diningroom1.jpg,space,0.610485,[-0.0055685763888888885],[-0.2979296875],[1],[0],[0],[0.32839000000967644],"[""trial_ahead_box""]",0,82,82,33,1,deck1.jpg,courthouse2.jpg,diner10.jpg,cabinIndoors5.jpg,,
Image_List_2,,,,,,,,,,,,,,,,44548,2020-11-17_14h51.13.687,lingCatScenes,2020.1.3,MacIntel,60,"[1440,900]",,,"[""trial_ahead_box""]",,,,,,,,,,,,casino3.jpg,space,0.76364,[-0.0055685763888888885],[-0.2979296875],[1],[0],[0],[0.4289850000059232],"[""trial_ahead_box""]",0,83,83,19,1,boardwalk2.jpg,cafeteria1.jpg,castle4.jpg,basketballcourt.jpg,,
Image_List_2,,,,,,,,,,,,,,,,44548,2020-11-17_14h51.13.687,lingCatScenes,2020.1.3,MacIntel,60,"[1440,900]",,,"[""trial_ahead_box""]",,,,,,,,,,,,wineVineyard8.jpg,space,0.649895,[-0.0055685763888888885],[-0.2979296875],[1],[0],[0],[0.394029999995837],"[""trial_ahead_box""]",0,84,84,98,1,weightroom5.jpg,warehouse3.jpg,winebarrel4.jpg,winebarrel2.jpg,,
Image_List_2,,,,,,,,,,,,,,,,44548,2020-11-17_14h51.13.687,lingCatScenes,2020.1.3,MacIntel,60,"[1440,900]",,,"[""trial_ahead_box""]",,,,,,,,,,,,volleyballcourt.jpg,space,0.627075,[-0.0055685763888888885],[-0.2979296875],[1],[0],[0],[0.3457100000232458],"[""trial_ahead_box""]",0,85,85,92,1,staircase.jpg,skatepark7.jpg,tvstudio2.jpg,soccerfield2.jpg,,
Image_List_2,,,,,,,,,,,,,,,,44548,2020-11-17_14h51.13.687,lingCatScenes,2020.1.3,MacIntel,60,"[1440,900]",,,"[""trial_ahead_box""]",,,,,,,,,,,,banquetHall6.jpg,space,0.616495,[-0.0055685763888888885],[-0.2979296875],[1],[0],[0],[0.3288999999931548],"[""trial_ahead_box""]",0,86,86,8,1,attic3.jpg,balconyIN.jpg,bar.jpg,applestore4.jpg,,
Image_List_2,,,,,,,,,,,,,,,,44548,2020-11-17_14h51.13.687,lingCatScenes,2020.1.3,MacIntel,60,"[1440,900]",,,"[""trial_ahead_box""]",,,,,,,,,,,,diningroom5.jpg,space,0.610595,[-0.0055685763888888885],[-0.2979296875],[1],[0],[0],[0.3473099999828264],"[""trial_ahead_box""]",0,87,87,34,1,deck4.jpg,courthouse4.jpg,diner11.jpg,campusquad1.jpg,,
Image_List_2,,,,,,,,,,,,,,,,44548,2020-11-17_14h51.13.687,lingCatScenes,2020.1.3,MacIntel,60,"[1440,900]",,,"[""trial_ahead_box""]",,,,,,,,,,,,poolhall1.jpg,space,0.69726,[-0.0055685763888888885],[-0.2979296875],[1],[0],[0],[0.44493500000680797],"[""trial_ahead_box""]",0,88,88,78,1,parkinglot3.jpg,pier5.jpg,pavilion3.jpg,observatory1.jpg,,
Image_List_2,,,,,,,,,,,,,,,,44548,2020-11-17_14h51.13.687,lingCatScenes,2020.1.3,MacIntel,60,"[1440,900]",,,"[""trial_ahead_box""]",,,,,,,,,,,,racecarcourse2.jpg,space,0.651695,[-0.0055685763888888885],[-0.2979296875],[1],[0],[0],[0.3286999999836553],"[""trial_ahead_box""]",0,89,89,80,1,pavilion2.jpg,porch.jpg,poolhall5.jpg,parkinggarage4.jpg,,
Image_List_2,,,,,,,,,,,,,,,,44548,2020-11-17_14h51.13.687,lingCatScenes,2020.1.3,MacIntel,60,"[1440,900]",,,"[""trial_ahead_box""]",,,,,,,,,,,,minigolf.jpg,space,0.632885,[-0.0055685763888888885],[-0.2979296875],[1],[0],[0],[0.32722999999532476],"[""trial_ahead_box""]",0,90,90,62,1,hotellobby2.jpg,horsebarn8.jpg,lab3.jpg,hayfield7.jpg,,
Image_List_2,,,,,,,,,,,,,,,,44548,2020-11-17_14h51.13.687,lingCatScenes,2020.1.3,MacIntel,60,"[1440,900]",,,"[""trial_ahead_box""]",,,,,,,,,,,,sidewalk2.jpg,space,0.678045,[-0.0055685763888888885],[-0.2979296875],[1],[0],[0],[0.31278500001644716],"[""trial_ahead_box""]",0,91,91,84,1,readingroom5.jpg,restaurant13.jpg,sandDunes_desert_outdoor.jpg,rooftop2.jpg,,
Image_List_2,,,,,,,,,,,,,,,,44548,2020-11-17_14h51.13.687,lingCatScenes,2020.1.3,MacIntel,60,"[1440,900]",,,"[""trial_ahead_box""]",,,,,,,,,,,,park7.jpg,space,0.660205,[-0.0055685763888888885],[-0.2979296875],[1],[0],[0],[0.2939749999786727],"[""trial_ahead_box""]",0,92,92,67,1,library_aisle3.jpg,laundromat4.jpg,liquorstore2.jpg,hospitalroom2.jpg,,
Image_List_2,,,,,,,,,,,,,,,,44548,2020-11-17_14h51.13.687,lingCatScenes,2020.1.3,MacIntel,60,"[1440,900]",,,"[""trial_ahead_box""]",,,,,,,,,,,,warehouseoutside1.jpg,space,0.649285,[-0.0055685763888888885],[-0.2979296875],[1],[0],[0],[0.37893499998608604],"[""trial_ahead_box""]",0,93,93,96,1,warehouse4.jpg,tenniscourt3.jpg,windmill1.jpg,warehouse1.jpg,,
Image_List_2,,,,,,,,,,,,,,,,44548,2020-11-17_14h51.13.687,lingCatScenes,2020.1.3,MacIntel,60,"[1440,900]",,,"[""trial_ahead_box""]",,,,,,,,,,,,office3.jpg,space,0.619695,[-0.0055685763888888885],[-0.2979296875],[1],[0],[0],[0.42803499998990446],"[""trial_ahead_box""]",0,94,94,66,1,library_aisle10.jpg,laundromat3.jpg,liquorstore.jpg,horsebarn9.jpg,,
Image_List_2,,,,,,,,,,,,,,,,44548,2020-11-17_14h51.13.687,lingCatScenes,2020.1.3,MacIntel,60,"[1440,900]",,,"[""trial_ahead_box""]",,,,,,,,,,,,diner12.jpg,space,0.610655,[-0.0055685763888888885],[-0.2979296875],[1],[0],[0],[0.361590000014985],"[""trial_ahead_box""]",0,95,95,32,1,dancestudio6.jpg,constructionSite2.jpg,dentist4.jpg,cabin4.jpg,,
Image_List_2,,,,,,,,,,,,,,,,44548,2020-11-17_14h51.13.687,lingCatScenes,2020.1.3,MacIntel,60,"[1440,900]",,,"[""trial_ahead_box""]",,,,,,,,,,,,waitingroom3.jpg,space,0.59616,[-0.0055685763888888885],[-0.2979296875],[1],[0],[0],[0.32881500001531094],"[""trial_ahead_box""]",0,96,96,94,1,treehouse.jpg,staircase6.jpg,weightroom.jpg,trainStation3.jpg,,
Image_List_2,,,,,,,,,,,,,,,,44548,2020-11-17_14h51.13.687,lingCatScenes,2020.1.3,MacIntel,60,"[1440,900]",,,"[""trial_ahead_box""]",,,,,,,,,,,,frontLawn5.jpg,space,0.785665,[-0.0055685763888888885],[-0.2979296875],[1],[0],[0],[0.4287999999942258],"[""trial_ahead_box""]",0,97,97,46,1,flowershop.jpg,farmersmarket4.jpg,fountain4.jpg,dormroom6.jpg,,
Image_List_2,,,,,,,,,,,,,,,,44548,2020-11-17_14h51.13.687,lingCatScenes,2020.1.3,MacIntel,60,"[1440,900]",,,[],,,,,,,,,,,,church6.jpg,space,0.463145,[],[],[],[],[],[],[],0,98,98,22,1,bowlingalley5.jpg,cargo5.jpg,cemetery.jpg,bistrooutdoor6.jpg,,
Image_List_2,,,,,,,,,,,,,,,,44548,2020-11-17_14h51.13.687,lingCatScenes,2020.1.3,MacIntel,60,"[1440,900]",,,[],,,,,,,,,,,,homeoffice.jpg,space,0.21707,[],[],[],[],[],[],[],0,99,99,53,1,gazebo3.jpg,frontLawn3.jpg,homegarage3.jpg,fountain.jpg,,
Image_List_2,,,,,,,,,,,,,,,,44548,2020-11-17_14h51.13.687,lingCatScenes,2020.1.3,MacIntel,60,,,,,,,,,,,,,,,,,,,,,,,,,,,,,,,,,,,space,0.229175
