image_list,key_resp_intructions.keys,key_resp_intructions.rt,key_resp_intructions_3.keys,key_resp_intructions_3.rt,PracticeComplete_2.keys,PracticeComplete_2.rt,PracticeComplete_3.keys,PracticeComplete_3.rt,demo_trials.thisRepN,demo_trials.thisTrialN,demo_trials.thisN,demo_trials.thisIndex,demo_trials.ran,demo_images,path_images,participant,date,expName,psychopyVersion,OS,frameRate,windowSize,practice_complete.keys,practice_complete.rt,boxes_checked,PracticeComplete.keys,PracticeComplete.rt,practice_trials.thisRepN,practice_trials.thisTrialN,practice_trials.thisN,practice_trials.thisIndex,practice_trials.ran,practice_images,feedback_images,key_resp_intructions_2.keys,key_resp_intructions_2.rt,Image_List_3,trial_complete.keys,trial_complete.rt,trial_mouse.x,trial_mouse.y,trial_mouse.leftButton,trial_mouse.midButton,trial_mouse.rightButton,trial_mouse.time,trial_mouse.clicked_name,trials.thisRepN,trials.thisTrialN,trials.thisN,trials.thisIndex,trials.ran,Image_List_1,Image_List_2,Image_List_4,Image_List_5,key_resp.keys,key_resp.rt
Image_List_3,space,6.61814,space,2.77749,space,17.31059,space,3.197185,0,0,0,5,1,right.jpg,right_path.jpg,44557,2020-11-17_15h35.31.286,lingCatScenes,2020.1.3,MacIntel,60,,,,,,,,,,,,,,,,,,,,,,,,,,,,,,,,,,,,
Image_List_3,,,,,space,2.95761,space,3.569015,0,1,1,4,1,left.jpg,left_path.jpg,44557,2020-11-17_15h35.31.286,lingCatScenes,2020.1.3,MacIntel,60,,,,,,,,,,,,,,,,,,,,,,,,,,,,,,,,,,,,
Image_List_3,,,,,space,3.02666,space,1.386605,0,2,2,1,1,ahead_left.jpg,ahead_left_path.jpg,44557,2020-11-17_15h35.31.286,lingCatScenes,2020.1.3,MacIntel,60,,,,,,,,,,,,,,,,,,,,,,,,,,,,,,,,,,,,
Image_List_3,,,,,space,4.00098,space,1.61532,0,3,3,6,1,right_left.jpg,right_left_path.jpg,44557,2020-11-17_15h35.31.286,lingCatScenes,2020.1.3,MacIntel,60,,,,,,,,,,,,,,,,,,,,,,,,,,,,,,,,,,,,
Image_List_3,,,,,space,1.568975,space,0.411495,0,4,4,0,1,ahead.jpg,ahead_path.jpg,44557,2020-11-17_15h35.31.286,lingCatScenes,2020.1.3,MacIntel,60,,,,,,,,,,,,,,,,,,,,,,,,,,,,,,,,,,,,
Image_List_3,,,,,space,3.98816,space,1.46942,0,5,5,3,1,ahead_right_left.jpg,ahead_right_left_path.jpg,44557,2020-11-17_15h35.31.286,lingCatScenes,2020.1.3,MacIntel,60,,,,,,,,,,,,,,,,,,,,,,,,,,,,,,,,,,,,
Image_List_3,,,,,space,2.126855,space,2.238855,0,6,6,2,1,ahead_right.jpg,ahead_right_path.jpg,44557,2020-11-17_15h35.31.286,lingCatScenes,2020.1.3,MacIntel,60,,,,,,,,,,,,,,,,,,,,,,,,,,,,,,,,,,,,
Image_List_3,,,,,,,,,,,,,,,,44557,2020-11-17_15h35.31.286,lingCatScenes,2020.1.3,MacIntel,60,"[1440,900]",space,15.436365,"[""sharp_left_box"",""slight_left_box"",""slight_right_box"",""right_box""]",space,2.858605,0,0,0,3,1,ahead_right_left_2.jpg,ahead_right_left_2_path.jpg,,,,,,,,,,,,,,,,,,,,,,,
Image_List_3,,,,,,,,,,,,,,,,44557,2020-11-17_15h35.31.286,lingCatScenes,2020.1.3,MacIntel,60,"[1440,900]",space,7.343685,"[""sharp_left_box"",""left_box"",""slight_left_box"",""slight_right_box"",""right_box"",""sharp_right_box""]",space,4.314355,0,1,1,6,1,right_left_2.jpg,right_left_2_path.jpg,,,,,,,,,,,,,,,,,,,,,,,
Image_List_3,,,,,,,,,,,,,,,,44557,2020-11-17_15h35.31.286,lingCatScenes,2020.1.3,MacIntel,60,"[1440,900]",space,10.80862,"[""ahead_box"",""right_box"",""slight_left_box""]",space,0.92544,0,2,2,2,1,ahead_right_2.jpg,ahead_right_2_path.jpg,,,,,,,,,,,,,,,,,,,,,,,
Image_List_3,,,,,,,,,,,,,,,,44557,2020-11-17_15h35.31.286,lingCatScenes,2020.1.3,MacIntel,60,"[1440,900]",space,3.227125,"[""ahead_box""]",space,3.262695,0,3,3,4,1,left_2.jpg,left_2_path.jpg,,,,,,,,,,,,,,,,,,,,,,,
Image_List_3,,,,,,,,,,,,,,,,44557,2020-11-17_15h35.31.286,lingCatScenes,2020.1.3,MacIntel,60,"[1440,900]",space,7.98584,"[""right_box"",""sharp_right_box""]",space,0.419605,0,4,4,5,1,right_2.jpg,right_2_path.jpg,,,,,,,,,,,,,,,,,,,,,,,
Image_List_3,,,,,,,,,,,,,,,,44557,2020-11-17_15h35.31.286,lingCatScenes,2020.1.3,MacIntel,60,"[1440,900]",space,2.44034,"[""ahead_box""]",space,0.42394,0,5,5,0,1,ahead_2.jpg,ahead_2_path.jpg,,,,,,,,,,,,,,,,,,,,,,,
Image_List_3,,,,,,,,,,,,,,,,44557,2020-11-17_15h35.31.286,lingCatScenes,2020.1.3,MacIntel,60,"[1440,900]",space,7.37628,"[""slight_right_box"",""right_box"",""slight_left_box""]",space,0.69448,0,6,6,1,1,ahead_left_2.jpg,ahead_left_2_path.jpg,,,,,,,,,,,,,,,,,,,,,,,
Image_List_3,,,,,,,,,,,,,,,,44557,2020-11-17_15h35.31.286,lingCatScenes,2020.1.3,MacIntel,60,"[1440,900]",,,"[""trial_slight_left_box"",""trial_left_box""]",,,,,,,,,,space,3.448845,forestpath6.jpg,space,4.10881,"[-0.20127604166666666,-0.3847265625]","[-0.3056640625,-0.2967838541666667]","[1,1]","[0,0]","[0,0]","[3.0642700000316836,3.648545000003651]","[""trial_slight_left_box"",""trial_left_box""]",0,0,0,50,1,frontLawn4.jpg,grocerystore6.jpg,hallway2.jpg,fireplace4.jpg,,
Image_List_3,,,,,,,,,,,,,,,,44557,2020-11-17_15h35.31.286,lingCatScenes,2020.1.3,MacIntel,60,"[1440,900]",,,"[""trial_slight_right_box"",""trial_right_box"",""trial_sharp_right_box"",""trial_left_box"",""trial_sharp_left_box"",""trial_slight_left_box""]",,,,,,,,,,,,sculpturegarden4.jpg,space,6.861545,"[0.21301649305555556,0.4084071180555556,0.5961111111111111,-0.4177647569444444,-0.58984375,-0.20145833333333332]","[-0.30716145833333336,-0.30029947916666666,-0.2975260416666667,-0.28746961805555554,-0.2800477430555556,-0.2843576388888889]","[1,1,1,1,1,1]","[0,0,0,0,0,0]","[0,0,0,0,0,0]","[2.274234999960754,2.924369999964256,3.70763999997871,4.824380000005476,5.391034999978729,6.324424999998882]","[""trial_slight_right_box"",""trial_right_box"",""trial_sharp_right_box"",""trial_left_box"",""trial_sharp_left_box"",""trial_slight_left_box""]",0,1,1,88,1,rooftop1.jpg,track.jpg,soccerfield.jpg,sandbox.jpg,,
Image_List_3,,,,,,,,,,,,,,,,44557,2020-11-17_15h35.31.286,lingCatScenes,2020.1.3,MacIntel,60,"[1440,900]",,,"[""trial_sharp_right_box""]",,,,,,,,,,,,farmersmarket4.jpg,space,6.616495,"[0.19815104166666667,0.3779513888888889,0.2042751736111111,0.5878819444444444,0.421171875]","[-0.31626302083333335,-0.2989192708333333,-0.2995789930555556,-0.2891970486111111,-0.3003125]","[1,1,1,1,1]","[0,0,0,0,0]","[0,0,0,0,0]","[1.5117300000274554,2.130470000032801,2.6616350000258535,3.411420000018552,3.947130000044126]","[""trial_slight_right_box"",""trial_right_box"",""trial_slight_right_box"",""trial_sharp_right_box"",""trial_right_box""]",0,2,2,46,1,flowershop.jpg,frontLawn5.jpg,fountain4.jpg,dormroom6.jpg,,
Image_List_3,,,,,,,,,,,,,,,,44557,2020-11-17_15h35.31.286,lingCatScenes,2020.1.3,MacIntel,60,"[1440,900]",,,"[""trial_ahead_box"",""trial_right_box"",""trial_left_box""]",,,,,,,,,,,,staircase6.jpg,space,5.734585,"[0.010855034722222223,0.400390625,-0.3908289930555556]","[-0.29367621527777776,-0.3056597222222222,-0.29549479166666665]","[1,1,1]","[0,0,0]","[0,0,0]","[1.261545000015758,4.145409999997355,5.128369999991264]","[""trial_ahead_box"",""trial_right_box"",""trial_left_box""]",0,3,3,94,1,treehouse.jpg,waitingroom3.jpg,weightroom.jpg,trainStation3.jpg,,
Image_List_3,,,,,,,,,,,,,,,,44557,2020-11-17_15h35.31.286,lingCatScenes,2020.1.3,MacIntel,60,"[1440,900]",,,"[""trial_ahead_box"",""trial_slight_left_box""]",,,,,,,,,,,,hotelRoom2.jpg,space,8.41495,"[-0.0056640625,-0.2241796875]","[-0.29562065972222223,-0.2848611111111111]","[1,1]","[0,0]","[0,0]","[1.5629500000504777,2.4618150000460446]","[""trial_ahead_box"",""trial_slight_left_box""]",0,4,4,63,1,hut2.jpg,museum6.jpg,lab4.jpg,highway2.jpg,,
Image_List_3,,,,,,,,,,,,,,,,44557,2020-11-17_15h35.31.286,lingCatScenes,2020.1.3,MacIntel,60,"[1440,900]",,,"[""trial_ahead_box"",""trial_slight_left_box"",""trial_left_box"",""trial_right_box"",""trial_sharp_right_box"",""trial_sharp_left_box"",""trial_slight_right_box""]",,,,,,,,,,,,ballroom2.jpg,space,10.563695,"[0.0054296875,-0.2141232638888889,-0.4018142361111111,-0.5604296875,0.41604166666666664,0.5923741319444444,-0.5642100694444444,-0.6036458333333333,0.2036111111111111]","[-0.312265625,-0.29138020833333333,-0.294296875,-0.3042751736111111,-0.30657986111111113,-0.2970529513888889,-0.29467447916666667,-0.2940451388888889,-0.29739583333333336]","[1,1,1,1,1,1,1,1,1]","[0,0,0,0,0,0,0,0,0]","[0,0,0,0,0,0,0,0,0]","[1.4946800000034273,2.328655000019353,2.746510000026319,3.1952349999919534,6.678299999970477,7.361734999984037,8.945490000012796,9.444994999968912,10.314780000015162]","[""trial_ahead_box"",""trial_slight_left_box"",""trial_left_box"",""trial_right_box"",""trial_sharp_right_box"",""trial_sharp_left_box"",""trial_slight_right_box""]",0,5,5,9,1,auto_showroom3.jpg,bar2.jpg,basement5.jpg,arcade2.jpg,,
Image_List_3,,,,,,,,,,,,,,,,44557,2020-11-17_15h35.31.286,lingCatScenes,2020.1.3,MacIntel,60,"[1440,900]",,,"[""trial_sharp_left_box"",""trial_slight_left_box"",""trial_left_box"",""trial_slight_right_box"",""trial_right_box"",""trial_sharp_right_box""]",,,,,,,,,,,,drymountains3.jpg,space,5.4499,"[-0.6028211805555556,-0.3729557291666667,-0.19058159722222223,-0.3825,0.18098524305555555,0.45491319444444445,0.402734375,0.5923958333333333]","[-0.3005598958333333,-0.28650607638888886,-0.290390625,-0.2975564236111111,-0.2972439236111111,-0.2799045138888889,-0.30178819444444444,-0.2950607638888889]","[1,1,1,1,1,1,1,1]","[0,0,0,0,0,0,0,0]","[0,0,0,0,0,0,0,0]","[1.5603399999672547,2.177064999996219,2.660604999982752,3.1796599999652244,3.9772749999538064,4.393905000004452,4.710640000004787,5.21215499995742]","[""trial_sharp_left_box"",""trial_slight_left_box"",""trial_left_box"",""trial_slight_right_box"",""trial_right_box"",""trial_sharp_right_box""]",0,6,6,41,1,dugout4.jpg,farm3.jpg,fabricstore1.jpg,dentist2.jpg,,
Image_List_3,,,,,,,,,,,,,,,,44557,2020-11-17_15h35.31.286,lingCatScenes,2020.1.3,MacIntel,60,"[1440,900]",,,"[""trial_sharp_left_box"",""trial_left_box"",""trial_slight_left_box"",""trial_slight_right_box"",""trial_sharp_right_box"",""trial_right_box"",""trial_ahead_box""]",,,,,,,,,,,,golfcourse10.jpg,space,6.07227,"[-0.6200390625,-0.4153689236111111,-0.20614583333333333,0.20476128472222221,0.42846788194444446,0.5922048611111111,0.38311631944444446,0.0051171875]","[-0.30493055555555554,-0.2967447916666667,-0.29235243055555554,-0.28375868055555553,-0.2876345486111111,-0.3044921875,-0.308671875,-0.29928819444444443]","[1,1,1,1,1,1,1,1]","[0,0,0,0,0,0,0,0]","[0,0,0,0,0,0,0,0]","[1.79435000004014,2.34419999999227,2.8612900000298396,3.5450800000107847,4.130290000000969,4.630100000009406,5.111384999996517,5.845965000044089]","[""trial_sharp_left_box"",""trial_left_box"",""trial_slight_left_box"",""trial_slight_right_box"",""trial_sharp_right_box"",""trial_right_box"",""trial_ahead_box""]",0,7,7,56,1,grocerystore5.jpg,hut3.jpg,hut1.jpg,gasstation2.jpg,,
Image_List_3,,,,,,,,,,,,,,,,44557,2020-11-17_15h35.31.286,lingCatScenes,2020.1.3,MacIntel,60,"[1440,900]",,,"[""trial_ahead_box""]",,,,,,,,,,,,bambooforest3.jpg,space,1.26226,[-0.0030121527777777777],[-0.29604166666666665],[1],[0],[0],[0.9430149999679998],"[""trial_ahead_box""]",0,8,8,11,1,backyard2.jpg,basketballcourt4.jpg,baywindow5.jpg,backyard1.jpg,,
Image_List_3,,,,,,,,,,,,,,,,44557,2020-11-17_15h35.31.286,lingCatScenes,2020.1.3,MacIntel,60,"[1440,900]",,,"[""trial_sharp_right_box"",""trial_right_box"",""trial_slight_right_box"",""trial_ahead_box""]",,,,,,,,,,,,dugout2.jpg,space,4.711455,"[0.5965711805555556,0.40094618055555553,0.17653645833333334,-0.023350694444444445]","[-0.28684895833333335,-0.3026128472222222,-0.31069878472222223,-0.3083029513888889]","[1,1,1,1]","[0,0,0,0]","[0,0,0,0]","[1.977759999979753,2.6440500000026077,3.360820000001695,3.8941150000318885]","[""trial_sharp_right_box"",""trial_right_box"",""trial_slight_right_box"",""trial_ahead_box""]",0,9,9,43,1,exerciseequipment5.jpg,forestpath10.jpg,foodcourt.jpg,diningroom3.jpg,,
Image_List_3,,,,,,,,,,,,,,,,44557,2020-11-17_15h35.31.286,lingCatScenes,2020.1.3,MacIntel,60,"[1440,900]",,,"[""trial_ahead_box"",""trial_slight_right_box""]",,,,,,,,,,,,appleorchard4.jpg,space,3.25814,"[-0.00031684027777777776,0.22010416666666666]","[-0.3066276041666667,-0.3054123263888889]","[1,1]","[0,0]","[0,0]","[1.8769600000232458,2.7289400000008754]","[""trial_ahead_box"",""trial_slight_right_box""]",0,10,10,0,1,airplanecabin1.jpg,alley2.jpg,airplanecabin5.jpg,airplanecabin3.jpg,,
Image_List_3,,,,,,,,,,,,,,,,44557,2020-11-17_15h35.31.286,lingCatScenes,2020.1.3,MacIntel,60,"[1440,900]",,,"[""trial_sharp_right_box"",""trial_right_box""]",,,,,,,,,,,,promenadeDeck6.jpg,space,3.51474,"[0.6025347222222223,0.3999479166666667]","[-0.29260416666666667,-0.3053125]","[1,1]","[0,0]","[0,0]","[1.7589099999750033,2.5093350000097416]","[""trial_sharp_right_box"",""trial_right_box""]",0,11,11,83,1,readingroom1.jpg,sculpturegarden1.jpg,restaurant8.jpg,readingroom2.jpg,,
Image_List_3,,,,,,,,,,,,,,,,44557,2020-11-17_15h35.31.286,lingCatScenes,2020.1.3,MacIntel,60,"[1440,900]",,,"[""trial_ahead_box"",""trial_sharp_right_box"",""trial_sharp_left_box""]",,,,,,,,,,,,drymountains.jpg,space,4.31844,"[-0.0065234375,0.5747482638888889,0.5791623263888889,-0.5797526041666666]","[-0.32361545138888886,-0.30694010416666667,-0.2893793402777778,-0.29247829861111113]","[1,1,1,1]","[0,0,0,0]","[0,0,0,0]","[1.3950400000321679,2.4452799999853596,3.0952500000130385,3.995504999998957]","[""trial_ahead_box"",""trial_sharp_right_box"",""trial_sharp_left_box""]",0,12,12,40,1,drycleaners4.jpg,farm1.jpg,dugout1.jpg,clothingstore3.jpg,,
Image_List_3,,,,,,,,,,,,,,,,44557,2020-11-17_15h35.31.286,lingCatScenes,2020.1.3,MacIntel,60,"[1440,900]",,,"[""trial_sharp_left_box"",""trial_left_box"",""trial_slight_left_box"",""trial_slight_right_box"",""trial_sharp_right_box"",""trial_right_box""]",,,,,,,,,,,,hedgemaze1.jpg,space,15.113845,"[-0.6108940972222222,-0.3930859375,-0.19015190972222223,0.20789930555555555,0.4285763888888889,0.4026953125,0.4026953125,0.6237022569444445,0.4263151041666667,0.40890190972222223]","[-0.31072916666666667,-0.3028515625,-0.3080338541666667,-0.3041232638888889,-0.3030859375,-0.3030859375,-0.3030859375,-0.3202126736111111,-0.31146267361111113,-0.3000607638888889]","[1,1,1,1,1,1,1,1,1,1]","[0,0,0,0,0,0,0,0,0,0]","[0,0,0,0,0,0,0,0,0,0]","[3.043869999994058,3.697485000011511,9.327820000005886,10.911275000020396,11.694744999986142,12.377459999988787,12.730054999992717,13.628094999992754,14.244825000001583,14.81157499999972]","[""trial_sharp_left_box"",""trial_left_box"",""trial_slight_left_box"",""trial_slight_right_box"",""trial_right_box"",""trial_right_box"",""trial_sharp_right_box"",""trial_right_box""]",0,13,13,58,1,highway7.jpg,lab1.jpg,igloo4.jpg,grocerystore2.jpg,,
Image_List_3,,,,,,,,,,,,,,,,44557,2020-11-17_15h35.31.286,lingCatScenes,2020.1.3,MacIntel,60,"[1440,900]",,,"[""trial_ahead_box"",""trial_left_box"",""trial_right_box""]",,,,,,,,,,,,church4.jpg,space,4.365765,"[-0.0117578125,-0.0028776041666666668,-0.3848784722222222,0.4161284722222222]","[-0.3272526041666667,-0.30160590277777777,-0.3020486111111111,-0.30939670138888886]","[1,1,1,1]","[0,0,0,0]","[0,0,0,0]","[1.295845000015106,1.7948949999990873,3.0450650000129826,3.9943900000071153]","[""trial_ahead_box"",""trial_left_box"",""trial_right_box""]",0,14,14,26,1,campusquad2.jpg,cornfield4.jpg,churchInside3.jpg,botanicalGarden7.jpg,,
Image_List_3,,,,,,,,,,,,,,,,44557,2020-11-17_15h35.31.286,lingCatScenes,2020.1.3,MacIntel,60,"[1440,900]",,,"[""trial_ahead_box"",""trial_left_box"",""trial_right_box""]",,,,,,,,,,,,staircase4.jpg,space,4.7788,"[-0.006618923611111111,-0.3956467013888889,0.39891927083333334]","[-0.30950086805555554,-0.302265625,-0.299375]","[1,1,1]","[0,0,0]","[0,0,0]","[2.7271650000475347,3.64334000000963,4.4936450000386685]","[""trial_ahead_box"",""trial_left_box"",""trial_right_box""]",0,15,15,93,1,tollbooth8.jpg,volleyballcourt4.jpg,warehouseoutside2.jpg,tenniscourt.jpg,,
Image_List_3,,,,,,,,,,,,,,,,44557,2020-11-17_15h35.31.286,lingCatScenes,2020.1.3,MacIntel,60,"[1440,900]",,,"[""trial_ahead_box"",""trial_left_box"",""trial_right_box""]",,,,,,,,,,,,horsebarn8.jpg,space,4.046145,"[0.006328125,-0.4146223958333333,0.3873784722222222]","[-0.3000043402777778,-0.2967404513888889,-0.2923263888888889]","[1,1,1]","[0,0,0]","[0,0,0]","[1.6939750000019558,2.7940700000035577,3.827255000011064]","[""trial_ahead_box"",""trial_left_box"",""trial_right_box""]",0,16,16,62,1,hotellobby2.jpg,minigolf.jpg,lab3.jpg,hayfield7.jpg,,
Image_List_3,,,,,,,,,,,,,,,,44557,2020-11-17_15h35.31.286,lingCatScenes,2020.1.3,MacIntel,60,"[1440,900]",,,"[""trial_right_box"",""trial_slight_right_box"",""trial_slight_left_box"",""trial_left_box"",""trial_sharp_right_box""]",,,,,,,,,,,,skatepark5.jpg,space,6.21457,"[0.40057725694444446,0.20102430555555556,-0.22661024305555555,-0.23089409722222223,-0.20930555555555555,-0.4141666666666667,0.5854340277777778]","[-0.2909114583333333,-0.2994748263888889,-0.2924175347222222,-0.29296006944444447,-0.29207899305555557,-0.3011067708333333,-0.30217881944444447]","[1,1,1,1,1,1,1]","[0,0,0,0,0,0,0]","[0,0,0,0,0,0,0]","[1.7136049999971874,2.7958449999568984,3.3803699999698438,3.8804399999789894,4.362625000008848,5.014079999993555,5.928985000005923]","[""trial_right_box"",""trial_slight_right_box"",""trial_slight_left_box"",""trial_left_box"",""trial_sharp_right_box""]",0,17,17,91,1,shoestore2.jpg,trainStation5.jpg,ticket_counter6.jpg,sidewalk3.jpg,,
Image_List_3,,,,,,,,,,,,,,,,44557,2020-11-17_15h35.31.286,lingCatScenes,2020.1.3,MacIntel,60,"[1440,900]",,,"[""trial_ahead_box"",""trial_sharp_right_box"",""trial_right_box"",""trial_slight_right_box"",""trial_slight_left_box"",""trial_left_box"",""trial_sharp_left_box""]",,,,,,,,,,,,frontLawn3.jpg,space,5.975295,"[-0.014331597222222223,0.6350043402777777,0.6114670138888889,0.39445746527777775,0.18605034722222222,-0.18672309027777778,-0.3906467013888889,-0.582890625]","[-0.3015321180555556,-0.3013888888888889,-0.3013888888888889,-0.30094618055555555,-0.2893532986111111,-0.2994574652777778,-0.2979817708333333,-0.28106770833333333]","[1,1,1,1,1,1,1,1]","[0,0,0,0,0,0,0,0]","[0,0,0,0,0,0,0,0]","[1.4592650000122376,2.259340000047814,2.6760700000450015,3.1260550000006333,3.6268000000272878,4.327685000025667,4.877870000025723,5.526600000041071]","[""trial_ahead_box"",""trial_sharp_right_box"",""trial_right_box"",""trial_slight_right_box"",""trial_slight_left_box"",""trial_left_box"",""trial_sharp_left_box""]",0,18,18,53,1,gazebo3.jpg,homeoffice.jpg,homegarage3.jpg,fountain.jpg,,
Image_List_3,,,,,,,,,,,,,,,,44557,2020-11-17_15h35.31.286,lingCatScenes,2020.1.3,MacIntel,60,"[1440,900]",,,"[""trial_ahead_box"",""trial_slight_right_box"",""trial_slight_left_box""]",,,,,,,,,,,,dining_car3.jpg,space,4.064765,"[0.020499131944444443,0.2088237847222222,-0.18940104166666666]","[-0.29140190972222224,-0.3036197916666667,-0.3039496527777778]","[1,1,1]","[0,0,0]","[0,0,0]","[1.1958250000025146,2.361220000020694,3.2133950000279583]","[""trial_ahead_box"",""trial_slight_right_box"",""trial_slight_left_box""]",0,19,19,36,1,diner14.jpg,dormroom9.jpg,doctor1.jpg,checkoutcounter9.jpg,,
Image_List_3,,,,,,,,,,,,,,,,44557,2020-11-17_15h35.31.286,lingCatScenes,2020.1.3,MacIntel,60,"[1440,900]",,,"[""trial_ahead_box""]",,,,,,,,,,,,ruralroad2.jpg,space,1.88138,[-0.016553819444444444],[-0.3007465277777778],[1],[0],[0],[1.3288600000087172],"[""trial_ahead_box""]",0,20,20,85,1,recordingstudio4.jpg,sidewalk5.jpg,sandDunes_desert_outdoor3.jpg,rooftop3.jpg,,
Image_List_3,,,,,,,,,,,,,,,,44557,2020-11-17_15h35.31.286,lingCatScenes,2020.1.3,MacIntel,60,"[1440,900]",,,"[""trial_ahead_box"",""trial_sharp_right_box"",""trial_sharp_left_box""]",,,,,,,,,,,,frontDoor5.jpg,space,3.33171,"[0.0007378472222222222,0.6197960069444445,-0.6077126736111111]","[-0.28692274305555554,-0.2991232638888889,-0.30332465277777776]","[1,1,1]","[0,0,0]","[0,0,0]","[1.1459349999786355,2.2438299999921583,3.110790000006091]","[""trial_ahead_box"",""trial_sharp_right_box"",""trial_sharp_left_box""]",0,21,21,51,1,gasstation6.jpg,hallway5.jpg,hayfield4.jpg,firestation5.jpg,,
Image_List_3,,,,,,,,,,,,,,,,44557,2020-11-17_15h35.31.286,lingCatScenes,2020.1.3,MacIntel,60,"[1440,900]",,,"[""trial_ahead_box"",""trial_sharp_left_box"",""trial_sharp_right_box""]",,,,,,,,,,,,jewelrystore8.jpg,space,4.433185,"[0.007621527777777777,-0.5870442708333333,0.5838628472222223]","[-0.3088671875,-0.30526041666666665,-0.3025390625]","[1,1,1]","[0,0,0]","[0,0,0]","[2.129160000011325,3.0104500000015832,3.8447000000160187]","[""trial_ahead_box"",""trial_sharp_left_box"",""trial_sharp_right_box""]",0,22,22,64,1,igloo2.jpg,newsstand5.jpg,lab5.jpg,homegarage2.jpg,,
Image_List_3,,,,,,,,,,,,,,,,44557,2020-11-17_15h35.31.286,lingCatScenes,2020.1.3,MacIntel,60,"[1440,900]",,,"[""trial_ahead_box"",""trial_slight_right_box"",""trial_slight_left_box"",""trial_sharp_left_box"",""trial_sharp_right_box""]",,,,,,,,,,,,campsite3.jpg,space,6.708885,"[0.0251953125,0.005720486111111111,0.23266059027777777,0.19776041666666666,-0.20484375,-0.5605685763888889,-0.6050217013888889,0.5955295138888889]","[-0.3025260416666667,-0.3004861111111111,-0.29446180555555557,-0.29852430555555554,-0.32003038194444444,-0.3097743055555556,-0.3097743055555556,-0.28996961805555554]","[1,1,1,1,1,1,1,1]","[0,0,0,0,0,0,0,0]","[0,0,0,0,0,0,0,0]","[1.2587150000035763,2.2586499999742955,2.8089099999633618,3.292144999955781,4.142214999999851,5.259004999999888,5.644274999969639,6.477629999979399]","[""trial_ahead_box"",""trial_slight_right_box"",""trial_slight_left_box"",""trial_sharp_left_box"",""trial_sharp_right_box""]",0,23,23,20,1,boardwalk6.jpg,cave.jpg,cave4.jpg,basketballcourt7.jpg,,
Image_List_3,,,,,,,,,,,,,,,,44557,2020-11-17_15h35.31.286,lingCatScenes,2020.1.3,MacIntel,60,"[1440,900]",,,"[""trial_ahead_box"",""trial_right_box"",""trial_left_box""]",,,,,,,,,,,,factory1.jpg,space,3.16862,"[0.012009548611111111,0.4149262152777778,-0.3967057291666667]","[-0.295625,-0.3073654513888889,-0.29843315972222223]","[1,1,1]","[0,0,0]","[0,0,0]","[1.3602499999688007,2.093619999999646,2.9451699999626726]","[""trial_ahead_box"",""trial_right_box"",""trial_left_box""]",0,24,24,45,1,fittingroom2.jpg,frontFoyer7.jpg,forestpath4.jpg,dock4.jpg,,
Image_List_3,,,,,,,,,,,,,,,,44557,2020-11-17_15h35.31.286,lingCatScenes,2020.1.3,MacIntel,60,"[1440,900]",,,"[""trial_sharp_left_box"",""trial_sharp_right_box"",""trial_right_box"",""trial_left_box"",""trial_slight_left_box"",""trial_slight_right_box""]",,,,,,,,,,,,auto_showroom1.jpg,space,7.64645,"[-0.6145399305555556,0.5971223958333334,0.40203125,-0.41411892361111113,-0.1723654513888889,-0.1858159722222222,0.1876953125]","[-0.29052517361111113,-0.31593315972222225,-0.29934461805555557,-0.30289496527777776,-0.3133550347222222,-0.3133550347222222,-0.3059375]","[1,1,1,1,1,1,1]","[0,0,0,0,0,0,0]","[0,0,0,0,0,0,0]","[2.1432350000250153,2.9599900000030175,3.59466500004055,4.5601150000002235,6.278570000024047,6.677670000004582,7.3957550000050105]","[""trial_sharp_left_box"",""trial_sharp_right_box"",""trial_right_box"",""trial_left_box"",""trial_slight_left_box"",""trial_slight_right_box""]",0,25,25,4,1,artStudio1.jpg,baggageClaim2.jpg,appleorchard3.jpg,alley4.jpg,,
Image_List_3,,,,,,,,,,,,,,,,44557,2020-11-17_15h35.31.286,lingCatScenes,2020.1.3,MacIntel,60,"[1440,900]",,,"[""trial_ahead_box"",""trial_slight_right_box"",""trial_slight_left_box"",""trial_right_box""]",,,,,,,,,,,,auto_showroom5.jpg,space,5.831455,"[-0.004075520833333333,0.19348958333333333,-0.19887152777777778,0.4007378472222222]","[-0.2756423611111111,-0.3168359375,-0.30471354166666664,-0.2886197916666667]","[1,1,1,1]","[0,0,0,0]","[0,0,0,0]","[1.1450749999494292,1.9434249999467283,3.1598200000007637,4.592929999984335]","[""trial_ahead_box"",""trial_slight_right_box"",""trial_slight_left_box"",""trial_right_box""]",0,26,26,6,1,ATM1.jpg,banquetHall2.jpg,baggageClaim1.jpg,apartmentBuilding3.jpg,,
Image_List_3,,,,,,,,,,,,,,,,44557,2020-11-17_15h35.31.286,lingCatScenes,2020.1.3,MacIntel,60,"[1440,900]",,,"[""trial_sharp_right_box"",""trial_right_box"",""trial_slight_right_box""]",,,,,,,,,,,,laundromat3.jpg,space,10.47896,"[0.6076258680555555,0.39155815972222224,0.18523003472222221]","[-0.3016276041666667,-0.29638454861111113,-0.290234375]","[1,1,1]","[0,0,0]","[0,0,0]","[3.496400000003632,5.128179999999702,8.3116250000312]","[""trial_sharp_right_box"",""trial_right_box"",""trial_slight_right_box""]",0,27,27,66,1,library_aisle10.jpg,office3.jpg,liquorstore.jpg,horsebarn9.jpg,,
Image_List_3,,,,,,,,,,,,,,,,44557,2020-11-17_15h35.31.286,lingCatScenes,2020.1.3,MacIntel,60,"[1440,900]",,,"[""trial_ahead_box"",""trial_left_box"",""trial_right_box""]",,,,,,,,,,,,cubicle7.jpg,space,10.54524,"[0.0064756944444444445,-0.39610677083333334,-0.39610677083333334,0.38925347222222223]","[-0.306796875,-0.2621440972222222,-0.27988715277777776,-0.2921223958333333]","[1,1,1,1]","[0,0,0,0]","[0,0,0,0]","[7.327734999998938,8.677934999985155,9.061370000010356,10.311359999992419]","[""trial_ahead_box"",""trial_left_box"",""trial_right_box""]",0,28,28,35,1,deck5.jpg,dock3.jpg,dining_car6.jpg,carmechanic2.jpg,,
Image_List_3,,,,,,,,,,,,,,,,44557,2020-11-17_15h35.31.286,lingCatScenes,2020.1.3,MacIntel,60,"[1440,900]",,,"[""trial_ahead_box""]",,,,,,,,,,,,gazebo2.jpg,space,2.726775,[0.01984375],[-0.29211805555555553],[1],[0],[0],[1.2272349999984726],"[""trial_ahead_box""]",0,29,29,54,1,greenhouse2.jpg,horsebarn11.jpg,homegarage4.jpg,frontFoyer.jpg,,
Image_List_3,,,,,,,,,,,,,,,,44557,2020-11-17_15h35.31.286,lingCatScenes,2020.1.3,MacIntel,60,"[1440,900]",,,"[""trial_ahead_box""]",,,,,,,,,,,,homegarden6.jpg,space,3.216725,[0.011089409722222223],[-0.2781423611111111],[1],[0],[0],[2.7975900000310503],"[""trial_ahead_box""]",0,30,30,61,1,HorseRaceTrack.jpg,metroInside4.jpg,kindergarten_classroom7.jpg,hayfield6.jpg,,
Image_List_3,,,,,,,,,,,,,,,,44557,2020-11-17_15h35.31.286,lingCatScenes,2020.1.3,MacIntel,60,"[1440,900]",,,"[""trial_right_box""]",,,,,,,,,,,,laundromat2.jpeg,space,3.495325,"[0.39839409722222224,-0.38831163194444446]","[-0.31207899305555553,-0.2728689236111111]","[1,1]","[0,0]","[0,0]","[2.5103799999924377,3.2604299999657087]","[""trial_right_box""]",0,31,31,65,1,igloo5.jpg,newsstand7.jpg,labClass7.jpg,homeoffice8.jpg,,
Image_List_3,,,,,,,,,,,,,,,,44557,2020-11-17_15h35.31.286,lingCatScenes,2020.1.3,MacIntel,60,"[1440,900]",,,"[""trial_right_box"",""trial_ahead_box""]",,,,,,,,,,,,porch.jpg,space,3.849285,"[0.40226996527777775,0.0040234375]","[-0.3192447916666667,-0.3003732638888889]","[1,1]","[0,0]","[0,0]","[2.3939550000359304,3.510550000006333]","[""trial_right_box"",""trial_ahead_box""]",0,32,32,80,1,pavilion2.jpg,racecarcourse2.jpg,poolhall5.jpg,parkinggarage4.jpg,,
Image_List_3,,,,,,,,,,,,,,,,44557,2020-11-17_15h35.31.286,lingCatScenes,2020.1.3,MacIntel,60,"[1440,900]",,,"[""trial_right_box"",""trial_left_box""]",,,,,,,,,,,,homegarage.jpg,space,3.55149,"[0.42249565972222225,-0.4411328125,-0.40163628472222224]","[-0.29192708333333334,-0.31430555555555556,-0.3104123263888889]","[1,1,1]","[0,0,0]","[0,0,0]","[1.6443750000325963,2.744455000036396,3.230165000015404]","[""trial_right_box"",""trial_left_box""]",0,33,33,60,1,hometheater2.jpg,lightingstore3.jpg,kindergarten_classroom6.jpg,hallway.jpg,,
Image_List_3,,,,,,,,,,,,,,,,44557,2020-11-17_15h35.31.286,lingCatScenes,2020.1.3,MacIntel,60,"[1440,900]",,,"[""trial_ahead_box"",""trial_sharp_right_box"",""trial_sharp_left_box""]",,,,,,,,,,,,courthouse4.jpg,space,3.47835,"[0.019913194444444445,0.5925434027777777,-0.6098654513888889]","[-0.3220442708333333,-0.29203125,-0.290859375]","[1,1,1]","[0,0,0]","[0,0,0]","[1.2791999999899417,2.5102549999719486,3.2609100000117905]","[""trial_ahead_box"",""trial_sharp_right_box"",""trial_sharp_left_box""]",0,34,34,34,1,deck4.jpg,diningroom5.jpg,diner11.jpg,campusquad1.jpg,,
Image_List_3,,,,,,,,,,,,,,,,44557,2020-11-17_15h35.31.286,lingCatScenes,2020.1.3,MacIntel,60,"[1440,900]",,,"[""trial_slight_left_box"",""trial_right_box"",""trial_slight_right_box"",""trial_left_box""]",,,,,,,,,,,,auto_showroom4.jpg,space,4.846795,"[-0.20330295138888888,0.4217447916666667,0.2048090277777778,-0.3757682291666667]","[-0.3088324652777778,-0.2933767361111111,-0.2905989583333333,-0.3003385416666667]","[1,1,1,1]","[0,0,0,0]","[0,0,0,0]","[1.912079999980051,3.1288599999970756,3.8455599999870174,4.628930000006221]","[""trial_slight_left_box"",""trial_right_box"",""trial_slight_right_box"",""trial_left_box""]",0,35,35,5,1,artStudio3.jpg,bambooforest.jpg,attic4.jpg,amusement3.jpg,,
Image_List_3,,,,,,,,,,,,,,,,44557,2020-11-17_15h35.31.286,lingCatScenes,2020.1.3,MacIntel,60,"[1440,900]",,,"[""trial_ahead_box""]",,,,,,,,,,,,hallway4.jpg,space,4.0652,[-0.020794270833333333],[-0.27589409722222225],[1],[0],[0],[1.0795149999903515],"[""trial_ahead_box""]",0,36,36,57,1,hayfield5.jpg,jail1.jpg,hut5.jpg,gazebo.jpg,,
Image_List_3,,,,,,,,,,,,,,,,44557,2020-11-17_15h35.31.286,lingCatScenes,2020.1.3,MacIntel,60,"[1440,900]",,,"[""trial_right_box"",""trial_sharp_right_box"",""trial_ahead_box""]",,,,,,,,,,,,bleachers8.jpg,space,5.627525,"[0.3652690972222222,0.3933506944444444,0.5988020833333333,0.5988020833333333,0.0011284722222222221]","[-0.30646701388888886,-0.3067534722222222,-0.3337717013888889,-0.31453993055555557,-0.2802734375]","[1,1,1,1,1]","[0,0,0,0,0]","[0,0,0,0,0]","[2.4934200000134297,2.8946650000289083,3.643470000009984,4.078685000014957,5.143645000003744]","[""trial_right_box"",""trial_sharp_right_box"",""trial_ahead_box""]",0,37,37,15,1,bambooforest4.jpg,cafeteria5.jpg,cabinIndoors.jpg,bar8.jpg,,
Image_List_3,,,,,,,,,,,,,,,,44557,2020-11-17_15h35.31.286,lingCatScenes,2020.1.3,MacIntel,60,"[1440,900]",,,"[""trial_ahead_box"",""trial_right_box""]",,,,,,,,,,,,cafeteria1.jpg,space,6.443525,"[0.019787326388888887,0.42516059027777775,0.4110546875]","[-0.29062934027777776,-0.33846788194444444,-0.32109375]","[1,1,1]","[0,0,0]","[0,0,0]","[1.8115649999817833,3.0254100000020117,3.341569999989588]","[""trial_ahead_box"",""trial_right_box""]",0,38,38,19,1,boardwalk2.jpg,casino3.jpg,castle4.jpg,basketballcourt.jpg,,
Image_List_3,,,,,,,,,,,,,,,,44557,2020-11-17_15h35.31.286,lingCatScenes,2020.1.3,MacIntel,60,"[1440,900]",,,"[""trial_ahead_box""]",,,,,,,,,,,,cave6.jpg,space,1.8264,[-0.002734375],[-0.29702256944444444],[1],[0],[0],[1.3107549999840558],"[""trial_ahead_box""]",0,39,39,24,1,campsite.jpg,cliff3.jpg,cemetery5.jpg,boardwalk.jpg,,
Image_List_3,,,,,,,,,,,,,,,,44557,2020-11-17_15h35.31.286,lingCatScenes,2020.1.3,MacIntel,60,"[1440,900]",,,"[""trial_ahead_box""]",,,,,,,,,,,,skatepark7.jpg,space,1.176155,[-0.002734375],[-0.29702256944444444],[1],[0],[0],[0.8920550000038929],"[""trial_ahead_box""]",0,40,40,92,1,staircase.jpg,volleyballcourt.jpg,tvstudio2.jpg,soccerfield2.jpg,,
Image_List_3,,,,,,,,,,,,,,,,44557,2020-11-17_15h35.31.286,lingCatScenes,2020.1.3,MacIntel,60,"[1440,900]",,,"[""trial_ahead_box""]",,,,,,,,,,,,pasture9.jpg,space,1.12888,[-0.002734375],[-0.29702256944444444],[1],[0],[0],[0.8624249999993481],"[""trial_ahead_box""]",0,41,41,77,1,parkinggarage2.jpg,playroom6.jpg,park8.jpg,mallindoor6.jpg,,
Image_List_3,,,,,,,,,,,,,,,,44557,2020-11-17_15h35.31.286,lingCatScenes,2020.1.3,MacIntel,60,"[1440,900]",,,"[""trial_ahead_box""]",,,,,,,,,,,,ballroom4.jpg,space,0.852605,[-0.002734375],[-0.29702256944444444],[1],[0],[0],[0.6795099999872036],"[""trial_ahead_box""]",0,42,42,10,1,backstage2.jpg,barbershop3.jpg,basketballcourt3.jpg,ATM4.jpg,,
Image_List_3,,,,,,,,,,,,,,,,44557,2020-11-17_15h35.31.286,lingCatScenes,2020.1.3,MacIntel,60,"[1440,900]",,,"[""trial_right_box"",""trial_slight_right_box""]",,,,,,,,,,,,aquarium1.jpg,space,3.117885,"[0.40163194444444444,0.2421701388888889,0.20424913194444444]","[-0.30322048611111113,-0.3026953125,-0.29291232638888887]","[1,1,1]","[0,0,0]","[0,0,0]","[1.6441600000252947,2.2604500000015832,2.8766750000067987]","[""trial_right_box"",""trial_slight_right_box""]",0,43,43,3,1,apartmentBuilding2.jpg,attic1.jpg,appleorchard2.jpg,alley3.jpg,,
Image_List_3,,,,,,,,,,,,,,,,44557,2020-11-17_15h35.31.286,lingCatScenes,2020.1.3,MacIntel,60,"[1440,900]",,,"[""trial_ahead_box""]",,,,,,,,,,,,flowershop3.jpg,space,1.391555,[-0.02193576388888889],[-0.3064366319444444],[1],[0],[0],[1.1091350000351667],"[""trial_ahead_box""]",0,44,44,49,1,frontDoor3.jpg,greenhouse5.jpg,greenhouse.jpg,farm2.jpg,,
Image_List_3,,,,,,,,,,,,,,,,44557,2020-11-17_15h35.31.286,lingCatScenes,2020.1.3,MacIntel,60,"[1440,900]",,,"[""trial_slight_right_box"",""trial_ahead_box"",""trial_slight_left_box"",""trial_sharp_left_box"",""trial_left_box"",""trial_right_box"",""trial_sharp_right_box""]",,,,,,,,,,,,citystreet10.jpg,space,6.545615,"[0.1805859375,-0.009800347222222222,-0.17666666666666667,-0.4403255208333333,-0.42543836805555557,-0.591015625,-0.40750868055555556,0.4156076388888889,0.3941796875,0.5757682291666667]","[-0.3142534722222222,-0.29919270833333333,-0.30049913194444444,-0.29620225694444446,-0.30280381944444446,-0.2929644097222222,-0.2899609375,-0.35225260416666665,-0.2994878472222222,-0.28920572916666665]","[1,1,1,1,1,1,1,1,1,1]","[0,0,0,0,0,0,0,0,0,0]","[0,0,0,0,0,0,0,0,0,0]","[1.2100299999583513,1.9273449999745935,2.5465599999879487,3.1939849999616854,3.626949999947101,4.046294999949168,4.612419999961276,5.37751500000013,5.727199999964796,6.227284999971744]","[""trial_slight_right_box"",""trial_ahead_box"",""trial_slight_left_box"",""trial_sharp_left_box"",""trial_left_box"",""trial_right_box"",""trial_sharp_right_box""]",0,45,45,28,1,churchInside1.jpg,dancestudio5.jpg,clothingstore5.jpg,bridalboutique2.jpg,,
Image_List_3,,,,,,,,,,,,,,,,44557,2020-11-17_15h35.31.286,lingCatScenes,2020.1.3,MacIntel,60,"[1440,900]",,,"[""trial_sharp_left_box"",""trial_slight_left_box"",""trial_left_box"",""trial_ahead_box"",""trial_slight_right_box"",""trial_right_box"",""trial_sharp_right_box""]",,,,,,,,,,,,playground9.jpg,space,6.400235,"[-0.6016623263888888,-0.552578125,-0.5842404513888889,-0.3728472222222222,-0.2034548611111111,-0.41768663194444444,-0.01744357638888889,0.2129079861111111,0.40307291666666667,0.6013715277777778]","[-0.2721657986111111,-0.2880512152777778,-0.2880512152777778,-0.2893576388888889,-0.30127604166666666,-0.3075043402777778,-0.29641493055555557,-0.2926171875,-0.29791666666666666,-0.30354600694444445]","[1,1,1,1,1,1,1,1,1,1]","[0,0,0,0,0,0,0,0,0,0]","[0,0,0,0,0,0,0,0,0,0]","[1.528310000023339,2.1953649999923073,2.56177500000922,2.995360000000801,3.4286250000004657,3.947120000026189,4.580535000015516,5.095490000036079,5.59539000003133,6.11216499999864]","[""trial_sharp_left_box"",""trial_slight_left_box"",""trial_left_box"",""trial_ahead_box"",""trial_slight_right_box"",""trial_right_box"",""trial_sharp_right_box""]",0,46,46,79,1,pasture.jpg,poolhall2.jpeg,pier2.jpg,observatory2.jpg,,
Image_List_3,,,,,,,,,,,,,,,,44557,2020-11-17_15h35.31.286,lingCatScenes,2020.1.3,MacIntel,60,"[1440,900]",,,"[""trial_sharp_left_box"",""trial_left_box"",""trial_slight_left_box"",""trial_ahead_box"",""trial_slight_right_box"",""trial_right_box"",""trial_sharp_right_box""]",,,,,,,,,,,,constructionSite2.jpg,space,6.2123,"[-0.5929296875,-0.5976171875,-0.41061631944444443,-0.20992621527777777,0.020555555555555556,0.20037326388888888,0.4005034722222222,0.5681119791666667,0.6061371527777778]","[-0.2742361111111111,-0.29345486111111113,-0.3085590277777778,-0.3028472222222222,-0.3122743055555556,-0.3231076388888889,-0.3099088541666667,-0.3099088541666667,-0.30135850694444444]","[1,1,1,1,1,1,1,1,1]","[0,0,0,0,0,0,0,0,0]","[0,0,0,0,0,0,0,0,0]","[1.4615650000050664,1.977580000006128,2.6432999999960884,3.2765249999938533,3.810089999984484,4.310484999965411,4.794264999974985,5.276794999954291,5.693499999993946]","[""trial_sharp_left_box"",""trial_left_box"",""trial_slight_left_box"",""trial_ahead_box"",""trial_slight_right_box"",""trial_right_box"",""trial_sharp_right_box""]",0,47,47,32,1,dancestudio6.jpg,diner12.jpg,dentist4.jpg,cabin4.jpg,,
Image_List_3,,,,,,,,,,,,,,,,44557,2020-11-17_15h35.31.286,lingCatScenes,2020.1.3,MacIntel,60,"[1440,900]",,,"[""trial_left_box"",""trial_sharp_left_box""]",,,,,,,,,,,,balconyIN.jpg,space,4.94769,"[-0.4347916666666667,-0.4079991319444444,-0.5794097222222222]","[-0.30583333333333335,-0.30646701388888886,-0.2951302083333333]","[1,1,1]","[0,0,0]","[0,0,0]","[3.0773300000000745,3.544285000010859,4.110734999994747]","[""trial_left_box"",""trial_sharp_left_box""]",0,48,48,8,1,attic3.jpg,banquetHall6.jpg,bar.jpg,applestore4.jpg,,
Image_List_3,,,,,,,,,,,,,,,,44557,2020-11-17_15h35.31.286,lingCatScenes,2020.1.3,MacIntel,60,"[1440,900]",,,"[""trial_ahead_box""]",,,,,,,,,,,,parkinggarage3.jpg,space,3.297585,[-0.006015625],[-0.2999175347222222],[1],[0],[0],[1.7436450000386685],"[""trial_ahead_box""]",0,49,49,76,1,parkinggarage.jpg,playroom4.jpg,park2.jpg,lookout4.jpg,,
Image_List_3,,,,,,,,,,,,,,,,44557,2020-11-17_15h35.31.286,lingCatScenes,2020.1.3,MacIntel,60,"[1440,900]",,,"[""trial_ahead_box""]",,,,,,,,,,,,savanna.jpg,space,1.80091,[0.00042100694444444444],[-0.28051649305555554],[1],[0],[0],[1.510454999981448],"[""trial_ahead_box""]",0,50,50,87,1,restaurantkitchen2.jpg,theater2.jpg,sculpturegarden2.jpg,RVinside2.jpg,,
Image_List_3,,,,,,,,,,,,,,,,44557,2020-11-17_15h35.31.286,lingCatScenes,2020.1.3,MacIntel,60,"[1440,900]",,,"[""trial_ahead_box"",""trial_slight_right_box"",""trial_slight_left_box"",""trial_left_box"",""trial_right_box""]",,,,,,,,,,,,ShowJumping7.jpg,space,4.731315,"[0.00042100694444444444,0.21123697916666667,-0.2026345486111111,-0.40629340277777776,0.41479166666666667]","[-0.28051649305555554,-0.2902734375,-0.2946701388888889,-0.2999435763888889,-0.3017708333333333]","[1,1,1,1,1]","[0,0,0,0,0]","[0,0,0,0,0]","[1.362310000055004,2.426850000047125,3.043920000025537,3.827060000039637,4.477185000025202]","[""trial_ahead_box"",""trial_slight_right_box"",""trial_slight_left_box"",""trial_left_box"",""trial_right_box""]",0,51,51,89,1,ruralroad7.jpg,track5.jpg,staircase7.jpg,sculpturegarden3.jpg,,
Image_List_3,,,,,,,,,,,,,,,,44557,2020-11-17_15h35.31.286,lingCatScenes,2020.1.3,MacIntel,60,"[1440,900]",,,"[""trial_ahead_box""]",,,,,,,,,,,,beach2.jpg,space,1.64842,[-0.0033506944444444443],[-0.3148871527777778],[1],[0],[0],[1.243949999974575],"[""trial_ahead_box""]",0,52,52,13,1,balconyIN2.jpg,bowlingalley3.jpg,boardwalk4.jpg,backyard6.jpg,,
Image_List_3,,,,,,,,,,,,,,,,44557,2020-11-17_15h35.31.286,lingCatScenes,2020.1.3,MacIntel,60,"[1440,900]",,,"[""trial_ahead_box""]",,,,,,,,,,,,churchInside4.jpg,space,1.093685,[-0.0033506944444444443],[-0.3148871527777778],[1],[0],[0],[0.6438850000267848],"[""trial_ahead_box""]",0,53,53,27,1,castle3.jpg,courtroom3.jpg,closet.jpg,brewery2.jpg,,
Image_List_3,,,,,,,,,,,,,,,,44557,2020-11-17_15h35.31.286,lingCatScenes,2020.1.3,MacIntel,60,"[1440,900]",,,"[""trial_ahead_box""]",,,,,,,,,,,,ruralroad3.jpg,space,1.0587,[-0.0036414930555555554],[-0.3148871527777778],[1],[0],[0],[0.8106850000331178],"[""trial_ahead_box""]",0,54,54,86,1,restaurant14.jpg,stripmall.jpg,sandDunes_desert_outdoor8.jpg,rooftop4.jpg,,
Image_List_3,,,,,,,,,,,,,,,,44557,2020-11-17_15h35.31.286,lingCatScenes,2020.1.3,MacIntel,60,"[1440,900]",,,"[""trial_slight_left_box""]",,,,,,,,,,,,promenadeDeck2.jpg,space,2.27649,[-0.19262152777777777],[-0.2922092013888889],[1],[0],[0],[1.5923750000074506],"[""trial_slight_left_box""]",0,55,55,81,1,promenadeDeck.jpg,ruralroad5.jpg,rainforest5.jpg,pasture8.jpg,,
Image_List_3,,,,,,,,,,,,,,,,44557,2020-11-17_15h35.31.286,lingCatScenes,2020.1.3,MacIntel,60,"[1440,900]",,,[],,,,,,,,,,,,bambooforest5.jpg,space,3.60038,[],[],[],[],[],[],[],0,56,56,12,1,baggageClaim4.jpg,bedroom6.jpg,bleachers7.jpg,backyard5.jpg,,
Image_List_3,,,,,,,,,,,,,,,,44557,2020-11-17_15h35.31.286,lingCatScenes,2020.1.3,MacIntel,60,"[1440,900]",,,"[""trial_slight_right_box"",""trial_right_box"",""trial_slight_left_box"",""trial_left_box"",""trial_sharp_left_box"",""trial_sharp_right_box""]",,,,,,,,,,,,elevatorOutside1.jpg,space,7.29555,"[0.22210069444444444,0.4123654513888889,0.6265581597222222,-0.19750868055555557,-0.35943576388888887,-0.4152517361111111,-0.5938541666666667,0.5813020833333333]","[-0.3066796875,-0.3077256944444444,-0.3150130208333333,-0.2929557291666667,-0.2972222222222222,-0.29976128472222224,-0.29430989583333333,-0.3085112847222222]","[1,1,1,1,1,1,1,1]","[0,0,0,0,0,0,0,0]","[0,0,0,0,0,0,0,0]","[2.627474999986589,3.1931900000199676,3.827415000007022,5.01235999999335,5.4440750000067055,5.827389999991283,6.411194999993313,7.061089999973774]","[""trial_slight_right_box"",""trial_right_box"",""trial_slight_left_box"",""trial_left_box"",""trial_sharp_left_box"",""trial_sharp_right_box""]",0,57,57,44,1,firestation2.jpg,frontFoyer4.jpg,foodcourt6.jpg,dock2.jpg,,
Image_List_3,,,,,,,,,,,,,,,,44557,2020-11-17_15h35.31.286,lingCatScenes,2020.1.3,MacIntel,60,"[1440,900]",,,"[""trial_sharp_left_box"",""trial_left_box"",""trial_right_box"",""trial_sharp_right_box"",""trial_slight_right_box"",""trial_slight_left_box"",""trial_ahead_box""]",,,,,,,,,,,,dinosaur4.jpg,space,8.765725,"[-0.6018142361111111,-0.41290364583333333,0.3988064236111111,0.5944444444444444,0.20005208333333332,0.20005208333333332,0.17128038194444445,0.1944487847222222,-0.17944878472222223,0.024557291666666668]","[-0.3244140625,-0.2952126736111111,-0.2874479166666667,-0.2982986111111111,-0.30801215277777777,-0.30801215277777777,-0.32427951388888887,-0.30364583333333334,-0.3065277777777778,-0.2993793402777778]","[1,1,1,1,1,1,1,1,1,1]","[0,0,0,0,0,0,0,0,0,0]","[0,0,0,0,0,0,0,0,0,0]","[2.12769999995362,3.0442349999793805,4.177869999955874,4.727669999992941,5.695049999980256,6.2928399999509566,6.842629999970086,7.2427199999801815,7.859579999989364,8.509609999950044]","[""trial_sharp_left_box"",""trial_left_box"",""trial_right_box"",""trial_sharp_right_box"",""trial_slight_right_box"",""trial_slight_right_box"",""trial_slight_right_box"",""trial_slight_left_box"",""trial_ahead_box""]",0,58,58,37,1,dining_car.jpg,driveway4.jpg,driveway7.jpg,citystreet9.jpg,,
Image_List_3,,,,,,,,,,,,,,,,44557,2020-11-17_15h35.31.286,lingCatScenes,2020.1.3,MacIntel,60,"[1440,900]",,,"[""trial_sharp_left_box"",""trial_sharp_right_box"",""trial_ahead_box""]",,,,,,,,,,,,stripmall6.jpg,space,4.56148,"[-0.6032378472222222,0.5890060763888889,0.013307291666666667]","[-0.3094618055555556,-0.3019661458333333,-0.3010026041666667]","[1,1,1]","[0,0,0]","[0,0,0]","[2.527074999990873,3.5621699999901466,4.295615000010002]","[""trial_sharp_left_box"",""trial_sharp_right_box"",""trial_ahead_box""]",0,59,59,95,1,waitingroom2.jpg,warehouse2.jpg,weightroom4.jpg,tvstudio3.jpg,,
Image_List_3,,,,,,,,,,,,,,,,44557,2020-11-17_15h35.31.286,lingCatScenes,2020.1.3,MacIntel,60,"[1440,900]",,,"[""trial_slight_left_box"",""trial_left_box"",""trial_ahead_box""]",,,,,,,,,,,,nursery.jpg,space,5.244245,"[-0.205546875,-0.4038715277777778,0.028072916666666666,0.021085069444444444]","[-0.3037890625,-0.29506510416666665,-0.2869140625,-0.2890277777777778]","[1,1,1,1]","[0,0,0,0]","[0,0,0,0]","[1.476139999984298,3.960499999986496,4.610415000002831,4.977335000003222]","[""trial_slight_left_box"",""trial_left_box"",""trial_ahead_box""]",0,60,60,73,1,musicStore3.jpg,photographer_studio2.jpg,nursery4.jpg,library_aisle9.jpg,,
Image_List_3,,,,,,,,,,,,,,,,44557,2020-11-17_15h35.31.286,lingCatScenes,2020.1.3,MacIntel,60,"[1440,900]",,,"[""trial_ahead_box"",""trial_left_box"",""trial_right_box""]",,,,,,,,,,,,campusquad3.jpg,space,3.082505,"[0.017313368055555556,-0.37755208333333334,0.38655815972222224]","[-0.28844618055555554,-0.2802604166666667,-0.2982986111111111]","[1,1,1]","[0,0,0]","[0,0,0]","[0.9615699999849312,1.9788200000184588,2.8608099999837577]","[""trial_ahead_box"",""trial_left_box"",""trial_right_box""]",0,61,61,21,1,botanicalGarden6.jpg,cemetery6.jpg,cave5.jpg,beach1.jpeg,,
Image_List_3,,,,,,,,,,,,,,,,44557,2020-11-17_15h35.31.286,lingCatScenes,2020.1.3,MacIntel,60,"[1440,900]",,,"[""trial_sharp_right_box"",""trial_right_box""]",,,,,,,,,,,,lightingstore4.jpg,space,3.01723,"[0.6003645833333333,0.3796788194444444]","[-0.30141493055555557,-0.3059765625]","[1,1]","[0,0]","[0,0]","[1.844039999996312,2.4774299999698997]","[""trial_sharp_right_box"",""trial_right_box""]",0,62,62,68,1,liquorstore7.jpg,parkinglot.jpg,lockerroom2.jpg,hospitalroom3.jpg,,
Image_List_3,,,,,,,,,,,,,,,,44557,2020-11-17_15h35.31.286,lingCatScenes,2020.1.3,MacIntel,60,"[1440,900]",,,"[""trial_ahead_box""]",,,,,,,,,,,,metroInside3.jpg,space,1.464085,[-0.008033854166666667],[-0.2909027777777778],[1],[0],[0],[0.9778100000112318],"[""trial_ahead_box""]",0,63,63,71,1,metroInside2.jpg,pavilion5.jpg,museum3.jpg,jewelrystore.jpg,,
Image_List_3,,,,,,,,,,,,,,,,44557,2020-11-17_15h35.31.286,lingCatScenes,2020.1.3,MacIntel,60,"[1440,900]",,,"[""trial_slight_left_box"",""trial_slight_right_box"",""trial_ahead_box""]",,,,,,,,,,,,livingroom.jpg,space,2.913355,"[-0.20299479166666667,0.19700520833333332,0.01963107638888889]","[-0.30921875,-0.3039322916666667,-0.30638020833333335]","[1,1,1]","[0,0,0]","[0,0,0]","[1.3276000000187196,2.0437800000072457,2.594359999988228]","[""trial_slight_left_box"",""trial_slight_right_box"",""trial_ahead_box""]",0,64,64,69,1,liquorstore8.jpg,parkinglot2.jpg,metroInside1.jpg,icecream2.jpg,,
Image_List_3,,,,,,,,,,,,,,,,44557,2020-11-17_15h35.31.286,lingCatScenes,2020.1.3,MacIntel,60,"[1440,900]",,,"[""trial_ahead_box"",""trial_slight_right_box"",""trial_slight_left_box""]",,,,,,,,,,,,sidewalk1.jpg,space,3.45107,"[0.008519965277777777,0.2461545138888889,0.18557725694444444,-0.17770833333333333]","[-0.3027300347222222,-0.2953472222222222,-0.30311631944444445,-0.291796875]","[1,1,1,1]","[0,0,0,0]","[0,0,0,0]","[0.8432499999762513,1.9101049999590032,2.328879999986384,2.926934999995865]","[""trial_ahead_box"",""trial_slight_right_box"",""trial_slight_left_box""]",0,65,65,90,1,savanna5.jpg,trainStation1.jpg,stripmall3.jpg,shoestore4.jpg,,
Image_List_3,,,,,,,,,,,,,,,,44557,2020-11-17_15h35.31.286,lingCatScenes,2020.1.3,MacIntel,60,"[1440,900]",,,"[""trial_right_box"",""trial_slight_left_box"",""trial_ahead_box""]",,,,,,,,,,,,windmill2.jpg,space,4.07901,"[0.40203125,-0.20126302083333333,0.06342881944444445,0.0227734375]","[-0.28399739583333333,-0.3054079861111111,-0.3082725694444444,-0.3082725694444444]","[1,1,1,1]","[0,0,0,0]","[0,0,0,0]","[2.109534999995958,2.8759000000427477,3.4426950000342913,3.759875000047032]","[""trial_right_box"",""trial_slight_left_box"",""trial_ahead_box""]",0,66,66,99,1,wineVineyard9.jpg,yogastudio4.jpg,wrestlingring7.jpg,yogastudio1.jpg,,
Image_List_3,,,,,,,,,,,,,,,,44557,2020-11-17_15h35.31.286,lingCatScenes,2020.1.3,MacIntel,60,"[1440,900]",,,"[""trial_right_box"",""trial_slight_left_box"",""trial_slight_right_box"",""trial_ahead_box""]",,,,,,,,,,,,applestore1.jpg,space,6.86802,"[0.3957204861111111,-0.1993315972222222,0.19694010416666666,-0.008272569444444445]","[-0.3105121527777778,-0.30922743055555557,-0.2959375,-0.2997222222222222]","[1,1,1,1]","[0,0,0,0]","[0,0,0,0]","[3.027829999977257,4.828754999965895,6.061489999992773,6.563204999954905]","[""trial_right_box"",""trial_slight_left_box"",""trial_slight_right_box"",""trial_ahead_box""]",0,67,67,1,1,airportTerminal4.jpg,apartmentBuilding1.jpg,airportTerminal3.jpg,airportTerminal2.jpg,,
Image_List_3,,,,,,,,,,,,,,,,44557,2020-11-17_15h35.31.286,lingCatScenes,2020.1.3,MacIntel,60,"[1440,900]",,,"[""trial_right_box"",""trial_ahead_box""]",,,,,,,,,,,,drycleaners6.jpg,space,2.968655,"[0.40315104166666665,-0.00040364583333333333]","[-0.2995138888888889,-0.2986197916666667]","[1,1]","[0,0]","[0,0]","[1.6119349999935366,2.61207499995362]","[""trial_right_box"",""trial_ahead_box""]",0,68,68,39,1,driveway6.jpg,eyeglassstore9.jpg,drymountains5.jpg,cliff5.jpg,,
Image_List_3,,,,,,,,,,,,,,,,44557,2020-11-17_15h35.31.286,lingCatScenes,2020.1.3,MacIntel,60,"[1440,900]",,,"[""trial_right_box"",""trial_sharp_right_box"",""trial_sharp_left_box"",""trial_left_box""]",,,,,,,,,,,,clothingstore2.jpg,space,5.924345,"[0.40858506944444445,0.6073958333333334,-0.6105078125,-0.38436197916666665,-0.3869401041666667]","[-0.29852864583333333,-0.3019140625,-0.30390625,-0.2719965277777778,-0.2840407986111111]","[1,1,1,1,1]","[0,0,0,0,0]","[0,0,0,0,0]","[1.3787349999765866,2.1116150000016205,4.329139999987092,4.912535000010394,5.4457149999798276]","[""trial_right_box"",""trial_sharp_right_box"",""trial_sharp_left_box"",""trial_left_box""]",0,69,69,30,1,courthouse1.jpg,desertvegetation3.jpg,copyroom2.jpg,bus_shelter3.jpg,,
Image_List_3,,,,,,,,,,,,,,,,44557,2020-11-17_15h35.31.286,lingCatScenes,2020.1.3,MacIntel,60,"[1440,900]",,,"[""trial_left_box"",""trial_right_box"",""trial_ahead_box""]",,,,,,,,,,,,applestore6.jpg,space,4.612925,"[-0.3620138888888889,-0.3949001736111111,0.4068880208333333,0.004609375,0.004609375]","[-0.304296875,-0.28997395833333334,-0.3034027777777778,-0.3395529513888889,-0.3195920138888889]","[1,1,1,1,1]","[0,0,0,0,0]","[0,0,0,0,0]","[1.5095500000170432,2.0119500000146218,2.726370000047609,3.8267800000030547,4.242810000025202]","[""trial_left_box"",""trial_right_box"",""trial_ahead_box""]",0,70,70,2,1,alley1.jpg,arcade1.jpg,apartmentBuilding4.jpg,airportTerminal6.jpg,,
Image_List_3,,,,,,,,,,,,,,,,44557,2020-11-17_15h35.31.286,lingCatScenes,2020.1.3,MacIntel,60,"[1440,900]",,,"[""trial_slight_right_box"",""trial_right_box"",""trial_left_box""]",,,,,,,,,,,,promenadeDeck3.jpg,space,3.49798,"[0.21257378472222221,0.38394965277777776,-0.38621527777777775]","[-0.30062065972222224,-0.30602430555555554,-0.30831163194444444]","[1,1,1]","[0,0,0]","[0,0,0]","[1.2439850000082515,1.9438799999770708,3.179324999975506]","[""trial_slight_right_box"",""trial_right_box"",""trial_left_box""]",0,71,71,82,1,publicrestroom2.jpg,sandDunes_desert_outdoor9.jpg,readingroom4.jpg,postoffice4.jpg,,
Image_List_3,,,,,,,,,,,,,,,,44557,2020-11-17_15h35.31.286,lingCatScenes,2020.1.3,MacIntel,60,"[1440,900]",,,"[""trial_slight_left_box"",""trial_slight_right_box"",""trial_right_box"",""trial_sharp_right_box""]",,,,,,,,,,,,musicStore1.jpg,space,4.44701,"[-0.19936197916666668,0.18497829861111112,0.41629340277777777,0.5643402777777777,0.5930642361111111]","[-0.3107682291666667,-0.2960286458333333,-0.2905512152777778,-0.3030598958333333,-0.3010894097222222]","[1,1,1,1,1]","[0,0,0,0,0]","[0,0,0,0,0]","[1.5639150000060908,2.5116350000025705,3.195400000025984,3.730665000039153,4.128360000031535]","[""trial_slight_left_box"",""trial_slight_right_box"",""trial_right_box"",""trial_sharp_right_box""]",0,72,72,72,1,museum5.jpg,pharmacy4.jpg,museum4.jpg,kindergarten_classroom.jpg,,
Image_List_3,,,,,,,,,,,,,,,,44557,2020-11-17_15h35.31.286,lingCatScenes,2020.1.3,MacIntel,60,"[1440,900]",,,"[""trial_ahead_box""]",,,,,,,,,,,,conference4.jpg,space,2.22743,[0.0023394097222222223],[-0.3057769097222222],[1],[0],[0],[1.9600050000008196],"[""trial_ahead_box""]",0,73,73,31,1,cubicle4.jpg,desertvegetation6.jpg,courtroom2.jpg,cabin3.jpg,,
Image_List_3,,,,,,,,,,,,,,,,44557,2020-11-17_15h35.31.286,lingCatScenes,2020.1.3,MacIntel,60,"[1440,900]",,,"[""trial_ahead_box""]",,,,,,,,,,,,bistrooutdoor5.jpg,space,1.212015,[0.0023394097222222223],[-0.3057769097222222],[1],[0],[0],[0.8443550000083633],"[""trial_ahead_box""]",0,74,74,14,1,ballroom1.jpg,breakroom5.jpg,botanicalGarden5.jpg,ballroom3.jpg,,
Image_List_3,,,,,,,,,,,,,,,,44557,2020-11-17_15h35.31.286,lingCatScenes,2020.1.3,MacIntel,60,"[1440,900]",,,"[""trial_ahead_box""]",,,,,,,,,,,,pier5.jpg,space,1.028025,[0.0023394097222222223],[-0.3057769097222222],[1],[0],[0],[0.7789199999533594],"[""trial_ahead_box""]",0,75,75,78,1,parkinglot3.jpg,poolhall1.jpg,pavilion3.jpg,observatory1.jpg,,
Image_List_3,,,,,,,,,,,,,,,,44557,2020-11-17_15h35.31.286,lingCatScenes,2020.1.3,MacIntel,60,"[1440,900]",,,"[""trial_ahead_box""]",,,,,,,,,,,,operatingroom4.jpg,space,2.19655,[0.0023394097222222223],[-0.3057769097222222],[1],[0],[0],[1.6275699999532662],"[""trial_ahead_box""]",0,76,76,75,1,pantry5.jpg,playground6.jpg,park.jpg,lockerroom.jpg,,
Image_List_3,,,,,,,,,,,,,,,,44557,2020-11-17_15h35.31.286,lingCatScenes,2020.1.3,MacIntel,60,"[1440,900]",,,"[""trial_ahead_box""]",,,,,,,,,,,,restaurant13.jpg,space,1.44603,[0.0023394097222222223],[-0.3057769097222222],[1],[0],[0],[1.19409500004258],"[""trial_ahead_box""]",0,77,77,84,1,readingroom5.jpg,sidewalk2.jpg,sandDunes_desert_outdoor.jpg,rooftop2.jpg,,
Image_List_3,,,,,,,,,,,,,,,,44557,2020-11-17_15h35.31.286,lingCatScenes,2020.1.3,MacIntel,60,"[1440,900]",,,"[""trial_slight_left_box""]",,,,,,,,,,,,cliff2.jpg,space,1.81751,[-0.19953559027777779],[-0.29821180555555554],[1],[0],[0],[1.512715000018943],"[""trial_slight_left_box""]",0,78,78,29,1,cornfield2.jpg,deck2.jpg,constructionSite4.jpg,bridalboutique3.jpg,,
Image_List_3,,,,,,,,,,,,,,,,44557,2020-11-17_15h35.31.286,lingCatScenes,2020.1.3,MacIntel,60,"[1440,900]",,,"[""trial_ahead_box""]",,,,,,,,,,,,observatory4.jpeg,space,2.3471,[-0.007039930555555555],[-0.30151041666666667],[1],[0],[0],[2.0763349999906495],"[""trial_ahead_box""]",0,79,79,74,1,newsstand2.jpg,playground10.jpg,operatingroom1.jpg,lightingstore2.jpg,,
Image_List_3,,,,,,,,,,,,,,,,44557,2020-11-17_15h35.31.286,lingCatScenes,2020.1.3,MacIntel,60,"[1440,900]",,,"[""trial_slight_left_box"",""trial_left_box"",""trial_sharp_left_box""]",,,,,,,,,,,,laundromat4.jpg,space,3.18648,"[-0.20629340277777777,-0.4168706597222222,-0.6124392361111111]","[-0.28716579861111113,-0.3075,-0.31817274305555554]","[1,1,1]","[0,0,0]","[0,0,0]","[0.9785999999730848,1.4783649999881163,2.9283399999840185]","[""trial_slight_left_box"",""trial_left_box"",""trial_sharp_left_box""]",0,80,80,67,1,library_aisle3.jpg,park7.jpg,liquorstore2.jpg,hospitalroom2.jpg,,
Image_List_3,,,,,,,,,,,,,,,,44557,2020-11-17_15h35.31.286,lingCatScenes,2020.1.3,MacIntel,60,"[1440,900]",,,"[""trial_ahead_box"",""trial_left_box"",""trial_right_box""]",,,,,,,,,,,,dock1.jpg,space,3.361395,"[0.021267361111111112,-0.41218315972222225,0.4243967013888889]","[-0.2967578125,-0.3148914930555556,-0.3128342013888889]","[1,1,1]","[0,0,0]","[0,0,0]","[1.261240000021644,2.1762000000453554,2.926605000044219]","[""trial_ahead_box"",""trial_left_box"",""trial_right_box""]",0,81,81,38,1,dining_car2.jpg,elevatorOutside4.jpg,driveway8.jpg,classroom1.jpg,,
Image_List_3,,,,,,,,,,,,,,,,44557,2020-11-17_15h35.31.286,lingCatScenes,2020.1.3,MacIntel,60,"[1440,900]",,,"[""trial_ahead_box""]",,,,,,,,,,,,gazebo5.jpg,space,1.493425,[-0.0196484375],[-0.31100260416666664],[1],[0],[0],[1.1598600000143051],"[""trial_ahead_box""]",0,82,82,55,1,greenmountains.jpg,hotelRoom3.jpg,hotelRoom7.jpg,frontLawn2.jpg,,
Image_List_3,,,,,,,,,,,,,,,,44557,2020-11-17_15h35.31.286,lingCatScenes,2020.1.3,MacIntel,60,"[1440,900]",,,"[""trial_slight_left_box"",""trial_left_box"",""trial_right_box""]",,,,,,,,,,,,firestation4.jpg,space,3.125965,"[-0.19908854166666667,-0.40264756944444446,0.394765625]","[-0.29921440972222224,-0.29680121527777775,-0.27698350694444446]","[1,1,1]","[0,0,0]","[0,0,0]","[1.112410000001546,1.8124100000131875,2.6770699999760836]","[""trial_slight_left_box"",""trial_left_box"",""trial_right_box""]",0,83,83,47,1,frontDoor.jpg,gasstation8.jpg,fountain7.jpg,elevatorOutside2.jpg,,
Image_List_3,,,,,,,,,,,,,,,,44557,2020-11-17_15h35.31.286,lingCatScenes,2020.1.3,MacIntel,60,"[1440,900]",,,"[""trial_slight_left_box"",""trial_left_box""]",,,,,,,,,,,,lockerroom3.jpg,space,2.225795,"[-0.22071614583333332,-0.40891927083333335]","[-0.3182552083333333,-0.30008680555555556]","[1,1]","[0,0]","[0,0]","[1.360709999979008,1.7962200000183657]","[""trial_slight_left_box"",""trial_left_box""]",0,84,84,70,1,lockerroom4.jpg,pavilion.jpg,minigolf8.jpg,igloo.jpg,,
Image_List_3,,,,,,,,,,,,,,,,44557,2020-11-17_15h35.31.286,lingCatScenes,2020.1.3,MacIntel,60,"[1440,900]",,,"[""trial_ahead_box"",""trial_slight_left_box"",""trial_left_box"",""trial_sharp_left_box""]",,,,,,,,,,,,waitingroom4.jpg,space,4.53145,"[-0.016888020833333333,-0.20567274305555555,-0.41250868055555556,-0.6013845486111111]","[-0.2990842013888889,-0.29898871527777776,-0.30330729166666665,-0.30330729166666665]","[1,1,1,1]","[0,0,0,0]","[0,0,0,0]","[1.1958749999757856,1.99584499996854,3.1787899999762885,3.7607049999642186]","[""trial_ahead_box"",""trial_slight_left_box"",""trial_left_box"",""trial_sharp_left_box""]",0,85,85,97,1,warehouseoutside4.jpg,wineVineyard2.jpg,winebarrel3.jpg,warehouseoutside3.jpg,,
Image_List_3,,,,,,,,,,,,,,,,44557,2020-11-17_15h35.31.286,lingCatScenes,2020.1.3,MacIntel,60,"[1440,900]",,,"[""trial_slight_right_box"",""trial_ahead_box""]",,,,,,,,,,,,courthouse2.jpg,space,4.077015,"[0.18096788194444444,-0.003953993055555555]","[-0.2971050347222222,-0.3085590277777778]","[1,1]","[0,0]","[0,0]","[1.7940500000258908,2.9608050000388175]","[""trial_slight_right_box"",""trial_ahead_box""]",0,86,86,33,1,deck1.jpg,diningroom1.jpg,diner10.jpg,cabinIndoors5.jpg,,
Image_List_3,,,,,,,,,,,,,,,,44557,2020-11-17_15h35.31.286,lingCatScenes,2020.1.3,MacIntel,60,"[1440,900]",,,"[""trial_sharp_left_box"",""trial_ahead_box""]",,,,,,,,,,,,fittingroom5.jpg,space,3.664415,"[-0.5996701388888889,-0.024856770833333333]","[-0.28774305555555557,-0.3171440972222222]","[1,1]","[0,0]","[0,0]","[1.9267950000357814,3.2967350000399165]","[""trial_sharp_left_box"",""trial_ahead_box""]",0,87,87,48,1,frontDoor2.jpg,golfcourse6.jpg,golfcourse7.jpg,fabricstore2.jpg,,
Image_List_3,,,,,,,,,,,,,,,,44557,2020-11-17_15h35.31.286,lingCatScenes,2020.1.3,MacIntel,60,"[1440,900]",,,"[""trial_ahead_box"",""trial_left_box"",""trial_right_box""]",,,,,,,,,,,,carmechanic4.jpeg,space,3.914205,"[-0.02082465277777778,-0.4188454861111111,0.37649739583333336]","[-0.3219444444444444,-0.31504774305555555,-0.3123697916666667]","[1,1,1]","[0,0,0]","[0,0,0]","[1.6122200000099838,2.8305449999752454,3.5627450000029057]","[""trial_ahead_box"",""trial_left_box"",""trial_right_box""]",0,88,88,23,1,bus_shelter.jpg,church8.jpg,cemetery3.jpg,bleachers6.jpg,,
Image_List_3,,,,,,,,,,,,,,,,44557,2020-11-17_15h35.31.286,lingCatScenes,2020.1.3,MacIntel,60,"[1440,900]",,,"[""trial_ahead_box""]",,,,,,,,,,,,church3.jpg,space,2.34323,"[0.0323046875,0.014696180555555556]","[-0.31151475694444447,-0.31081163194444444]","[1,1]","[0,0]","[0,0]","[1.0439600000390783,1.494620000012219]","[""trial_ahead_box""]",0,89,89,25,1,campsite7.jpg,conference3.jpg,checkoutcounter2.jpg,botanicalGarden4.jpg,,
Image_List_3,,,,,,,,,,,,,,,,44557,2020-11-17_15h35.31.286,lingCatScenes,2020.1.3,MacIntel,60,"[1440,900]",,,"[""trial_ahead_box""]",,,,,,,,,,,,breakroom2.jpg,space,1.9791,[-0.022625868055555557],[-0.3087109375],[1],[0],[0],[1.4777149999863468],"[""trial_ahead_box""]",0,90,90,16,1,basement.jpg,cafeteria6.jpg,campusquad4.jpg,barbershop2.jpg,,
Image_List_3,,,,,,,,,,,,,,,,44557,2020-11-17_15h35.31.286,lingCatScenes,2020.1.3,MacIntel,60,"[1440,900]",,,"[""trial_ahead_box"",""trial_left_box"",""trial_right_box"",""trial_slight_right_box"",""trial_slight_left_box""]",,,,,,,,,,,,warehouse3.jpg,space,5.411955,"[0.010364583333333333,-0.3832769097222222,0.42084201388888887,0.19834635416666666,-0.19897569444444443]","[-0.3054470486111111,-0.2894965277777778,-0.2946484375,-0.2888454861111111,-0.2939496527777778]","[1,1,1,1,1]","[0,0,0,0,0]","[0,0,0,0,0]","[1.626604999997653,3.2767300000414252,4.109995000006165,4.593220000038855,5.176770000020042]","[""trial_ahead_box"",""trial_left_box"",""trial_right_box"",""trial_slight_right_box"",""trial_slight_left_box""]",0,91,91,98,1,weightroom5.jpg,wineVineyard8.jpg,winebarrel4.jpg,winebarrel2.jpg,,
Image_List_3,,,,,,,,,,,,,,,,44557,2020-11-17_15h35.31.286,lingCatScenes,2020.1.3,MacIntel,60,"[1440,900]",,,"[""trial_ahead_box"",""trial_right_box""]",,,,,,,,,,,,brewery4.jpg,space,20.112065,"[0.008472222222222223,0.39458333333333334]","[-0.3005772569444444,-0.30776475694444444]","[1,1]","[0,0]","[0,0]","[18.945455000037327,19.89530500001274]","[""trial_ahead_box"",""trial_right_box""]",0,92,92,18,1,bleachers5.jpg,casino1.jpg,castle2.jpg,basement6.jpg,,
Image_List_3,,,,,,,,,,,,,,,,44557,2020-11-17_15h35.31.286,lingCatScenes,2020.1.3,MacIntel,60,"[1440,900]",,,"[""trial_right_box"",""trial_ahead_box"",""trial_left_box""]",,,,,,,,,,,,frontFoyer6.jpg,space,4.452625,"[0.4048567708333333,0.005434027777777778,-0.3518880208333333,-0.3933376736111111]","[-0.28390190972222223,-0.29879774305555556,-0.2988411458333333,-0.2952387152777778]","[1,1,1,1]","[0,0,0,0]","[0,0,0,0]","[1.2938349999603815,2.3935700000147335,3.6277899999986403,4.24566999997478]","[""trial_right_box"",""trial_ahead_box"",""trial_left_box""]",0,93,93,52,1,gasstation7.jpg,hardwarestore1.jpg,highway.jpg,forestpath2.jpg,,
Image_List_3,,,,,,,,,,,,,,,,44557,2020-11-17_15h35.31.286,lingCatScenes,2020.1.3,MacIntel,60,"[1440,900]",,,"[""trial_ahead_box""]",,,,,,,,,,,,backstage1.jpg,space,1.91402,[0.013428819444444445],[-0.28528211805555553],[1],[0],[0],[1.2099500000476837],"[""trial_ahead_box""]",0,94,94,7,1,attic2.jpg,banquetHall4.jpg,baggageClaim3.jpg,applestore2.jpg,,
Image_List_3,,,,,,,,,,,,,,,,44557,2020-11-17_15h35.31.286,lingCatScenes,2020.1.3,MacIntel,60,"[1440,900]",,,"[""trial_ahead_box""]",,,,,,,,,,,,tenniscourt3.jpg,space,1.09425,[0.0028776041666666668],[-0.2815668402777778],[1],[0],[0],[0.7934499999973923],"[""trial_ahead_box""]",0,95,95,96,1,warehouse4.jpg,warehouseoutside1.jpg,windmill1.jpg,warehouse1.jpg,,
Image_List_3,,,,,,,,,,,,,,,,44557,2020-11-17_15h35.31.286,lingCatScenes,2020.1.3,MacIntel,60,"[1440,900]",,,"[""trial_ahead_box""]",,,,,,,,,,,,cargo5.jpg,space,1.310655,[0.0009201388888888889],[-0.29701822916666665],[1],[0],[0],[0.7597800000221469],"[""trial_ahead_box""]",0,96,96,22,1,bowlingalley5.jpg,church6.jpg,cemetery.jpg,bistrooutdoor6.jpg,,
Image_List_3,,,,,,,,,,,,,,,,44557,2020-11-17_15h35.31.286,lingCatScenes,2020.1.3,MacIntel,60,"[1440,900]",,,"[""trial_ahead_box""]",,,,,,,,,,,,highway4.jpg,space,1.526345,[-0.0004166666666666667],[-0.3046050347222222],[1],[0],[0],[1.3098050000262447],"[""trial_ahead_box""]",0,97,97,59,1,homegarden7.jpg,library_aisle8.jpg,kindergarten_classroom5.jpg,grocerystore3.jpg,,
Image_List_3,,,,,,,,,,,,,,,,44557,2020-11-17_15h35.31.286,lingCatScenes,2020.1.3,MacIntel,60,"[1440,900]",,,"[""trial_ahead_box"",""trial_right_box"",""trial_left_box""]",,,,,,,,,,,,breakroom4.jpg,space,2.952715,"[-0.0004166666666666667,0.40697916666666667,-0.3964453125]","[-0.3046050347222222,-0.3191232638888889,-0.30582465277777776]","[1,1,1]","[0,0,0]","[0,0,0]","[1.111574999988079,2.1120200000004843,2.7775000000256114]","[""trial_ahead_box"",""trial_right_box"",""trial_left_box""]",0,98,98,17,1,bikerack1.jpg,campsite6.jpg,carmechanic.jpg,baseball6.jpg,,
Image_List_3,,,,,,,,,,,,,,,,44557,2020-11-17_15h35.31.286,lingCatScenes,2020.1.3,MacIntel,60,"[1440,900]",,,"[""trial_ahead_box""]",,,,,,,,,,,,drymountains6.jpg,space,1.081405,[0.007352430555555556],[-0.302421875],[1],[0],[0],[0.8947649999754503],"[""trial_ahead_box""]",0,99,99,42,1,exerciseequipment3.jpg,firestation3.jpg,farm4.jpg,desertvegetation2.jpg,,
Image_List_3,,,,,,,,,,,,,,,,44557,2020-11-17_15h35.31.286,lingCatScenes,2020.1.3,MacIntel,60,,,,,,,,,,,,,,,,,,,,,,,,,,,,,,,,,,,space,18.777675
