image_list,key_resp_intructions.keys,key_resp_intructions.rt,key_resp_intructions_3.keys,key_resp_intructions_3.rt,PracticeComplete_2.keys,PracticeComplete_2.rt,PracticeComplete_3.keys,PracticeComplete_3.rt,demo_trials.thisRepN,demo_trials.thisTrialN,demo_trials.thisN,demo_trials.thisIndex,demo_trials.ran,demo_images,path_images,participant,date,expName,psychopyVersion,OS,frameRate,windowSize,practice_complete.keys,practice_complete.rt,boxes_checked,PracticeComplete.keys,PracticeComplete.rt,practice_trials.thisRepN,practice_trials.thisTrialN,practice_trials.thisN,practice_trials.thisIndex,practice_trials.ran,practice_images,feedback_images,key_resp_intructions_2.keys,key_resp_intructions_2.rt,Image_List_2,trial_complete.keys,trial_complete.rt,trial_mouse.x,trial_mouse.y,trial_mouse.leftButton,trial_mouse.midButton,trial_mouse.rightButton,trial_mouse.time,trial_mouse.clicked_name,trials.thisRepN,trials.thisTrialN,trials.thisN,trials.thisIndex,trials.ran,Image_List_1,Image_List_3,Image_List_4,Image_List_5,key_resp.keys,key_resp.rt
Image_List_2,space,1.13766,space,0.2315,space,0.16604,space,0.21476,0,0,0,2,1,ahead_right.jpg,ahead_right_path.jpg,44551,2020-11-24_21h09.14.554,lingCatScenes,2020.1.3,MacIntel,60,,,,,,,,,,,,,,,,,,,,,,,,,,,,,,,,,,,,
Image_List_2,,,,,space,0.22896,space,0.20552,0,1,1,6,1,right_left.jpg,right_left_path.jpg,44551,2020-11-24_21h09.14.554,lingCatScenes,2020.1.3,MacIntel,60,,,,,,,,,,,,,,,,,,,,,,,,,,,,,,,,,,,,
Image_List_2,,,,,space,0.32161,space,0.136295,0,2,2,3,1,ahead_right_left.jpg,ahead_right_left_path.jpg,44551,2020-11-24_21h09.14.554,lingCatScenes,2020.1.3,MacIntel,60,,,,,,,,,,,,,,,,,,,,,,,,,,,,,,,,,,,,
Image_List_2,,,,,space,0.141905,space,0.28768,0,3,3,4,1,left.jpg,left_path.jpg,44551,2020-11-24_21h09.14.554,lingCatScenes,2020.1.3,MacIntel,60,,,,,,,,,,,,,,,,,,,,,,,,,,,,,,,,,,,,
Image_List_2,,,,,space,0.000585,space,0.000535,0,4,4,1,1,ahead_left.jpg,ahead_left_path.jpg,44551,2020-11-24_21h09.14.554,lingCatScenes,2020.1.3,MacIntel,60,,,,,,,,,,,,,,,,,,,,,,,,,,,,,,,,,,,,
Image_List_2,,,,,space,0.03497,space,0.11108,0,5,5,0,1,ahead.jpg,ahead_path.jpg,44551,2020-11-24_21h09.14.554,lingCatScenes,2020.1.3,MacIntel,60,,,,,,,,,,,,,,,,,,,,,,,,,,,,,,,,,,,,
Image_List_2,,,,,space,0.150195,space,0.096285,0,6,6,5,1,right.jpg,right_path.jpg,44551,2020-11-24_21h09.14.554,lingCatScenes,2020.1.3,MacIntel,60,,,,,,,,,,,,,,,,,,,,,,,,,,,,,,,,,,,,
Image_List_2,,,,,,,,,,,,,,,,44551,2020-11-24_21h09.14.554,lingCatScenes,2020.1.3,MacIntel,60,"[1440,900]",space,0.093875,[],space,0.127995,0,0,0,3,1,ahead_right_left_2.jpg,ahead_right_left_2_path.jpg,,,,,,,,,,,,,,,,,,,,,,,
Image_List_2,,,,,,,,,,,,,,,,44551,2020-11-24_21h09.14.554,lingCatScenes,2020.1.3,MacIntel,60,"[1440,900]",space,0.141535,[],space,0.12782,0,1,1,1,1,ahead_left_2.jpg,ahead_left_2_path.jpg,,,,,,,,,,,,,,,,,,,,,,,
Image_List_2,,,,,,,,,,,,,,,,44551,2020-11-24_21h09.14.554,lingCatScenes,2020.1.3,MacIntel,60,"[1440,900]",space,0.120655,[],space,0.15625,0,2,2,5,1,right_2.jpg,right_2_path.jpg,,,,,,,,,,,,,,,,,,,,,,,
Image_List_2,,,,,,,,,,,,,,,,44551,2020-11-24_21h09.14.554,lingCatScenes,2020.1.3,MacIntel,60,"[1440,900]",space,0.1158,[],space,0.147765,0,3,3,6,1,right_left_2.jpg,right_left_2_path.jpg,,,,,,,,,,,,,,,,,,,,,,,
Image_List_2,,,,,,,,,,,,,,,,44551,2020-11-24_21h09.14.554,lingCatScenes,2020.1.3,MacIntel,60,"[1440,900]",space,0.135985,[],space,0.17274,0,4,4,2,1,ahead_right_2.jpg,ahead_right_2_path.jpg,,,,,,,,,,,,,,,,,,,,,,,
Image_List_2,,,,,,,,,,,,,,,,44551,2020-11-24_21h09.14.554,lingCatScenes,2020.1.3,MacIntel,60,"[1440,900]",space,0.14781,[],space,0.139395,0,5,5,0,1,ahead_2.jpg,ahead_2_path.jpg,,,,,,,,,,,,,,,,,,,,,,,
Image_List_2,,,,,,,,,,,,,,,,44551,2020-11-24_21h09.14.554,lingCatScenes,2020.1.3,MacIntel,60,"[1440,900]",space,0.06171,[],space,0.06439,0,6,6,4,1,left_2.jpg,left_2_path.jpg,,,,,,,,,,,,,,,,,,,,,,,
Image_List_2,,,,,,,,,,,,,,,,44551,2020-11-24_21h09.14.554,lingCatScenes,2020.1.3,MacIntel,60,"[1440,900]",,,[],,,,,,,,,,space,0.213515,basketballcourt4.jpg,space,0.17899,[],[],[],[],[],[],[],0,0,0,11,1,backyard2.jpg,bambooforest3.jpg,baywindow5.jpg,backyard1.jpg,,
Image_List_2,,,,,,,,,,,,,,,,44551,2020-11-24_21h09.14.554,lingCatScenes,2020.1.3,MacIntel,60,"[1440,900]",,,[],,,,,,,,,,,,racecarcourse2.jpg,space,0.662625,[],[],[],[],[],[],[],0,1,1,80,1,pavilion2.jpg,porch.jpg,poolhall5.jpg,parkinggarage4.jpg,,
Image_List_2,,,,,,,,,,,,,,,,44551,2020-11-24_21h09.14.554,lingCatScenes,2020.1.3,MacIntel,60,"[1440,900]",,,[],,,,,,,,,,,,pharmacy4.jpg,space,0.14054,[],[],[],[],[],[],[],0,2,2,72,1,museum5.jpg,musicStore1.jpg,museum4.jpg,kindergarten_classroom.jpg,,
Image_List_2,,,,,,,,,,,,,,,,44551,2020-11-24_21h09.14.554,lingCatScenes,2020.1.3,MacIntel,60,"[1440,900]",,,[],,,,,,,,,,,,deck2.jpg,space,0.120795,[],[],[],[],[],[],[],0,3,3,29,1,cornfield2.jpg,cliff2.jpg,constructionSite4.jpg,bridalboutique3.jpg,,
Image_List_2,,,,,,,,,,,,,,,,44551,2020-11-24_21h09.14.554,lingCatScenes,2020.1.3,MacIntel,60,"[1440,900]",,,[],,,,,,,,,,,,bambooforest.jpg,space,0.121715,[],[],[],[],[],[],[],0,4,4,5,1,artStudio3.jpg,auto_showroom4.jpg,attic4.jpg,amusement3.jpg,,
Image_List_2,,,,,,,,,,,,,,,,44551,2020-11-24_21h09.14.554,lingCatScenes,2020.1.3,MacIntel,60,"[1440,900]",,,[],,,,,,,,,,,,attic1.jpg,space,0.145475,[],[],[],[],[],[],[],0,5,5,3,1,apartmentBuilding2.jpg,aquarium1.jpg,appleorchard2.jpg,alley3.jpg,,
Image_List_2,,,,,,,,,,,,,,,,44551,2020-11-24_21h09.14.554,lingCatScenes,2020.1.3,MacIntel,60,"[1440,900]",,,[],,,,,,,,,,,,dormroom9.jpg,space,0.087745,[],[],[],[],[],[],[],0,6,6,36,1,diner14.jpg,dining_car3.jpg,doctor1.jpg,checkoutcounter9.jpg,,
Image_List_2,,,,,,,,,,,,,,,,44551,2020-11-24_21h09.14.554,lingCatScenes,2020.1.3,MacIntel,60,"[1440,900]",,,[],,,,,,,,,,,,hallway5.jpg,space,0.108365,[],[],[],[],[],[],[],0,7,7,51,1,gasstation6.jpg,frontDoor5.jpg,hayfield4.jpg,firestation5.jpg,,
Image_List_2,,,,,,,,,,,,,,,,44551,2020-11-24_21h09.14.554,lingCatScenes,2020.1.3,MacIntel,60,"[1440,900]",,,[],,,,,,,,,,,,dancestudio5.jpg,space,0.1701,[],[],[],[],[],[],[],0,8,8,28,1,churchInside1.jpg,citystreet10.jpg,clothingstore5.jpg,bridalboutique2.jpg,,
Image_List_2,,,,,,,,,,,,,,,,44551,2020-11-24_21h09.14.554,lingCatScenes,2020.1.3,MacIntel,60,"[1440,900]",,,"[""trial_slight_left_box"",""trial_left_box""]",,,,,,,,,,,,church8.jpg,space,3.847025,"[-0.2176953125,-0.38244791666666667]","[-0.3144878472222222,-0.2945052083333333]","[1,1]","[0,0]","[0,0]","[1.5146550000063144,1.8970599999884143]","[""trial_slight_left_box"",""trial_left_box""]",0,9,9,23,1,bus_shelter.jpg,carmechanic4.jpeg,cemetery3.jpg,bleachers6.jpg,,
Image_List_2,,,,,,,,,,,,,,,,44551,2020-11-24_21h09.14.554,lingCatScenes,2020.1.3,MacIntel,60,"[1440,900]",,,"[""trial_ahead_box"",""trial_slight_right_box"",""trial_slight_left_box""]",,,,,,,,,,,,firestation3.jpg,space,2.84293,"[-0.0071571180555555555,0.1860373263888889,-0.18686197916666666]","[-0.28280381944444444,-0.31731770833333334,-0.30148003472222223]","[1,1,1]","[0,0,0]","[0,0,0]","[1.0286900000064634,1.643595000001369,2.3795399999944493]","[""trial_ahead_box"",""trial_slight_right_box"",""trial_slight_left_box""]",0,10,10,42,1,exerciseequipment3.jpg,drymountains6.jpg,farm4.jpg,desertvegetation2.jpg,,
Image_List_2,,,,,,,,,,,,,,,,44551,2020-11-24_21h09.14.554,lingCatScenes,2020.1.3,MacIntel,60,"[1440,900]",,,"[""trial_ahead_box"",""trial_sharp_left_box"",""trial_sharp_right_box""]",,,,,,,,,,,,apartmentBuilding1.jpg,space,4.4263,"[0.002092013888888889,-0.6152387152777777,0.6280338541666667,0.5939713541666667]","[-0.29135850694444443,-0.295625,-0.3014453125,-0.29344184027777775]","[1,1,1,1]","[0,0,0,0]","[0,0,0,0]","[1.2262249999912456,2.3272799999976996,3.076934999990044,3.6430949999776203]","[""trial_ahead_box"",""trial_sharp_left_box"",""trial_sharp_right_box""]",0,11,11,1,1,airportTerminal4.jpg,applestore1.jpg,airportTerminal3.jpg,airportTerminal2.jpg,,
Image_List_2,,,,,,,,,,,,,,,,44551,2020-11-24_21h09.14.554,lingCatScenes,2020.1.3,MacIntel,60,"[1440,900]",,,[],,,,,,,,,,,,pavilion5.jpg,space,0.39587,[],[],[],[],[],[],[],0,12,12,71,1,metroInside2.jpg,metroInside3.jpg,museum3.jpg,jewelrystore.jpg,,
Image_List_2,,,,,,,,,,,,,,,,44551,2020-11-24_21h09.14.554,lingCatScenes,2020.1.3,MacIntel,60,"[1440,900]",,,[],,,,,,,,,,,,cave.jpg,space,0.21538,[],[],[],[],[],[],[],0,13,13,20,1,boardwalk6.jpg,campsite3.jpg,cave4.jpg,basketballcourt7.jpg,,
Image_List_2,,,,,,,,,,,,,,,,44551,2020-11-24_21h09.14.554,lingCatScenes,2020.1.3,MacIntel,60,"[1440,900]",,,[],,,,,,,,,,,,banquetHall2.jpg,space,0.140955,[],[],[],[],[],[],[],0,14,14,6,1,ATM1.jpg,auto_showroom5.jpg,baggageClaim1.jpg,apartmentBuilding3.jpg,,
Image_List_2,,,,,,,,,,,,,,,,44551,2020-11-24_21h09.14.554,lingCatScenes,2020.1.3,MacIntel,60,"[1440,900]",,,[],,,,,,,,,,,,warehouseoutside1.jpg,space,0.14501,[],[],[],[],[],[],[],0,15,15,96,1,warehouse4.jpg,tenniscourt3.jpg,windmill1.jpg,warehouse1.jpg,,
Image_List_2,,,,,,,,,,,,,,,,44551,2020-11-24_21h09.14.554,lingCatScenes,2020.1.3,MacIntel,60,"[1440,900]",,,[],,,,,,,,,,,,dock3.jpg,space,0.128455,[],[],[],[],[],[],[],0,16,16,35,1,deck5.jpg,cubicle7.jpg,dining_car6.jpg,carmechanic2.jpg,,
Image_List_2,,,,,,,,,,,,,,,,44551,2020-11-24_21h09.14.554,lingCatScenes,2020.1.3,MacIntel,60,"[1440,900]",,,[],,,,,,,,,,,,arcade1.jpg,space,0.14342,[],[],[],[],[],[],[],0,17,17,2,1,alley1.jpg,applestore6.jpg,apartmentBuilding4.jpg,airportTerminal6.jpg,,
Image_List_2,,,,,,,,,,,,,,,,44551,2020-11-24_21h09.14.554,lingCatScenes,2020.1.3,MacIntel,60,"[1440,900]",,,[],,,,,,,,,,,,horsebarn11.jpg,space,0.127745,[],[],[],[],[],[],[],0,18,18,54,1,greenhouse2.jpg,gazebo2.jpg,homegarage4.jpg,frontFoyer.jpg,,
Image_List_2,,,,,,,,,,,,,,,,44551,2020-11-24_21h09.14.554,lingCatScenes,2020.1.3,MacIntel,60,"[1440,900]",,,[],,,,,,,,,,,,courtroom3.jpg,space,0.128955,[],[],[],[],[],[],[],0,19,19,27,1,castle3.jpg,churchInside4.jpg,closet.jpg,brewery2.jpg,,
Image_List_2,,,,,,,,,,,,,,,,44551,2020-11-24_21h09.14.554,lingCatScenes,2020.1.3,MacIntel,60,"[1440,900]",,,[],,,,,,,,,,,,track.jpg,space,0.12679,[],[],[],[],[],[],[],0,20,20,88,1,rooftop1.jpg,sculpturegarden4.jpg,soccerfield.jpg,sandbox.jpg,,
Image_List_2,,,,,,,,,,,,,,,,44551,2020-11-24_21h09.14.554,lingCatScenes,2020.1.3,MacIntel,60,"[1440,900]",,,[],,,,,,,,,,,,cafeteria5.jpg,space,0.145885,[],[],[],[],[],[],[],0,21,21,15,1,bambooforest4.jpg,bleachers8.jpg,cabinIndoors.jpg,bar8.jpg,,
Image_List_2,,,,,,,,,,,,,,,,44551,2020-11-24_21h09.14.554,lingCatScenes,2020.1.3,MacIntel,60,"[1440,900]",,,[],,,,,,,,,,,,eyeglassstore9.jpg,space,0.16267,[],[],[],[],[],[],[],0,22,22,39,1,driveway6.jpg,drycleaners6.jpg,drymountains5.jpg,cliff5.jpg,,
Image_List_2,,,,,,,,,,,,,,,,44551,2020-11-24_21h09.14.554,lingCatScenes,2020.1.3,MacIntel,60,"[1440,900]",,,[],,,,,,,,,,,,museum6.jpg,space,0.177105,[],[],[],[],[],[],[],0,23,23,63,1,hut2.jpg,hotelRoom2.jpg,lab4.jpg,highway2.jpg,,
Image_List_2,,,,,,,,,,,,,,,,44551,2020-11-24_21h09.14.554,lingCatScenes,2020.1.3,MacIntel,60,"[1440,900]",,,[],,,,,,,,,,,,desertvegetation6.jpg,space,0.176605,[],[],[],[],[],[],[],0,24,24,31,1,cubicle4.jpg,conference4.jpg,courtroom2.jpg,cabin3.jpg,,
Image_List_2,,,,,,,,,,,,,,,,44551,2020-11-24_21h09.14.554,lingCatScenes,2020.1.3,MacIntel,60,"[1440,900]",,,[],,,,,,,,,,,,diningroom1.jpg,space,0.186645,[],[],[],[],[],[],[],0,25,25,33,1,deck1.jpg,courthouse2.jpg,diner10.jpg,cabinIndoors5.jpg,,
Image_List_2,,,,,,,,,,,,,,,,44551,2020-11-24_21h09.14.554,lingCatScenes,2020.1.3,MacIntel,60,"[1440,900]",,,[],,,,,,,,,,,,homeoffice.jpg,space,0.152215,[],[],[],[],[],[],[],0,26,26,53,1,gazebo3.jpg,frontLawn3.jpg,homegarage3.jpg,fountain.jpg,,
Image_List_2,,,,,,,,,,,,,,,,44551,2020-11-24_21h09.14.554,lingCatScenes,2020.1.3,MacIntel,60,"[1440,900]",,,[],,,,,,,,,,,,bar2.jpg,space,0.120545,[],[],[],[],[],[],[],0,27,27,9,1,auto_showroom3.jpg,ballroom2.jpg,basement5.jpg,arcade2.jpg,,
Image_List_2,,,,,,,,,,,,,,,,44551,2020-11-24_21h09.14.554,lingCatScenes,2020.1.3,MacIntel,60,"[1440,900]",,,[],,,,,,,,,,,,poolhall2.jpeg,space,0.15717,[],[],[],[],[],[],[],0,28,28,79,1,pasture.jpg,playground9.jpg,pier2.jpg,observatory2.jpg,,
Image_List_2,,,,,,,,,,,,,,,,44551,2020-11-24_21h09.14.554,lingCatScenes,2020.1.3,MacIntel,60,"[1440,900]",,,[],,,,,,,,,,,,playroom6.jpg,space,0.180515,[],[],[],[],[],[],[],0,29,29,77,1,parkinggarage2.jpg,pasture9.jpg,park8.jpg,mallindoor6.jpg,,
Image_List_2,,,,,,,,,,,,,,,,44551,2020-11-24_21h09.14.554,lingCatScenes,2020.1.3,MacIntel,60,"[1440,900]",,,[],,,,,,,,,,,,bedroom6.jpg,space,0.12914,[],[],[],[],[],[],[],0,30,30,12,1,baggageClaim4.jpg,bambooforest5.jpg,bleachers7.jpg,backyard5.jpg,,
Image_List_2,,,,,,,,,,,,,,,,44551,2020-11-24_21h09.14.554,lingCatScenes,2020.1.3,MacIntel,60,"[1440,900]",,,[],,,,,,,,,,,,sidewalk5.jpg,space,0.126635,[],[],[],[],[],[],[],0,31,31,85,1,recordingstudio4.jpg,ruralroad2.jpg,sandDunes_desert_outdoor3.jpg,rooftop3.jpg,,
Image_List_2,,,,,,,,,,,,,,,,44551,2020-11-24_21h09.14.554,lingCatScenes,2020.1.3,MacIntel,60,"[1440,900]",,,[],,,,,,,,,,,,conference3.jpg,space,0.126495,[],[],[],[],[],[],[],0,32,32,25,1,campsite7.jpg,church3.jpg,checkoutcounter2.jpg,botanicalGarden4.jpg,,
Image_List_2,,,,,,,,,,,,,,,,44551,2020-11-24_21h09.14.554,lingCatScenes,2020.1.3,MacIntel,60,"[1440,900]",,,[],,,,,,,,,,,,library_aisle8.jpg,space,0.127925,[],[],[],[],[],[],[],0,33,33,59,1,homegarden7.jpg,highway4.jpg,kindergarten_classroom5.jpg,grocerystore3.jpg,,
Image_List_2,,,,,,,,,,,,,,,,44551,2020-11-24_21h09.14.554,lingCatScenes,2020.1.3,MacIntel,60,"[1440,900]",,,[],,,,,,,,,,,,breakroom5.jpg,space,0.14994,[],[],[],[],[],[],[],0,34,34,14,1,ballroom1.jpg,bistrooutdoor5.jpg,botanicalGarden5.jpg,ballroom3.jpg,,
Image_List_2,,,,,,,,,,,,,,,,44551,2020-11-24_21h09.14.554,lingCatScenes,2020.1.3,MacIntel,60,"[1440,900]",,,[],,,,,,,,,,,,gasstation8.jpg,space,0.13137,[],[],[],[],[],[],[],0,35,35,47,1,frontDoor.jpg,firestation4.jpg,fountain7.jpg,elevatorOutside2.jpg,,
Image_List_2,,,,,,,,,,,,,,,,44551,2020-11-24_21h09.14.554,lingCatScenes,2020.1.3,MacIntel,60,"[1440,900]",,,[],,,,,,,,,,,,cemetery6.jpg,space,0.13149,[],[],[],[],[],[],[],0,36,36,21,1,botanicalGarden6.jpg,campusquad3.jpg,cave5.jpg,beach1.jpeg,,
Image_List_2,,,,,,,,,,,,,,,,44551,2020-11-24_21h09.14.554,lingCatScenes,2020.1.3,MacIntel,60,"[1440,900]",,,[],,,,,,,,,,,,hut3.jpg,space,0.12909,[],[],[],[],[],[],[],0,37,37,56,1,grocerystore5.jpg,golfcourse10.jpg,hut1.jpg,gasstation2.jpg,,
Image_List_2,,,,,,,,,,,,,,,,44551,2020-11-24_21h09.14.554,lingCatScenes,2020.1.3,MacIntel,60,"[1440,900]",,,[],,,,,,,,,,,,diningroom5.jpg,space,0.14287,[],[],[],[],[],[],[],0,38,38,34,1,deck4.jpg,courthouse4.jpg,diner11.jpg,campusquad1.jpg,,
Image_List_2,,,,,,,,,,,,,,,,44551,2020-11-24_21h09.14.554,lingCatScenes,2020.1.3,MacIntel,60,"[1440,900]",,,[],,,,,,,,,,,,wineVineyard2.jpg,space,0.12929,[],[],[],[],[],[],[],0,39,39,97,1,warehouseoutside4.jpg,waitingroom4.jpg,winebarrel3.jpg,warehouseoutside3.jpg,,
Image_List_2,,,,,,,,,,,,,,,,44551,2020-11-24_21h09.14.554,lingCatScenes,2020.1.3,MacIntel,60,"[1440,900]",,,[],,,,,,,,,,,,banquetHall6.jpg,space,0.110505,[],[],[],[],[],[],[],0,40,40,8,1,attic3.jpg,balconyIN.jpg,bar.jpg,applestore4.jpg,,
Image_List_2,,,,,,,,,,,,,,,,44551,2020-11-24_21h09.14.554,lingCatScenes,2020.1.3,MacIntel,60,"[1440,900]",,,[],,,,,,,,,,,,church6.jpg,space,0.114145,[],[],[],[],[],[],[],0,41,41,22,1,bowlingalley5.jpg,cargo5.jpg,cemetery.jpg,bistrooutdoor6.jpg,,
Image_List_2,,,,,,,,,,,,,,,,44551,2020-11-24_21h09.14.554,lingCatScenes,2020.1.3,MacIntel,60,"[1440,900]",,,[],,,,,,,,,,,,driveway4.jpg,space,0.14599,[],[],[],[],[],[],[],0,42,42,37,1,dining_car.jpg,dinosaur4.jpg,driveway7.jpg,citystreet9.jpg,,
Image_List_2,,,,,,,,,,,,,,,,44551,2020-11-24_21h09.14.554,lingCatScenes,2020.1.3,MacIntel,60,"[1440,900]",,,[],,,,,,,,,,,,sidewalk2.jpg,space,0.131455,[],[],[],[],[],[],[],0,43,43,84,1,readingroom5.jpg,restaurant13.jpg,sandDunes_desert_outdoor.jpg,rooftop2.jpg,,
Image_List_2,,,,,,,,,,,,,,,,44551,2020-11-24_21h09.14.554,lingCatScenes,2020.1.3,MacIntel,60,"[1440,900]",,,[],,,,,,,,,,,,playroom4.jpg,space,0.14115,[],[],[],[],[],[],[],0,44,44,76,1,parkinggarage.jpg,parkinggarage3.jpg,park2.jpg,lookout4.jpg,,
Image_List_2,,,,,,,,,,,,,,,,44551,2020-11-24_21h09.14.554,lingCatScenes,2020.1.3,MacIntel,60,"[1440,900]",,,[],,,,,,,,,,,,casino3.jpg,space,0.123035,[],[],[],[],[],[],[],0,45,45,19,1,boardwalk2.jpg,cafeteria1.jpg,castle4.jpg,basketballcourt.jpg,,
Image_List_2,,,,,,,,,,,,,,,,44551,2020-11-24_21h09.14.554,lingCatScenes,2020.1.3,MacIntel,60,"[1440,900]",,,[],,,,,,,,,,,,hardwarestore1.jpg,space,0.147175,[],[],[],[],[],[],[],0,46,46,52,1,gasstation7.jpg,frontFoyer6.jpg,highway.jpg,forestpath2.jpg,,
Image_List_2,,,,,,,,,,,,,,,,44551,2020-11-24_21h09.14.554,lingCatScenes,2020.1.3,MacIntel,60,"[1440,900]",,,[],,,,,,,,,,,,pavilion.jpg,space,0.13174,[],[],[],[],[],[],[],0,47,47,70,1,lockerroom4.jpg,lockerroom3.jpg,minigolf8.jpg,igloo.jpg,,
Image_List_2,,,,,,,,,,,,,,,,44551,2020-11-24_21h09.14.554,lingCatScenes,2020.1.3,MacIntel,60,"[1440,900]",,,[],,,,,,,,,,,,minigolf.jpg,space,0.1485,[],[],[],[],[],[],[],0,48,48,62,1,hotellobby2.jpg,horsebarn8.jpg,lab3.jpg,hayfield7.jpg,,
Image_List_2,,,,,,,,,,,,,,,,44551,2020-11-24_21h09.14.554,lingCatScenes,2020.1.3,MacIntel,60,"[1440,900]",,,[],,,,,,,,,,,,photographer_studio2.jpg,space,0.106875,[],[],[],[],[],[],[],0,49,49,73,1,musicStore3.jpg,nursery.jpg,nursery4.jpg,library_aisle9.jpg,,
Image_List_2,,,,,,,,,,,,,,,,44551,2020-11-24_21h09.14.554,lingCatScenes,2020.1.3,MacIntel,60,"[1440,900]",,,[],,,,,,,,,,,,sandDunes_desert_outdoor9.jpg,space,0.14762,[],[],[],[],[],[],[],0,50,50,82,1,publicrestroom2.jpg,promenadeDeck3.jpg,readingroom4.jpg,postoffice4.jpg,,
Image_List_2,,,,,,,,,,,,,,,,44551,2020-11-24_21h09.14.554,lingCatScenes,2020.1.3,MacIntel,60,"[1440,900]",,,[],,,,,,,,,,,,office3.jpg,space,0.12976,[],[],[],[],[],[],[],0,51,51,66,1,library_aisle10.jpg,laundromat3.jpg,liquorstore.jpg,horsebarn9.jpg,,
Image_List_2,,,,,,,,,,,,,,,,44551,2020-11-24_21h09.14.554,lingCatScenes,2020.1.3,MacIntel,60,"[1440,900]",,,[],,,,,,,,,,,,barbershop3.jpg,space,0.120415,[],[],[],[],[],[],[],0,52,52,10,1,backstage2.jpg,ballroom4.jpg,basketballcourt3.jpg,ATM4.jpg,,
Image_List_2,,,,,,,,,,,,,,,,44551,2020-11-24_21h09.14.554,lingCatScenes,2020.1.3,MacIntel,60,"[1440,900]",,,[],,,,,,,,,,,,stripmall.jpg,space,0.134335,[],[],[],[],[],[],[],0,53,53,86,1,restaurant14.jpg,ruralroad3.jpg,sandDunes_desert_outdoor8.jpg,rooftop4.jpg,,
Image_List_2,,,,,,,,,,,,,,,,44551,2020-11-24_21h09.14.554,lingCatScenes,2020.1.3,MacIntel,60,"[1440,900]",,,[],,,,,,,,,,,,grocerystore6.jpg,space,0.27131,[],[],[],[],[],[],[],0,54,54,50,1,frontLawn4.jpg,forestpath6.jpg,hallway2.jpg,fireplace4.jpg,,
Image_List_2,,,,,,,,,,,,,,,,44551,2020-11-24_21h09.14.554,lingCatScenes,2020.1.3,MacIntel,60,"[1440,900]",,,[],,,,,,,,,,,,cafeteria6.jpg,space,0.253515,[],[],[],[],[],[],[],0,55,55,16,1,basement.jpg,breakroom2.jpg,campusquad4.jpg,barbershop2.jpg,,
Image_List_2,,,,,,,,,,,,,,,,44551,2020-11-24_21h09.14.554,lingCatScenes,2020.1.3,MacIntel,60,"[1440,900]",,,[],,,,,,,,,,,,track5.jpg,space,0.16925,[],[],[],[],[],[],[],0,56,56,89,1,ruralroad7.jpg,ShowJumping7.jpg,staircase7.jpg,sculpturegarden3.jpg,,
Image_List_2,,,,,,,,,,,,,,,,44551,2020-11-24_21h09.14.554,lingCatScenes,2020.1.3,MacIntel,60,"[1440,900]",,,[],,,,,,,,,,,,trainStation5.jpg,space,0.126805,[],[],[],[],[],[],[],0,57,57,91,1,shoestore2.jpg,skatepark5.jpg,ticket_counter6.jpg,sidewalk3.jpg,,
Image_List_2,,,,,,,,,,,,,,,,44551,2020-11-24_21h09.14.554,lingCatScenes,2020.1.3,MacIntel,60,"[1440,900]",,,[],,,,,,,,,,,,metroInside4.jpg,space,0.09558,[],[],[],[],[],[],[],0,58,58,61,1,HorseRaceTrack.jpg,homegarden6.jpg,kindergarten_classroom7.jpg,hayfield6.jpg,,
Image_List_2,,,,,,,,,,,,,,,,44551,2020-11-24_21h09.14.554,lingCatScenes,2020.1.3,MacIntel,60,"[1440,900]",,,[],,,,,,,,,,,,wineVineyard8.jpg,space,0.12712,[],[],[],[],[],[],[],0,59,59,98,1,weightroom5.jpg,warehouse3.jpg,winebarrel4.jpg,winebarrel2.jpg,,
Image_List_2,,,,,,,,,,,,,,,,44551,2020-11-24_21h09.14.554,lingCatScenes,2020.1.3,MacIntel,60,"[1440,900]",,,[],,,,,,,,,,,,newsstand5.jpg,space,0.10575,[],[],[],[],[],[],[],0,60,60,64,1,igloo2.jpg,jewelrystore8.jpg,lab5.jpg,homegarage2.jpg,,
Image_List_2,,,,,,,,,,,,,,,,44551,2020-11-24_21h09.14.554,lingCatScenes,2020.1.3,MacIntel,60,"[1440,900]",,,[],,,,,,,,,,,,diner12.jpg,space,0.11317,[],[],[],[],[],[],[],0,61,61,32,1,dancestudio6.jpg,constructionSite2.jpg,dentist4.jpg,cabin4.jpg,,
Image_List_2,,,,,,,,,,,,,,,,44551,2020-11-24_21h09.14.554,lingCatScenes,2020.1.3,MacIntel,60,"[1440,900]",,,[],,,,,,,,,,,,greenhouse5.jpg,space,0.10551,[],[],[],[],[],[],[],0,62,62,49,1,frontDoor3.jpg,flowershop3.jpg,greenhouse.jpg,farm2.jpg,,
Image_List_2,,,,,,,,,,,,,,,,44551,2020-11-24_21h09.14.554,lingCatScenes,2020.1.3,MacIntel,60,"[1440,900]",,,[],,,,,,,,,,,,baggageClaim2.jpg,space,0.212365,[],[],[],[],[],[],[],0,63,63,4,1,artStudio1.jpg,auto_showroom1.jpg,appleorchard3.jpg,alley4.jpg,,
Image_List_2,,,,,,,,,,,,,,,,44551,2020-11-24_21h09.14.554,lingCatScenes,2020.1.3,MacIntel,60,"[1440,900]",,,[],,,,,,,,,,,,forestpath10.jpg,space,0.122685,[],[],[],[],[],[],[],0,64,64,43,1,exerciseequipment5.jpg,dugout2.jpg,foodcourt.jpg,diningroom3.jpg,,
Image_List_2,,,,,,,,,,,,,,,,44551,2020-11-24_21h09.14.554,lingCatScenes,2020.1.3,MacIntel,60,"[1440,900]",,,[],,,,,,,,,,,,campsite6.jpg,space,0.222825,[],[],[],[],[],[],[],0,65,65,17,1,bikerack1.jpg,breakroom4.jpg,carmechanic.jpg,baseball6.jpg,,
Image_List_2,,,,,,,,,,,,,,,,44551,2020-11-24_21h09.14.554,lingCatScenes,2020.1.3,MacIntel,60,"[1440,900]",,,[],,,,,,,,,,,,golfcourse6.jpg,space,0.403435,[],[],[],[],[],[],[],0,66,66,48,1,frontDoor2.jpg,fittingroom5.jpg,golfcourse7.jpg,fabricstore2.jpg,,
Image_List_2,,,,,,,,,,,,,,,,44551,2020-11-24_21h09.14.554,lingCatScenes,2020.1.3,MacIntel,60,"[1440,900]",,,[],,,,,,,,,,,,casino1.jpg,space,0.167105,[],[],[],[],[],[],[],0,67,67,18,1,bleachers5.jpg,brewery4.jpg,castle2.jpg,basement6.jpg,,
Image_List_2,,,,,,,,,,,,,,,,44551,2020-11-24_21h09.14.554,lingCatScenes,2020.1.3,MacIntel,60,"[1440,900]",,,[],,,,,,,,,,,,lab1.jpg,space,0.155125,[],[],[],[],[],[],[],0,68,68,58,1,highway7.jpg,hedgemaze1.jpg,igloo4.jpg,grocerystore2.jpg,,
Image_List_2,,,,,,,,,,,,,,,,44551,2020-11-24_21h09.14.554,lingCatScenes,2020.1.3,MacIntel,60,"[1440,900]",,,[],,,,,,,,,,,,park7.jpg,space,0.12627,[],[],[],[],[],[],[],0,69,69,67,1,library_aisle3.jpg,laundromat4.jpg,liquorstore2.jpg,hospitalroom2.jpg,,
Image_List_2,,,,,,,,,,,,,,,,44551,2020-11-24_21h09.14.554,lingCatScenes,2020.1.3,MacIntel,60,"[1440,900]",,,[],,,,,,,,,,,,playground10.jpg,space,0.12064,[],[],[],[],[],[],[],0,70,70,74,1,newsstand2.jpg,observatory4.jpeg,operatingroom1.jpg,lightingstore2.jpg,,
Image_List_2,,,,,,,,,,,,,,,,44551,2020-11-24_21h09.14.554,lingCatScenes,2020.1.3,MacIntel,60,"[1440,900]",,,[],,,,,,,,,,,,theater2.jpg,space,0.13942,[],[],[],[],[],[],[],0,71,71,87,1,restaurantkitchen2.jpg,savanna.jpg,sculpturegarden2.jpg,RVinside2.jpg,,
Image_List_2,,,,,,,,,,,,,,,,44551,2020-11-24_21h09.14.554,lingCatScenes,2020.1.3,MacIntel,60,"[1440,900]",,,[],,,,,,,,,,,,trainStation1.jpg,space,0.131,[],[],[],[],[],[],[],0,72,72,90,1,savanna5.jpg,sidewalk1.jpg,stripmall3.jpg,shoestore4.jpg,,
Image_List_2,,,,,,,,,,,,,,,,44551,2020-11-24_21h09.14.554,lingCatScenes,2020.1.3,MacIntel,60,"[1440,900]",,,[],,,,,,,,,,,,frontFoyer7.jpg,space,0.134265,[],[],[],[],[],[],[],0,73,73,45,1,fittingroom2.jpg,factory1.jpg,forestpath4.jpg,dock4.jpg,,
Image_List_2,,,,,,,,,,,,,,,,44551,2020-11-24_21h09.14.554,lingCatScenes,2020.1.3,MacIntel,60,"[1440,900]",,,[],,,,,,,,,,,,newsstand7.jpg,space,0.11736,[],[],[],[],[],[],[],0,74,74,65,1,igloo5.jpg,laundromat2.jpeg,labClass7.jpg,homeoffice8.jpg,,
Image_List_2,,,,,,,,,,,,,,,,44551,2020-11-24_21h09.14.554,lingCatScenes,2020.1.3,MacIntel,60,"[1440,900]",,,[],,,,,,,,,,,,farm3.jpg,space,0.14536,[],[],[],[],[],[],[],0,75,75,41,1,dugout4.jpg,drymountains3.jpg,fabricstore1.jpg,dentist2.jpg,,
Image_List_2,,,,,,,,,,,,,,,,44551,2020-11-24_21h09.14.554,lingCatScenes,2020.1.3,MacIntel,60,"[1440,900]",,,[],,,,,,,,,,,,warehouse2.jpg,space,0.1133,[],[],[],[],[],[],[],0,76,76,95,1,waitingroom2.jpg,stripmall6.jpg,weightroom4.jpg,tvstudio3.jpg,,
Image_List_2,,,,,,,,,,,,,,,,44551,2020-11-24_21h09.14.554,lingCatScenes,2020.1.3,MacIntel,60,"[1440,900]",,,[],,,,,,,,,,,,bowlingalley3.jpg,space,0.24593,[],[],[],[],[],[],[],0,77,77,13,1,balconyIN2.jpg,beach2.jpg,boardwalk4.jpg,backyard6.jpg,,
Image_List_2,,,,,,,,,,,,,,,,44551,2020-11-24_21h09.14.554,lingCatScenes,2020.1.3,MacIntel,60,"[1440,900]",,,[],,,,,,,,,,,,desertvegetation3.jpg,space,0.128985,[],[],[],[],[],[],[],0,78,78,30,1,courthouse1.jpg,clothingstore2.jpg,copyroom2.jpg,bus_shelter3.jpg,,
Image_List_2,,,,,,,,,,,,,,,,44551,2020-11-24_21h09.14.554,lingCatScenes,2020.1.3,MacIntel,60,"[1440,900]",,,[],,,,,,,,,,,,hotelRoom3.jpg,space,0.13133,[],[],[],[],[],[],[],0,79,79,55,1,greenmountains.jpg,gazebo5.jpg,hotelRoom7.jpg,frontLawn2.jpg,,
Image_List_2,,,,,,,,,,,,,,,,44551,2020-11-24_21h09.14.554,lingCatScenes,2020.1.3,MacIntel,60,"[1440,900]",,,[],,,,,,,,,,,,parkinglot.jpg,space,0.148945,[],[],[],[],[],[],[],0,80,80,68,1,liquorstore7.jpg,lightingstore4.jpg,lockerroom2.jpg,hospitalroom3.jpg,,
Image_List_2,,,,,,,,,,,,,,,,44551,2020-11-24_21h09.14.554,lingCatScenes,2020.1.3,MacIntel,60,"[1440,900]",,,[],,,,,,,,,,,,yogastudio4.jpg,space,0.125475,[],[],[],[],[],[],[],0,81,81,99,1,wineVineyard9.jpg,windmill2.jpg,wrestlingring7.jpg,yogastudio1.jpg,,
Image_List_2,,,,,,,,,,,,,,,,44551,2020-11-24_21h09.14.554,lingCatScenes,2020.1.3,MacIntel,60,"[1440,900]",,,[],,,,,,,,,,,,cliff3.jpg,space,0.133235,[],[],[],[],[],[],[],0,82,82,24,1,campsite.jpg,cave6.jpg,cemetery5.jpg,boardwalk.jpg,,
Image_List_2,,,,,,,,,,,,,,,,44551,2020-11-24_21h09.14.554,lingCatScenes,2020.1.3,MacIntel,60,"[1440,900]",,,[],,,,,,,,,,,,waitingroom3.jpg,space,0.130505,[],[],[],[],[],[],[],0,83,83,94,1,treehouse.jpg,staircase6.jpg,weightroom.jpg,trainStation3.jpg,,
Image_List_2,,,,,,,,,,,,,,,,44551,2020-11-24_21h09.14.554,lingCatScenes,2020.1.3,MacIntel,60,"[1440,900]",,,[],,,,,,,,,,,,farm1.jpg,space,0.130235,[],[],[],[],[],[],[],0,84,84,40,1,drycleaners4.jpg,drymountains.jpg,dugout1.jpg,clothingstore3.jpg,,
Image_List_2,,,,,,,,,,,,,,,,44551,2020-11-24_21h09.14.554,lingCatScenes,2020.1.3,MacIntel,60,"[1440,900]",,,[],,,,,,,,,,,,ruralroad5.jpg,space,0.130245,[],[],[],[],[],[],[],0,85,85,81,1,promenadeDeck.jpg,promenadeDeck2.jpg,rainforest5.jpg,pasture8.jpg,,
Image_List_2,,,,,,,,,,,,,,,,44551,2020-11-24_21h09.14.554,lingCatScenes,2020.1.3,MacIntel,60,"[1440,900]",,,[],,,,,,,,,,,,playground6.jpg,space,0.12823,[],[],[],[],[],[],[],0,86,86,75,1,pantry5.jpg,operatingroom4.jpg,park.jpg,lockerroom.jpg,,
Image_List_2,,,,,,,,,,,,,,,,44551,2020-11-24_21h09.14.554,lingCatScenes,2020.1.3,MacIntel,60,"[1440,900]",,,[],,,,,,,,,,,,poolhall1.jpg,space,0.14533,[],[],[],[],[],[],[],0,87,87,78,1,parkinglot3.jpg,pier5.jpg,pavilion3.jpg,observatory1.jpg,,
Image_List_2,,,,,,,,,,,,,,,,44551,2020-11-24_21h09.14.554,lingCatScenes,2020.1.3,MacIntel,60,"[1440,900]",,,[],,,,,,,,,,,,sculpturegarden1.jpg,space,0.16193,[],[],[],[],[],[],[],0,88,88,83,1,readingroom1.jpg,promenadeDeck6.jpg,restaurant8.jpg,readingroom2.jpg,,
Image_List_2,,,,,,,,,,,,,,,,44551,2020-11-24_21h09.14.554,lingCatScenes,2020.1.3,MacIntel,60,"[1440,900]",,,[],,,,,,,,,,,,jail1.jpg,space,0.16174,[],[],[],[],[],[],[],0,89,89,57,1,hayfield5.jpg,hallway4.jpg,hut5.jpg,gazebo.jpg,,
Image_List_2,,,,,,,,,,,,,,,,44551,2020-11-24_21h09.14.554,lingCatScenes,2020.1.3,MacIntel,60,"[1440,900]",,,[],,,,,,,,,,,,volleyballcourt.jpg,space,0.161575,[],[],[],[],[],[],[],0,90,90,92,1,staircase.jpg,skatepark7.jpg,tvstudio2.jpg,soccerfield2.jpg,,
Image_List_2,,,,,,,,,,,,,,,,44551,2020-11-24_21h09.14.554,lingCatScenes,2020.1.3,MacIntel,60,"[1440,900]",,,[],,,,,,,,,,,,alley2.jpg,space,0.11523,[],[],[],[],[],[],[],0,91,91,0,1,airplanecabin1.jpg,appleorchard4.jpg,airplanecabin5.jpg,airplanecabin3.jpg,,
Image_List_2,,,,,,,,,,,,,,,,44551,2020-11-24_21h09.14.554,lingCatScenes,2020.1.3,MacIntel,60,"[1440,900]",,,[],,,,,,,,,,,,parkinglot2.jpg,space,0.14692,[],[],[],[],[],[],[],0,92,92,69,1,liquorstore8.jpg,livingroom.jpg,metroInside1.jpg,icecream2.jpg,,
Image_List_2,,,,,,,,,,,,,,,,44551,2020-11-24_21h09.14.554,lingCatScenes,2020.1.3,MacIntel,60,"[1440,900]",,,[],,,,,,,,,,,,frontLawn5.jpg,space,0.14549,[],[],[],[],[],[],[],0,93,93,46,1,flowershop.jpg,farmersmarket4.jpg,fountain4.jpg,dormroom6.jpg,,
Image_List_2,,,,,,,,,,,,,,,,44551,2020-11-24_21h09.14.554,lingCatScenes,2020.1.3,MacIntel,60,"[1440,900]",,,[],,,,,,,,,,,,frontFoyer4.jpg,space,0.11717,[],[],[],[],[],[],[],0,94,94,44,1,firestation2.jpg,elevatorOutside1.jpg,foodcourt6.jpg,dock2.jpg,,
Image_List_2,,,,,,,,,,,,,,,,44551,2020-11-24_21h09.14.554,lingCatScenes,2020.1.3,MacIntel,60,"[1440,900]",,,[],,,,,,,,,,,,elevatorOutside4.jpg,space,0.14759,[],[],[],[],[],[],[],0,95,95,38,1,dining_car2.jpg,dock1.jpg,driveway8.jpg,classroom1.jpg,,
Image_List_2,,,,,,,,,,,,,,,,44551,2020-11-24_21h09.14.554,lingCatScenes,2020.1.3,MacIntel,60,"[1440,900]",,,[],,,,,,,,,,,,lightingstore3.jpg,space,0.128025,[],[],[],[],[],[],[],0,96,96,60,1,hometheater2.jpg,homegarage.jpg,kindergarten_classroom6.jpg,hallway.jpg,,
Image_List_2,,,,,,,,,,,,,,,,44551,2020-11-24_21h09.14.554,lingCatScenes,2020.1.3,MacIntel,60,"[1440,900]",,,[],,,,,,,,,,,,volleyballcourt4.jpg,space,0.115,[],[],[],[],[],[],[],0,97,97,93,1,tollbooth8.jpg,staircase4.jpg,warehouseoutside2.jpg,tenniscourt.jpg,,
Image_List_2,,,,,,,,,,,,,,,,44551,2020-11-24_21h09.14.554,lingCatScenes,2020.1.3,MacIntel,60,"[1440,900]",,,[],,,,,,,,,,,,banquetHall4.jpg,space,0.114165,[],[],[],[],[],[],[],0,98,98,7,1,attic2.jpg,backstage1.jpg,baggageClaim3.jpg,applestore2.jpg,,
Image_List_2,,,,,,,,,,,,,,,,44551,2020-11-24_21h09.14.554,lingCatScenes,2020.1.3,MacIntel,60,"[1440,900]",,,[],,,,,,,,,,,,cornfield4.jpg,space,0.33944,[],[],[],[],[],[],[],0,99,99,26,1,campusquad2.jpg,church4.jpg,churchInside3.jpg,botanicalGarden7.jpg,,
Image_List_2,,,,,,,,,,,,,,,,44551,2020-11-24_21h09.14.554,lingCatScenes,2020.1.3,MacIntel,60,,,,,,,,,,,,,,,,,,,,,,,,,,,,,,,,,,,space,0.16745
