image_list,key_resp_intructions.keys,key_resp_intructions.rt,key_resp_intructions_3.keys,key_resp_intructions_3.rt,PracticeComplete_2.keys,PracticeComplete_2.rt,PracticeComplete_3.keys,PracticeComplete_3.rt,demo_trials.thisRepN,demo_trials.thisTrialN,demo_trials.thisN,demo_trials.thisIndex,demo_trials.ran,demo_images,path_images,participant,date,expName,psychopyVersion,OS,frameRate,windowSize,practice_complete.keys,practice_complete.rt,boxes_checked,PracticeComplete.keys,PracticeComplete.rt,practice_trials.thisRepN,practice_trials.thisTrialN,practice_trials.thisN,practice_trials.thisIndex,practice_trials.ran,practice_images,feedback_images,key_resp_intructions_2.keys,key_resp_intructions_2.rt,Image_List_2,trial_complete.keys,trial_complete.rt,trial_mouse.x,trial_mouse.y,trial_mouse.leftButton,trial_mouse.midButton,trial_mouse.rightButton,trial_mouse.time,trial_mouse.clicked_name,trials.thisRepN,trials.thisTrialN,trials.thisN,trials.thisIndex,trials.ran,Image_List_1,Image_List_3,Image_List_4,Image_List_5,key_resp.keys,key_resp.rt
Image_List_2,space,8.086305,space,1.924175,space,7.44553,space,9.34001,0,0,0,0,1,ahead.jpg,ahead_path.jpg,44551,2020-11-24_20h47.56.563,lingCatScenes,2020.1.3,MacIntel,60,,,,,,,,,,,,,,,,,,,,,,,,,,,,,,,,,,,,
Image_List_2,,,,,space,7.205055,space,3.957785,0,1,1,1,1,ahead_left.jpg,ahead_left_path.jpg,44551,2020-11-24_20h47.56.563,lingCatScenes,2020.1.3,MacIntel,60,,,,,,,,,,,,,,,,,,,,,,,,,,,,,,,,,,,,
Image_List_2,,,,,space,3.406065,space,5.516395,0,2,2,6,1,right_left.jpg,right_left_path.jpg,44551,2020-11-24_20h47.56.563,lingCatScenes,2020.1.3,MacIntel,60,,,,,,,,,,,,,,,,,,,,,,,,,,,,,,,,,,,,
Image_List_2,,,,,space,2.50786,space,3.45266,0,3,3,5,1,right.jpg,right_path.jpg,44551,2020-11-24_20h47.56.563,lingCatScenes,2020.1.3,MacIntel,60,,,,,,,,,,,,,,,,,,,,,,,,,,,,,,,,,,,,
Image_List_2,,,,,space,0.97221,space,2.77568,0,4,4,4,1,left.jpg,left_path.jpg,44551,2020-11-24_20h47.56.563,lingCatScenes,2020.1.3,MacIntel,60,,,,,,,,,,,,,,,,,,,,,,,,,,,,,,,,,,,,
Image_List_2,,,,,space,1.394005,space,3.4446,0,5,5,3,1,ahead_right_left.jpg,ahead_right_left_path.jpg,44551,2020-11-24_20h47.56.563,lingCatScenes,2020.1.3,MacIntel,60,,,,,,,,,,,,,,,,,,,,,,,,,,,,,,,,,,,,
Image_List_2,,,,,space,2.319685,space,3.70029,0,6,6,2,1,ahead_right.jpg,ahead_right_path.jpg,44551,2020-11-24_20h47.56.563,lingCatScenes,2020.1.3,MacIntel,60,,,,,,,,,,,,,,,,,,,,,,,,,,,,,,,,,,,,
Image_List_2,,,,,,,,,,,,,,,,44551,2020-11-24_20h47.56.563,lingCatScenes,2020.1.3,MacIntel,60,"[1440,900]",space,22.681295,"[""ahead_box"",""sharp_right_box""]",space,3.691715,0,0,0,2,1,ahead_right_2.jpg,ahead_right_2_path.jpg,,,,,,,,,,,,,,,,,,,,,,,
Image_List_2,,,,,,,,,,,,,,,,44551,2020-11-24_20h47.56.563,lingCatScenes,2020.1.3,MacIntel,60,"[1440,900]",space,14.056635,"[""left_box"",""sharp_left_box"",""ahead_box""]",space,2.415495,0,1,1,1,1,ahead_left_2.jpg,ahead_left_2_path.jpg,,,,,,,,,,,,,,,,,,,,,,,
Image_List_2,,,,,,,,,,,,,,,,44551,2020-11-24_20h47.56.563,lingCatScenes,2020.1.3,MacIntel,60,"[1440,900]",space,9.23199,"[""ahead_box"",""left_box"",""slight_right_box""]",space,3.64193,0,2,2,3,1,ahead_right_left_2.jpg,ahead_right_left_2_path.jpg,,,,,,,,,,,,,,,,,,,,,,,
Image_List_2,,,,,,,,,,,,,,,,44551,2020-11-24_20h47.56.563,lingCatScenes,2020.1.3,MacIntel,60,"[1440,900]",space,7.74029,"[""ahead_box"",""sharp_right_box"",""sharp_left_box""]",space,1.877495,0,3,3,0,1,ahead_2.jpg,ahead_2_path.jpg,,,,,,,,,,,,,,,,,,,,,,,
Image_List_2,,,,,,,,,,,,,,,,44551,2020-11-24_20h47.56.563,lingCatScenes,2020.1.3,MacIntel,60,"[1440,900]",space,4.76315,"[""slight_left_box"",""slight_right_box""]",space,2.60577,0,4,4,6,1,right_left_2.jpg,right_left_2_path.jpg,,,,,,,,,,,,,,,,,,,,,,,
Image_List_2,,,,,,,,,,,,,,,,44551,2020-11-24_20h47.56.563,lingCatScenes,2020.1.3,MacIntel,60,"[1440,900]",space,22.43828,"[""sharp_right_box"",""slight_right_box""]",space,1.78902,0,5,5,5,1,right_2.jpg,right_2_path.jpg,,,,,,,,,,,,,,,,,,,,,,,
Image_List_2,,,,,,,,,,,,,,,,44551,2020-11-24_20h47.56.563,lingCatScenes,2020.1.3,MacIntel,60,"[1440,900]",space,11.54648,"[""sharp_right_box"",""right_box"",""slight_right_box""]",space,1.4595,0,6,6,4,1,left_2.jpg,left_2_path.jpg,,,,,,,,,,,,,,,,,,,,,,,
Image_List_2,,,,,,,,,,,,,,,,44551,2020-11-24_20h47.56.563,lingCatScenes,2020.1.3,MacIntel,60,"[1440,900]",,,[],,,,,,,,,,space,7.065185,sculpturegarden1.jpg,space,0.072615,[],[],[],[],[],[],[],0,0,0,83,1,readingroom1.jpg,promenadeDeck6.jpg,restaurant8.jpg,readingroom2.jpg,,
Image_List_2,,,,,,,,,,,,,,,,44551,2020-11-24_20h47.56.563,lingCatScenes,2020.1.3,MacIntel,60,"[1440,900]",,,"[""trial_ahead_box"",""trial_slight_right_box"",""trial_slight_left_box""]",,,,,,,,,,,,parkinglot2.jpg,space,14.952705,"[-0.007751736111111111,0.20732204861111111,-0.20445746527777778,-0.6128428819444445,-0.5948177083333334]","[-0.28650607638888886,-0.30844618055555556,-0.31359375,-0.2903515625,-0.30570746527777776]","[1,1,1,1,1]","[0,0,0,0,0]","[0,0,0,0,0]","[2.629925000015646,6.230329999991227,7.380600000004051,8.930640000005951,11.330935000005411]","[""trial_ahead_box"",""trial_slight_right_box"",""trial_slight_left_box"",""trial_sharp_left_box"",""trial_sharp_left_box""]",0,1,1,69,1,liquorstore8.jpg,livingroom.jpg,metroInside1.jpg,icecream2.jpg,,
Image_List_2,,,,,,,,,,,,,,,,44551,2020-11-24_20h47.56.563,lingCatScenes,2020.1.3,MacIntel,60,"[1440,900]",,,"[""trial_ahead_box"",""trial_sharp_left_box"",""trial_sharp_right_box""]",,,,,,,,,,,,apartmentBuilding1.jpg,space,22.111095,"[0.011910770716292134,0.39404296875,0.532275939255618,0.3776882900280899,0.5831749049429658,-0.6580075649556401,-0.6257723384030418,-0.5975176251584284,0.6030428152724968]","[-0.3068875087780899,-0.32363171523876405,-0.37254213483146065,-0.31028901860955055,-0.3298627614068441,-0.31808460076045625,-0.3183866048795944,-0.3006921340304182,-0.2966373574144487]","[1,1,1,1,1,1,1,1,1]","[0,0,0,0,0,0,0,0,0]","[0,0,0,0,0,0,0,0,0]","[8.311069999996107,10.828115000011167,13.077690000005532,14.027960000006715,17.07765500000096,19.444555000023684,19.845670000009704,20.57823000001372,21.72781000001123]","[""trial_ahead_box"",""trial_right_box"",""trial_right_box"",""trial_sharp_left_box"",""trial_sharp_right_box""]",0,2,2,1,1,airportTerminal4.jpg,applestore1.jpg,airportTerminal3.jpg,airportTerminal2.jpg,,
Image_List_2,,,,,,,,,,,,,,,,44551,2020-11-24_20h47.56.563,lingCatScenes,2020.1.3,MacIntel,60,"[1440,789]",,,"[""trial_ahead_box"",""trial_slight_right_box"",""trial_slight_left_box""]",,,,,,,,,,,,trainStation1.jpg,space,4.141235,"[0.010456273764258554,0.21319015367553865,-0.22076996197718632]","[-0.29973661280101394,-0.31204946926489224,-0.31482196609632446]","[1,1,1]","[0,0,0]","[0,0,0]","[1.4783649999881163,2.8775449999957345,3.7779149999842048]","[""trial_ahead_box"",""trial_slight_right_box"",""trial_slight_left_box""]",0,3,3,90,1,savanna5.jpg,sidewalk1.jpg,stripmall3.jpg,shoestore4.jpg,,
Image_List_2,,,,,,,,,,,,,,,,44551,2020-11-24_20h47.56.563,lingCatScenes,2020.1.3,MacIntel,60,"[1440,789]",,,"[""trial_right_box"",""trial_sharp_right_box"",""trial_sharp_left_box""]",,,,,,,,,,,,newsstand7.jpg,space,7.71185,"[0.388852582382763,0.6045181796577946,-0.6129940985424588]","[-0.3138862484157161,-0.31479721166032953,-0.28766139892268694]","[1,1,1]","[0,0,0]","[0,0,0]","[3.862664999993285,4.530194999999367,6.979259999992792]","[""trial_right_box"",""trial_sharp_right_box"",""trial_sharp_left_box""]",0,4,4,65,1,igloo5.jpg,laundromat2.jpeg,labClass7.jpg,homeoffice8.jpg,,
Image_List_2,,,,,,,,,,,,,,,,44551,2020-11-24_20h47.56.563,lingCatScenes,2020.1.3,MacIntel,60,"[1440,789]",,,"[""trial_slight_left_box""]",,,,,,,,,,,,forestpath10.jpg,space,8.10096,"[-0.2270674904942966,-0.16723601869455007,-0.20473898922686945]","[-0.3128168567807351,-0.31657458016476553,-0.30934628485424587]","[0,1,1]","[0,0,0]","[1,0,0]","[3.4605199999932665,4.178639999998268,4.660804999992251]","[""trial_slight_left_box""]",0,5,5,43,1,exerciseequipment5.jpg,dugout2.jpg,foodcourt.jpg,diningroom3.jpg,,
Image_List_2,,,,,,,,,,,,,,,,44551,2020-11-24_20h47.56.563,lingCatScenes,2020.1.3,MacIntel,60,"[1440,789]",,,"[""trial_slight_left_box"",""trial_left_box""]",,,,,,,,,,,,jail1.jpg,space,10.87925,"[0.21140288339670468,-0.20242197401774398,0.2008525427756654,-0.3735097829531052,-0.38336204847908745,0.016738949619771862]","[-0.30474195975918883,-0.2779081511406844,-0.30014753643852976,-0.31630723225602025,-0.30935618662864384,-0.40375970373891]","[1,1,1,1,1,1]","[0,0,0,0,0,0]","[0,0,0,0,0,0]","[2.86243999999715,4.828560000023572,5.830130000016652,7.128700000001118,8.028640000004089,10.129610000003595]","[""trial_slight_right_box"",""trial_slight_left_box"",""trial_slight_right_box"",""trial_left_box""]",0,6,6,57,1,hayfield5.jpg,hallway4.jpg,hut5.jpg,gazebo.jpg,,
Image_List_2,,,,,,,,,,,,,,,,44551,2020-11-24_20h47.56.563,lingCatScenes,2020.1.3,MacIntel,60,"[1440,789]",,,"[""trial_sharp_left_box"",""trial_right_box""]",,,,,,,,,,,,farm3.jpg,space,7.6599,"[-0.5933242237008872,0.4096908666032953]","[-0.2950728770595691,-0.30956412389100124]","[1,1]","[0,0]","[0,0]","[3.2266899999813177,5.0938549999846146]","[""trial_sharp_left_box"",""trial_right_box""]",0,7,7,41,1,dugout4.jpg,drymountains3.jpg,fabricstore1.jpg,dentist2.jpg,,
Image_List_2,,,,,,,,,,,,,,,,44551,2020-11-24_20h47.56.563,lingCatScenes,2020.1.3,MacIntel,60,"[1440,789]",,,"[""trial_slight_right_box"",""trial_sharp_left_box""]",,,,,,,,,,,,bedroom6.jpg,space,11.130665,"[0.19178251742712293,-0.6028942886565273]","[-0.30424687103929027,-0.2967264733840304]","[1,1]","[0,0]","[0,0]","[5.910875000001397,8.860480000003008]","[""trial_slight_right_box"",""trial_sharp_left_box""]",0,8,8,12,1,baggageClaim4.jpg,bambooforest5.jpg,bleachers7.jpg,backyard5.jpg,,
Image_List_2,,,,,,,,,,,,,,,,44551,2020-11-24_20h47.56.563,lingCatScenes,2020.1.3,MacIntel,60,"[1440,789]",,,"[""trial_ahead_box"",""trial_sharp_left_box"",""trial_left_box""]",,,,,,,,,,,,ruralroad5.jpg,space,10.41113,"[0.013832778833967047,-0.6206085630544994,-0.6027111058301647,-0.35001782319391633,-0.4010713719898606]","[-0.2893595532319392,-0.3287983206590621,-0.3177677439797212,-0.30610345373891,-0.3174112801013942]","[1,1,1,1,1]","[0,0,0,0,0]","[0,0,0,0,0]","[3.060495000012452,6.527720000012778,7.043830000009621,9.310519999999087,10.093684999999823]","[""trial_ahead_box"",""trial_sharp_left_box"",""trial_left_box""]",0,9,9,81,1,promenadeDeck.jpg,promenadeDeck2.jpg,rainforest5.jpg,pasture8.jpg,,
Image_List_2,,,,,,,,,,,,,,,,44551,2020-11-24_20h47.56.563,lingCatScenes,2020.1.3,MacIntel,60,"[1440,789]",,,"[""trial_slight_right_box"",""trial_sharp_left_box""]",,,,,,,,,,,,playroom4.jpg,space,16.7508,"[0.003381455956907478,0.15709165082382762,0.2047538418884664,-0.034245286755386566,-0.004688490177439797,-0.5961858365019012]","[-0.28187381178707227,-0.28585432509505704,-0.29959303707224333,-0.29564222908745247,-0.30594502534854245,-0.3039102107097592]","[1,1,1,1,1,1]","[0,0,0,0,0,0]","[0,0,0,0,0,0]","[4.87916499999119,7.345000000001164,8.228999999992084,9.012014999985695,9.41141499998048,15.994884999992792]","[""trial_ahead_box"",""trial_slight_right_box"",""trial_ahead_box"",""trial_sharp_left_box""]",0,10,10,76,1,parkinggarage.jpg,parkinggarage3.jpg,park2.jpg,lookout4.jpg,,
Image_List_2,,,,,,,,,,,,,,,,44551,2020-11-24_20h47.56.563,lingCatScenes,2020.1.3,MacIntel,60,"[1440,789]",,,"[""trial_slight_left_box"",""trial_sharp_left_box""]",,,,,,,,,,,,breakroom5.jpg,space,3.48272,"[-0.19642644961977188,-0.6035428548795945]","[-0.3187826758555133,-0.31994118346007605]","[1,1]","[0,0]","[0,0]","[2.164069999998901,3.1816450000042096]","[""trial_slight_left_box"",""trial_sharp_left_box""]",0,11,11,14,1,ballroom1.jpg,bistrooutdoor5.jpg,botanicalGarden5.jpg,ballroom3.jpg,,
Image_List_2,,,,,,,,,,,,,,,,44551,2020-11-24_20h47.56.563,lingCatScenes,2020.1.3,MacIntel,60,"[1440,789]",,,"[""trial_ahead_box"",""trial_slight_left_box""]",,,,,,,,,,,,cave.jpg,space,10.88772,"[0.0016634980988593155,0.007738236692015209,-0.400204966730038,-0.4253950807984791,-0.40712630703422054,-0.21169993662864386]","[-0.2725760456273764,-0.27990335868187577,-0.31524279150823825,-0.3130000396070976,-0.3130000396070976,-0.3093660884030418]","[1,1,1,1,1,1]","[0,0,0,0,0,0]","[0,0,0,0,0,0]","[4.27741499998956,5.077069999999367,6.177495000010822,7.343714999995427,7.794564999989234,9.027384999993956]","[""trial_ahead_box"",""trial_left_box"",""trial_left_box"",""trial_slight_left_box""]",0,12,12,20,1,boardwalk6.jpg,campsite3.jpg,cave4.jpg,basketballcourt7.jpg,,
Image_List_2,,,,,,,,,,,,,,,,44551,2020-11-24_20h47.56.563,lingCatScenes,2020.1.3,MacIntel,60,"[1440,789]",,,"[""trial_slight_right_box"",""trial_sharp_left_box"",""trial_right_box""]",,,,,,,,,,,,waitingroom3.jpg,space,15.04491,"[0.39661062262357416,0.5971611612801014,0.4017001346641318,0.5843977740811154,-0.022521585868187578,0.19446589828897337,0.024170231305449937,-0.6374663339670469,-0.620385773130545,0.38733266001267425]","[-0.29120623415716096,-0.3023506812420786,-0.2815718076679341,-0.28889912072243346,-0.30228631970849174,-0.30849968314321924,-0.28365118029150826,-0.3097720611533587,-0.3107572877059569,-0.32201065430925224]","[1,1,1,1,1,1,1,1,1,1]","[0,0,0,0,0,0,0,0,0,0]","[0,0,0,0,0,0,0,0,0,0]","[3.828064999979688,4.695049999980256,5.728340000001481,6.378744999994524,7.612800000002608,8.745109999988927,9.778684999997495,11.51208499999484,11.96174999998766,13.362489999999525]","[""trial_right_box"",""trial_sharp_right_box"",""trial_right_box"",""trial_sharp_right_box"",""trial_ahead_box"",""trial_slight_right_box"",""trial_ahead_box"",""trial_sharp_left_box"",""trial_right_box""]",0,13,13,94,1,treehouse.jpg,staircase6.jpg,weightroom.jpg,trainStation3.jpg,,
Image_List_2,,,,,,,,,,,,,,,,44551,2020-11-24_20h47.56.563,lingCatScenes,2020.1.3,MacIntel,60,"[1440,789]",,,"[""trial_ahead_box"",""trial_left_box"",""trial_sharp_right_box""]",,,,,,,,,,,,frontLawn5.jpg,space,8.59054,"[-0.014728889416983523,-0.3843522259188847,0.5757188688212928]","[-0.305756891634981,-0.30175162389100124,-0.31159893852978454]","[1,1,1]","[0,0,0]","[0,0,0]","[1.8121849999879487,4.628849999979138,8.1285949999874]","[""trial_ahead_box"",""trial_left_box"",""trial_sharp_right_box""]",0,14,14,46,1,flowershop.jpg,farmersmarket4.jpg,fountain4.jpg,dormroom6.jpg,,
Image_List_2,,,,,,,,,,,,,,,,44551,2020-11-24_20h47.56.563,lingCatScenes,2020.1.3,MacIntel,60,"[1440,789]",,,"[""trial_slight_left_box"",""trial_ahead_box""]",,,,,,,,,,,,wineVineyard2.jpg,space,11.75179,"[-0.032472869138149556,-0.23062222750316858,-0.18745049112801013,-0.011278121039290242,-0.5929083491761724,-0.5689460551330798,-0.5650051489226869,-0.6231533190747782]","[-0.3038557509505703,-0.2810668171736375,-0.29416686470215464,-0.30960868187579216,-0.2979988513941698,-0.2993850998098859,-0.28516615177439797,-0.30360820659062104]","[1,1,1,1,1,1,1,1]","[0,0,0,0,0,0,0,0]","[0,0,0,0,0,0,0,0]","[1.8470450000022538,3.098004999978002,3.8137149999965914,4.4816200000059325,6.964210000005551,7.564329999993788,8.981414999987464,9.860010000003967]","[""trial_slight_left_box"",""trial_ahead_box"",""trial_sharp_left_box"",""trial_sharp_left_box""]",0,15,15,97,1,warehouseoutside4.jpg,waitingroom4.jpg,winebarrel3.jpg,warehouseoutside3.jpg,,
Image_List_2,,,,,,,,,,,,,,,,44551,2020-11-24_20h47.56.563,lingCatScenes,2020.1.3,MacIntel,60,"[1440,789]",,,"[""trial_slight_right_box"",""trial_ahead_box"",""trial_left_box""]",,,,,,,,,,,,poolhall1.jpg,space,13.73288,"[0.028076481305449937,0.2143090541825095,0.04450352503168568,-0.024714828897338403,-0.011332580798479087,-0.011332580798479087,-0.37817846958174905]","[-0.30011783111533585,-0.31298518694550065,-0.30012278200253484,-0.3041627059569075,-0.30992058776932824,-0.30992058776932824,-0.30303885456273766]","[1,1,1,1,1,1,1]","[0,0,0,0,0,0,0]","[0,0,0,0,0,0,0]","[2.378690000012284,4.104720000002999,6.928560000000289,7.578080000006594,9.260600000008708,9.84375,13.3447950000118]","[""trial_slight_right_box"",""trial_ahead_box"",""trial_ahead_box"",""trial_ahead_box"",""trial_left_box""]",0,16,16,78,1,parkinglot3.jpg,pier5.jpg,pavilion3.jpg,observatory1.jpg,,
Image_List_2,,,,,,,,,,,,,,,,44551,2020-11-24_20h47.56.563,lingCatScenes,2020.1.3,MacIntel,60,"[1440,789]",,,"[""trial_slight_right_box"",""trial_ahead_box"",""trial_sharp_right_box""]",,,,,,,,,,,,hardwarestore1.jpg,space,4.597785,"[0.19507980830164764,0.00019308460076045627,0.5867246910646388]","[-0.2932955085551331,-0.30940074461343475,-0.3173172132446134]","[1,1,1]","[0,0,0]","[0,0,0]","[1.9787000000069384,2.9797599999874365,4.358845000009751]","[""trial_slight_right_box"",""trial_ahead_box"",""trial_sharp_right_box""]",0,17,17,52,1,gasstation7.jpg,frontFoyer6.jpg,highway.jpg,forestpath2.jpg,,
Image_List_2,,,,,,,,,,,,,,,,44551,2020-11-24_20h47.56.563,lingCatScenes,2020.1.3,MacIntel,60,"[1440,789]",,,"[""trial_ahead_box"",""trial_sharp_left_box"",""trial_slight_right_box"",""trial_sharp_right_box""]",,,,,,,,,,,,church6.jpg,space,10.048405,"[0.005911359315589354,-0.20523902883396705,-0.6138902091254753,-0.1895298637515843,0.5783230354879595,0.15263585234474017,0.20219918409378962,0.21409121514575413,0.6020526378326996]","[-0.3122574065272497,-0.3129158745247148,-0.31517347908745247,-0.3041528041825095,-0.339130822243346,-0.3278081432192649,-0.3272140367553866,-0.3143120247148289,-0.3177182351077313]","[1,1,1,1,1,1,1,1,1]","[0,0,0,0,0,0,0,0,0]","[0,0,0,0,0,0,0,0,0]","[2.080485000013141,3.629639999999199,5.19756500000949,6.180135000002338,7.196675000013784,7.963235000002896,8.363104999996722,8.930465000012191,9.763165000011213]","[""trial_ahead_box"",""trial_slight_left_box"",""trial_sharp_left_box"",""trial_slight_left_box"",""trial_slight_right_box"",""trial_sharp_right_box""]",0,18,18,22,1,bowlingalley5.jpg,cargo5.jpg,cemetery.jpg,bistrooutdoor6.jpg,,
Image_List_2,,,,,,,,,,,,,,,,44551,2020-11-24_20h47.56.563,lingCatScenes,2020.1.3,MacIntel,60,"[1440,789]",,,"[""trial_ahead_box"",""trial_slight_right_box"",""trial_sharp_left_box"",""trial_sharp_right_box""]",,,,,,,,,,,,conference3.jpg,space,9.77648,"[-0.0035893932192648925,0.0068619296577946765,0.23428093314321927,0.20449144486692014,-0.6102414052598225,0.5747831511406845,0.6172469106463878]","[-0.3335957303548796,-0.30978691381495566,-0.3031477740811153,-0.3054548875158428,-0.3047568124207858,-0.3002168488593156,-0.3127970532319392]","[1,1,1,1,1,1,1]","[0,0,0,0,0,0,0]","[0,0,0,0,0,0,0]","[2.5616700000246055,3.3790700000245124,4.395890000014333,5.080035000020871,6.863280000019586,8.26211000001058,9.395555000024615]","[""trial_ahead_box"",""trial_slight_right_box"",""trial_sharp_left_box"",""trial_sharp_right_box""]",0,19,19,25,1,campsite7.jpg,church3.jpg,checkoutcounter2.jpg,botanicalGarden4.jpg,,
Image_List_2,,,,,,,,,,,,,,,,44551,2020-11-24_20h47.56.563,lingCatScenes,2020.1.3,MacIntel,60,"[1440,789]",,,"[""trial_sharp_right_box"",""trial_sharp_left_box"",""trial_slight_left_box""]",,,,,,,,,,,,newsstand5.jpg,space,12.07727,"[-0.41145338244613433,0.6394367870722434,0.6062311866286438,-0.5862494058935361,-0.39558578897338403,-0.20104067648922688]","[-0.2912557430291508,-0.3159854245880862,-0.3169112404942966,-0.3012268298479088,-0.30882149081115334,-0.3075986216730038]","[1,1,1,1,1,1]","[0,0,0,0,0,0]","[0,0,0,0,0,0]","[2.09424500001478,6.3778650000167545,7.010980000020936,8.578885000024457,9.693915000010747,11.811335000005784]","[""trial_left_box"",""trial_sharp_right_box"",""trial_sharp_left_box"",""trial_left_box"",""trial_slight_left_box""]",0,20,20,64,1,igloo2.jpg,jewelrystore8.jpg,lab5.jpg,homegarage2.jpg,,
Image_List_2,,,,,,,,,,,,,,,,44551,2020-11-24_20h47.56.563,lingCatScenes,2020.1.3,MacIntel,60,"[1440,789]",,,"[""trial_slight_right_box"",""trial_ahead_box"",""trial_slight_left_box"",""trial_left_box"",""trial_sharp_left_box"",""trial_right_box"",""trial_sharp_right_box""]",,,,,,,,,,,,stripmall.jpg,space,9.48302,"[0.18868326204055766,-0.008282834283903676,-0.20318441064638784,-0.37891615177439797,-0.6028942886565273,0.37927756653992395,0.5843532160963245]","[-0.3005980671736375,-0.2968997544359949,-0.2993306400506971,-0.3083858127376426,-0.3095987801013942,-0.30665300221799746,-0.3193074698986058]","[1,1,1,1,1,1,1]","[0,0,0,0,0,0,0]","[0,0,0,0,0,0,0]","[2.8276999999943655,3.460944999998901,4.378655000007711,5.995974999997998,7.661934999981895,8.644804999988992,9.177744999993593]","[""trial_slight_right_box"",""trial_ahead_box"",""trial_slight_left_box"",""trial_left_box"",""trial_sharp_left_box"",""trial_right_box"",""trial_sharp_right_box""]",0,21,21,86,1,restaurant14.jpg,ruralroad3.jpg,sandDunes_desert_outdoor8.jpg,rooftop4.jpg,,
Image_List_2,,,,,,,,,,,,,,,,44551,2020-11-24_20h47.56.563,lingCatScenes,2020.1.3,MacIntel,60,"[1440,789]",,,"[""trial_ahead_box"",""trial_left_box"",""trial_right_box""]",,,,,,,,,,,,desertvegetation3.jpg,space,7.46436,"[-0.0005396467046894803,-0.39839294201520914,0.4259347275031686,0.3956650031685678]","[-0.3000089115969582,-0.3179954847908745,-0.30913834759188846,-0.30760852344740175]","[1,1,1,1]","[0,0,0,0]","[0,0,0,0]","[1.8812650000036228,3.513810000004014,5.747555000009015,6.61376000000746]","[""trial_ahead_box"",""trial_left_box"",""trial_right_box""]",0,22,22,30,1,courthouse1.jpg,clothingstore2.jpg,copyroom2.jpg,bus_shelter3.jpg,,
Image_List_2,,,,,,,,,,,,,,,,44551,2020-11-24_20h47.56.563,lingCatScenes,2020.1.3,MacIntel,60,"[1440,789]",,,"[""trial_sharp_left_box"",""trial_sharp_right_box""]",,,,,,,,,,,,casino3.jpg,space,10.59545,"[-0.5911705877693283,0.6151378326996197,0.027021942332065906]","[-0.3134159141318124,-0.32201065430925224,-0.310727582382763]","[1,1,1]","[0,0,0]","[0,0,0]","[2.727694999979576,4.4459249999781605,9.594929999992019]","[""trial_sharp_left_box"",""trial_sharp_right_box""]",0,23,23,19,1,boardwalk2.jpg,cafeteria1.jpg,castle4.jpg,basketballcourt.jpg,,
Image_List_2,,,,,,,,,,,,,,,,44551,2020-11-24_20h47.56.563,lingCatScenes,2020.1.3,MacIntel,60,"[1440,789]",,,"[""trial_sharp_left_box"",""trial_sharp_right_box"",""trial_slight_right_box"",""trial_slight_left_box"",""trial_ahead_box""]",,,,,,,,,,,,museum6.jpg,space,11.845175,"[-0.610781051964512,0.6002406131178707,0.20647179974651458,-0.19245088719898606,0.01001069391634981]","[-0.2981473780101394,-0.3108612563371356,-0.2976423875158428,-0.29323114702154623,-0.31550023764258556]","[1,1,1,1,1]","[0,0,0,0,0]","[0,0,0,0,0]","[2.2431199999991804,3.54276499999105,6.559974999981932,9.1604899999802,11.17717999999877]","[""trial_sharp_left_box"",""trial_sharp_right_box"",""trial_slight_right_box"",""trial_slight_left_box"",""trial_ahead_box""]",0,24,24,63,1,hut2.jpg,hotelRoom2.jpg,lab4.jpg,highway2.jpg,,
Image_List_2,,,,,,,,,,,,,,,,44551,2020-11-24_20h47.56.563,lingCatScenes,2020.1.3,MacIntel,60,"[1440,789]",,,"[""trial_ahead_box"",""trial_sharp_left_box"",""trial_sharp_right_box""]",,,,,,,,,,,,pharmacy4.jpg,space,5.776535,"[0.01632802598225602,-0.5773724651457541,0.5929875633713562]","[-0.29745920468948034,-0.3163369375792142,-0.3049746514575412]","[1,1,1]","[0,0,0]","[0,0,0]","[1.896199999988312,4.244930000015302,5.428424999990966]","[""trial_ahead_box"",""trial_sharp_left_box"",""trial_sharp_right_box""]",0,25,25,72,1,museum5.jpg,musicStore1.jpg,museum4.jpg,kindergarten_classroom.jpg,,
Image_List_2,,,,,,,,,,,,,,,,44551,2020-11-24_20h47.56.563,lingCatScenes,2020.1.3,MacIntel,60,"[1440,789]",,,"[""trial_sharp_left_box"",""trial_slight_right_box""]",,,,,,,,,,,,cliff3.jpg,space,11.628805,"[-0.6369118346007605,-0.5999633634347274,0.19565906210392903]","[-0.28353730988593157,-0.30283586818757924,-0.30459343314321924]","[1,1,1]","[0,0,0]","[0,0,0]","[8.811619999993127,9.660754999989877,11.062210000003688]","[""trial_sharp_left_box"",""trial_slight_right_box""]",0,26,26,24,1,campsite.jpg,cave6.jpg,cemetery5.jpg,boardwalk.jpg,,
Image_List_2,,,,,,,,,,,,,,,,44551,2020-11-24_20h47.56.563,lingCatScenes,2020.1.3,MacIntel,60,"[1440,789]",,,"[""trial_slight_left_box""]",,,,,,,,,,,,racecarcourse2.jpg,space,18.142755,[-0.21189302122940432],[-0.31602998257287707],[1],[0],[0],[14.461009999999078],"[""trial_slight_left_box""]",0,27,27,80,1,pavilion2.jpg,porch.jpg,poolhall5.jpg,parkinggarage4.jpg,,
Image_List_2,,,,,,,,,,,,,,,,44551,2020-11-24_20h47.56.563,lingCatScenes,2020.1.3,MacIntel,60,"[1440,789]",,,"[""trial_sharp_left_box"",""trial_slight_left_box"",""trial_slight_right_box"",""trial_sharp_right_box""]",,,,,,,,,,,,bar2.jpg,space,9.92916,"[-0.6175835709759189,0.5688569391634981,0.6002406131178707,-0.23220156051964513,-0.1659834442332066,-0.1850443599493029,0.21412092046894804,0.5844720373891001]","[-0.2775615890367554,-0.30967799429657794,-0.3120395674904943,-0.3015189321926489,-0.31898566223067176,-0.31517347908745247,-0.3134555212294043,-0.3144556004435995]","[1,1,0,1,1,1,1,1]","[0,0,0,0,0,0,0,0]","[0,0,1,0,0,0,0,0]","[2.4281900000059977,3.669854999985546,5.14496499998495,5.845279999979539,6.79525999998441,7.877989999979036,8.729254999983823,9.445134999987204]","[""trial_sharp_left_box"",""trial_sharp_right_box"",""trial_slight_left_box"",""trial_slight_right_box"",""trial_sharp_right_box""]",0,28,28,9,1,auto_showroom3.jpg,ballroom2.jpg,basement5.jpg,arcade2.jpg,,
Image_List_2,,,,,,,,,,,,,,,,44551,2020-11-24_20h47.56.563,lingCatScenes,2020.1.3,MacIntel,60,"[1440,789]",,,"[""trial_ahead_box"",""trial_sharp_left_box"",""trial_sharp_right_box""]",,,,,,,,,,,,dormroom9.jpg,space,10.44525,"[-0.02795766001267427,-0.009763149556400508,-0.5879871673003803,0.5808826441698353]","[-0.302548716730038,-0.3052172449302915,-0.3008703659695818,-0.3129950887198986]","[1,1,1,1]","[0,0,0,0]","[0,0,0,0]","[1.8948249999957625,2.5281249999825377,6.744680000003427,8.445394999987911]","[""trial_ahead_box"",""trial_sharp_left_box"",""trial_sharp_right_box""]",0,29,29,36,1,diner14.jpg,dining_car3.jpg,doctor1.jpg,checkoutcounter9.jpg,,
Image_List_2,,,,,,,,,,,,,,,,44551,2020-11-24_20h47.56.563,lingCatScenes,2020.1.3,MacIntel,60,"[1440,789]",,,"[""trial_ahead_box"",""trial_sharp_right_box"",""trial_sharp_left_box""]",,,,,,,,,,,,barbershop3.jpg,space,11.71647,"[-0.02029863751584284,-0.6086422686945501,0.5891110186945501,-0.6021912626742713]","[-0.31763407002534855,-0.32952610107731306,-0.29111216730038025,-0.291191381495564]","[1,1,1,1]","[0,0,0,0]","[0,0,0,0]","[3.6961100000189617,5.412980000022799,7.3293350000167266,8.796365000016522]","[""trial_ahead_box"",""trial_sharp_right_box"",""trial_sharp_left_box""]",0,30,30,10,1,backstage2.jpg,ballroom4.jpg,basketballcourt3.jpg,ATM4.jpg,,
Image_List_2,,,,,,,,,,,,,,,,44551,2020-11-24_20h47.56.563,lingCatScenes,2020.1.3,MacIntel,60,"[1440,789]",,,"[""trial_sharp_right_box"",""trial_slight_left_box""]",,,,,,,,,,,,lab1.jpg,space,9.691915,"[0.5843532160963245,0.6132218393536122,-0.20267942015209126]","[-0.3277338799112801,-0.31391595373891,-0.314628881495564]","[1,1,1]","[0,0,0]","[0,0,0]","[3.4928400000208057,4.109305000019958,7.076014999998733]","[""trial_sharp_right_box"",""trial_slight_left_box""]",0,31,31,58,1,highway7.jpg,hedgemaze1.jpg,igloo4.jpg,grocerystore2.jpg,,
Image_List_2,,,,,,,,,,,,,,,,44551,2020-11-24_20h47.56.563,lingCatScenes,2020.1.3,MacIntel,60,"[1440,789]",,,"[""trial_ahead_box""]",,,,,,,,,,,,dock3.jpg,space,6.376855,[-0.008342244930291507],[-0.3037418805449937],[1],[0],[0],[3.145615000015823],"[""trial_ahead_box""]",0,32,32,35,1,deck5.jpg,cubicle7.jpg,dining_car6.jpg,carmechanic2.jpg,,
Image_List_2,,,,,,,,,,,,,,,,44551,2020-11-24_20h47.56.563,lingCatScenes,2020.1.3,MacIntel,60,"[1440,789]",,,"[""trial_left_box"",""trial_ahead_box"",""trial_right_box""]",,,,,,,,,,,,campsite6.jpg,space,18.516295,"[-0.40620049112801015,-0.017229087452471484,0.37474255386565275,0.407309489860583]","[-0.3121138307984791,-0.31869851077313055,-0.3079154784537389,-0.3110394882762991]","[1,1,1,1]","[0,0,0,0]","[0,0,0,0]","[4.844490000017686,6.910055000014836,17.410880000010366,18.22901500001899]","[""trial_left_box"",""trial_ahead_box"",""trial_right_box""]",0,33,33,17,1,bikerack1.jpg,breakroom4.jpg,carmechanic.jpg,baseball6.jpg,,
Image_List_2,,,,,,,,,,,,,,,,44551,2020-11-24_20h47.56.563,lingCatScenes,2020.1.3,MacIntel,60,"[1440,789]",,,"[""trial_ahead_box""]",,,,,,,,,,,,cornfield4.jpg,space,3.61666,[0.0036933618504435997],[-0.3109899794043092],[1],[0],[0],[2.2115849999827333],"[""trial_ahead_box""]",0,34,34,26,1,campusquad2.jpg,church4.jpg,churchInside3.jpg,botanicalGarden7.jpg,,
Image_List_2,,,,,,,,,,,,,,,,44551,2020-11-24_20h47.56.563,lingCatScenes,2020.1.3,MacIntel,60,"[1440,789]",,,"[""trial_slight_left_box""]",,,,,,,,,,,,track.jpg,space,7.181185,"[-0.4126168409378961,-0.19539171419518378,-0.4135575095057034]","[-0.3139555608365019,-0.311435559252218,-0.31422290874524716]","[1,1,1]","[0,0,0]","[0,0,0]","[2.4117350000014994,3.412595000001602,4.395569999993313]","[""trial_left_box"",""trial_slight_left_box"",""trial_left_box""]",0,35,35,88,1,rooftop1.jpg,sculpturegarden4.jpg,soccerfield.jpg,sandbox.jpg,,
Image_List_2,,,,,,,,,,,,,,,,44551,2020-11-24_20h47.56.563,lingCatScenes,2020.1.3,MacIntel,60,"[1440,789]",,,"[""trial_ahead_box"",""trial_sharp_left_box""]",,,,,,,,,,,,homeoffice.jpg,space,10.416215,"[-0.009678984474017743,-0.5929727107097592]","[-0.320307549112801,-0.3011674192015209]","[1,1]","[0,0]","[0,0]","[2.2808249999943655,3.512929999997141]","[""trial_ahead_box"",""trial_sharp_left_box""]",0,36,36,53,1,gazebo3.jpg,frontLawn3.jpg,homegarage3.jpg,fountain.jpg,,
Image_List_2,,,,,,,,,,,,,,,,44551,2020-11-24_20h47.56.563,lingCatScenes,2020.1.3,MacIntel,60,"[1440,789]",,,"[""trial_ahead_box"",""trial_sharp_left_box"",""trial_left_box"",""trial_slight_left_box"",""trial_slight_right_box"",""trial_right_box"",""trial_sharp_right_box""]",,,,,,,,,,,,sandDunes_desert_outdoor9.jpg,space,8.91642,"[-0.006010377059569074,-0.5946164052598225,-0.3890852740811153,-0.22043825253485425,0.23971205640050697,0.1758159062103929,0.4159883951204056,0.5516328025982256,0.5758228374524715]","[-0.30253881495564006,-0.2888496118504436,-0.3116137911913815,-0.324580164765526,-0.29749386089987323,-0.29253307192648925,-0.29579075570342206,-0.29834541349809884,-0.29834541349809884]","[1,1,1,1,1,1,1,1,1]","[0,0,0,0,0,0,0,0,0]","[0,0,0,0,0,0,0,0,0]","[2.944865000026766,3.9614700000092853,4.911245000024792,5.494395000016084,6.211470000009285,6.777895000006538,7.279165000014473,7.7612800000060815,8.211930000019493]","[""trial_ahead_box"",""trial_sharp_left_box"",""trial_left_box"",""trial_slight_left_box"",""trial_slight_right_box"",""trial_right_box"",""trial_sharp_right_box""]",0,37,37,82,1,publicrestroom2.jpg,promenadeDeck3.jpg,readingroom4.jpg,postoffice4.jpg,,
Image_List_2,,,,,,,,,,,,,,,,44551,2020-11-24_20h47.56.563,lingCatScenes,2020.1.3,MacIntel,60,"[1440,789]",,,"[""trial_sharp_left_box"",""trial_sharp_right_box"",""trial_ahead_box""]",,,,,,,,,,,,grocerystore6.jpg,space,9.67731,"[-0.5867741999366286,0.5994880782636248,0.007470888783269962]","[-0.30659854245880863,-0.3162676251584284,-0.2977364543726236]","[1,1,1]","[0,0,0]","[0,0,0]","[5.361300000018673,7.028374999994412,8.910975000006147]","[""trial_sharp_left_box"",""trial_sharp_right_box"",""trial_ahead_box""]",0,38,38,50,1,frontLawn4.jpg,forestpath6.jpg,hallway2.jpg,fireplace4.jpg,,
Image_List_2,,,,,,,,,,,,,,,,44551,2020-11-24_20h47.56.563,lingCatScenes,2020.1.3,MacIntel,60,"[1440,789]",,,"[""trial_left_box"",""trial_ahead_box"",""trial_slight_right_box""]",,,,,,,,,,,,basketballcourt4.jpg,space,13.864755,"[-0.38670884822560203,0.010510733523447401,0.20025843631178708]","[-0.295815510139417,-0.28751782319391633,-0.31561410804816226]","[1,1,1]","[0,0,0]","[0,0,0]","[8.929735000012442,12.162865000020247,13.24611000000732]","[""trial_left_box"",""trial_ahead_box"",""trial_slight_right_box""]",0,39,39,11,1,backyard2.jpg,bambooforest3.jpg,baywindow5.jpg,backyard1.jpg,,
Image_List_2,,,,,,,,,,,,,,,,44551,2020-11-24_20h47.56.563,lingCatScenes,2020.1.3,MacIntel,60,"[1440,789]",,,[],,,,,,,,,,,,dancestudio5.jpg,space,433.223325,[],[],[],[],[],[],[],0,40,40,28,1,churchInside1.jpg,citystreet10.jpg,clothingstore5.jpg,bridalboutique2.jpg,,
Image_List_2,,,,,,,,,,,,,,,,44551,2020-11-24_20h47.56.563,lingCatScenes,2020.1.3,MacIntel,60,"[1440,789]",,,[],,,,,,,,,,,,diningroom1.jpg,space,0.17952,[],[],[],[],[],[],[],0,41,41,33,1,deck1.jpg,courthouse2.jpg,diner10.jpg,cabinIndoors5.jpg,,
Image_List_2,,,,,,,,,,,,,,,,44551,2020-11-24_20h47.56.563,lingCatScenes,2020.1.3,MacIntel,60,"[1440,789]",,,[],,,,,,,,,,,,sidewalk5.jpg,space,0.160195,[],[],[],[],[],[],[],0,42,42,85,1,recordingstudio4.jpg,ruralroad2.jpg,sandDunes_desert_outdoor3.jpg,rooftop3.jpg,,
Image_List_2,,,,,,,,,,,,,,,,44551,2020-11-24_20h47.56.563,lingCatScenes,2020.1.3,MacIntel,60,"[1440,789]",,,[],,,,,,,,,,,,frontFoyer4.jpg,space,0.136615,[],[],[],[],[],[],[],0,43,43,44,1,firestation2.jpg,elevatorOutside1.jpg,foodcourt6.jpg,dock2.jpg,,
Image_List_2,,,,,,,,,,,,,,,,44551,2020-11-24_20h47.56.563,lingCatScenes,2020.1.3,MacIntel,60,"[1440,789]",,,[],,,,,,,,,,,,horsebarn11.jpg,space,0.164575,[],[],[],[],[],[],[],0,44,44,54,1,greenhouse2.jpg,gazebo2.jpg,homegarage4.jpg,frontFoyer.jpg,,
Image_List_2,,,,,,,,,,,,,,,,44551,2020-11-24_20h47.56.563,lingCatScenes,2020.1.3,MacIntel,60,"[1440,789]",,,[],,,,,,,,,,,,lightingstore3.jpg,space,0.06054,[],[],[],[],[],[],[],0,45,45,60,1,hometheater2.jpg,homegarage.jpg,kindergarten_classroom6.jpg,hallway.jpg,,
Image_List_2,,,,,,,,,,,,,,,,44551,2020-11-24_20h47.56.563,lingCatScenes,2020.1.3,MacIntel,60,"[1440,789]",,,[],,,,,,,,,,,,attic1.jpg,space,0.09705,[],[],[],[],[],[],[],0,46,46,3,1,apartmentBuilding2.jpg,aquarium1.jpg,appleorchard2.jpg,alley3.jpg,,
Image_List_2,,,,,,,,,,,,,,,,44551,2020-11-24_20h47.56.563,lingCatScenes,2020.1.3,MacIntel,60,"[1440,789]",,,[],,,,,,,,,,,,cemetery6.jpg,space,0.12984,[],[],[],[],[],[],[],0,47,47,21,1,botanicalGarden6.jpg,campusquad3.jpg,cave5.jpg,beach1.jpeg,,
Image_List_2,,,,,,,,,,,,,,,,44551,2020-11-24_20h47.56.563,lingCatScenes,2020.1.3,MacIntel,60,"[1440,789]",,,[],,,,,,,,,,,,hut3.jpg,space,0.175535,[],[],[],[],[],[],[],0,48,48,56,1,grocerystore5.jpg,golfcourse10.jpg,hut1.jpg,gasstation2.jpg,,
Image_List_2,,,,,,,,,,,,,,,,44551,2020-11-24_20h47.56.563,lingCatScenes,2020.1.3,MacIntel,60,"[1440,789]",,,[],,,,,,,,,,,,bambooforest.jpg,space,0.10817,[],[],[],[],[],[],[],0,49,49,5,1,artStudio3.jpg,auto_showroom4.jpg,attic4.jpg,amusement3.jpg,,
Image_List_2,,,,,,,,,,,,,,,,44551,2020-11-24_20h47.56.563,lingCatScenes,2020.1.3,MacIntel,60,"[1440,789]",,,[],,,,,,,,,,,,pavilion.jpg,space,0.111475,[],[],[],[],[],[],[],0,50,50,70,1,lockerroom4.jpg,lockerroom3.jpg,minigolf8.jpg,igloo.jpg,,
Image_List_2,,,,,,,,,,,,,,,,44551,2020-11-24_20h47.56.563,lingCatScenes,2020.1.3,MacIntel,60,"[1440,789]",,,[],,,,,,,,,,,,eyeglassstore9.jpg,space,0.079495,[],[],[],[],[],[],[],0,51,51,39,1,driveway6.jpg,drycleaners6.jpg,drymountains5.jpg,cliff5.jpg,,
Image_List_2,,,,,,,,,,,,,,,,44551,2020-11-24_20h47.56.563,lingCatScenes,2020.1.3,MacIntel,60,"[1440,789]",,,[],,,,,,,,,,,,minigolf.jpg,space,0.10723,[],[],[],[],[],[],[],0,52,52,62,1,hotellobby2.jpg,horsebarn8.jpg,lab3.jpg,hayfield7.jpg,,
Image_List_2,,,,,,,,,,,,,,,,44551,2020-11-24_20h47.56.563,lingCatScenes,2020.1.3,MacIntel,60,"[1440,789]",,,[],,,,,,,,,,,,sidewalk2.jpg,space,0.10998,[],[],[],[],[],[],[],0,53,53,84,1,readingroom5.jpg,restaurant13.jpg,sandDunes_desert_outdoor.jpg,rooftop2.jpg,,
Image_List_2,,,,,,,,,,,,,,,,44551,2020-11-24_20h47.56.563,lingCatScenes,2020.1.3,MacIntel,60,"[1440,789]",,,[],,,,,,,,,,,,golfcourse6.jpg,space,0.1197,[],[],[],[],[],[],[],0,54,54,48,1,frontDoor2.jpg,fittingroom5.jpg,golfcourse7.jpg,fabricstore2.jpg,,
Image_List_2,,,,,,,,,,,,,,,,44551,2020-11-24_20h47.56.563,lingCatScenes,2020.1.3,MacIntel,60,"[1440,789]",,,[],,,,,,,,,,,,volleyballcourt4.jpg,space,0.112145,[],[],[],[],[],[],[],0,55,55,93,1,tollbooth8.jpg,staircase4.jpg,warehouseoutside2.jpg,tenniscourt.jpg,,
Image_List_2,,,,,,,,,,,,,,,,44551,2020-11-24_20h47.56.563,lingCatScenes,2020.1.3,MacIntel,60,"[1440,789]",,,[],,,,,,,,,,,,volleyballcourt.jpg,space,0.125485,[],[],[],[],[],[],[],0,56,56,92,1,staircase.jpg,skatepark7.jpg,tvstudio2.jpg,soccerfield2.jpg,,
Image_List_2,,,,,,,,,,,,,,,,44551,2020-11-24_20h47.56.563,lingCatScenes,2020.1.3,MacIntel,60,"[1440,789]",,,[],,,,,,,,,,,,courtroom3.jpg,space,0.111085,[],[],[],[],[],[],[],0,57,57,27,1,castle3.jpg,churchInside4.jpg,closet.jpg,brewery2.jpg,,
Image_List_2,,,,,,,,,,,,,,,,44551,2020-11-24_20h47.56.563,lingCatScenes,2020.1.3,MacIntel,60,"[1440,789]",,,[],,,,,,,,,,,,banquetHall6.jpg,space,0.082695,[],[],[],[],[],[],[],0,58,58,8,1,attic3.jpg,balconyIN.jpg,bar.jpg,applestore4.jpg,,
Image_List_2,,,,,,,,,,,,,,,,44551,2020-11-24_20h47.56.563,lingCatScenes,2020.1.3,MacIntel,60,"[1440,789]",,,[],,,,,,,,,,,,wineVineyard8.jpg,space,0.119715,[],[],[],[],[],[],[],0,59,59,98,1,weightroom5.jpg,warehouse3.jpg,winebarrel4.jpg,winebarrel2.jpg,,
Image_List_2,,,,,,,,,,,,,,,,44551,2020-11-24_20h47.56.563,lingCatScenes,2020.1.3,MacIntel,60,"[1440,789]",,,[],,,,,,,,,,,,elevatorOutside4.jpg,space,0.108835,[],[],[],[],[],[],[],0,60,60,38,1,dining_car2.jpg,dock1.jpg,driveway8.jpg,classroom1.jpg,,
Image_List_2,,,,,,,,,,,,,,,,44551,2020-11-24_20h47.56.563,lingCatScenes,2020.1.3,MacIntel,60,"[1440,789]",,,[],,,,,,,,,,,,farm1.jpg,space,0.110305,[],[],[],[],[],[],[],0,61,61,40,1,drycleaners4.jpg,drymountains.jpg,dugout1.jpg,clothingstore3.jpg,,
Image_List_2,,,,,,,,,,,,,,,,44551,2020-11-24_20h47.56.563,lingCatScenes,2020.1.3,MacIntel,60,"[1440,789]",,,[],,,,,,,,,,,,banquetHall2.jpg,space,0.141085,[],[],[],[],[],[],[],0,62,62,6,1,ATM1.jpg,auto_showroom5.jpg,baggageClaim1.jpg,apartmentBuilding3.jpg,,
Image_List_2,,,,,,,,,,,,,,,,44551,2020-11-24_20h47.56.563,lingCatScenes,2020.1.3,MacIntel,60,"[1440,789]",,,[],,,,,,,,,,,,arcade1.jpg,space,0.10759,[],[],[],[],[],[],[],0,63,63,2,1,alley1.jpg,applestore6.jpg,apartmentBuilding4.jpg,airportTerminal6.jpg,,
Image_List_2,,,,,,,,,,,,,,,,44551,2020-11-24_20h47.56.563,lingCatScenes,2020.1.3,MacIntel,60,"[1440,789]",,,[],,,,,,,,,,,,bowlingalley3.jpg,space,0.12492,[],[],[],[],[],[],[],0,64,64,13,1,balconyIN2.jpg,beach2.jpg,boardwalk4.jpg,backyard6.jpg,,
Image_List_2,,,,,,,,,,,,,,,,44551,2020-11-24_20h47.56.563,lingCatScenes,2020.1.3,MacIntel,60,"[1440,789]",,,[],,,,,,,,,,,,hallway5.jpg,space,0.155435,[],[],[],[],[],[],[],0,65,65,51,1,gasstation6.jpg,frontDoor5.jpg,hayfield4.jpg,firestation5.jpg,,
Image_List_2,,,,,,,,,,,,,,,,44551,2020-11-24_20h47.56.563,lingCatScenes,2020.1.3,MacIntel,60,"[1440,789]",,,[],,,,,,,,,,,,hotelRoom3.jpg,space,0.13235,[],[],[],[],[],[],[],0,66,66,55,1,greenmountains.jpg,gazebo5.jpg,hotelRoom7.jpg,frontLawn2.jpg,,
Image_List_2,,,,,,,,,,,,,,,,44551,2020-11-24_20h47.56.563,lingCatScenes,2020.1.3,MacIntel,60,"[1440,789]",,,[],,,,,,,,,,,,church8.jpg,space,0.0931,[],[],[],[],[],[],[],0,67,67,23,1,bus_shelter.jpg,carmechanic4.jpeg,cemetery3.jpg,bleachers6.jpg,,
Image_List_2,,,,,,,,,,,,,,,,44551,2020-11-24_20h47.56.563,lingCatScenes,2020.1.3,MacIntel,60,"[1440,789]",,,[],,,,,,,,,,,,park7.jpg,space,0.13338,[],[],[],[],[],[],[],0,68,68,67,1,library_aisle3.jpg,laundromat4.jpg,liquorstore2.jpg,hospitalroom2.jpg,,
Image_List_2,,,,,,,,,,,,,,,,44551,2020-11-24_20h47.56.563,lingCatScenes,2020.1.3,MacIntel,60,"[1440,789]",,,[],,,,,,,,,,,,firestation3.jpg,space,0.132855,[],[],[],[],[],[],[],0,69,69,42,1,exerciseequipment3.jpg,drymountains6.jpg,farm4.jpg,desertvegetation2.jpg,,
Image_List_2,,,,,,,,,,,,,,,,44551,2020-11-24_20h47.56.563,lingCatScenes,2020.1.3,MacIntel,60,"[1440,789]",,,[],,,,,,,,,,,,theater2.jpg,space,0.128105,[],[],[],[],[],[],[],0,70,70,87,1,restaurantkitchen2.jpg,savanna.jpg,sculpturegarden2.jpg,RVinside2.jpg,,
Image_List_2,,,,,,,,,,,,,,,,44551,2020-11-24_20h47.56.563,lingCatScenes,2020.1.3,MacIntel,60,"[1440,789]",,,[],,,,,,,,,,,,photographer_studio2.jpg,space,0.1217,[],[],[],[],[],[],[],0,71,71,73,1,musicStore3.jpg,nursery.jpg,nursery4.jpg,library_aisle9.jpg,,
Image_List_2,,,,,,,,,,,,,,,,44551,2020-11-24_20h47.56.563,lingCatScenes,2020.1.3,MacIntel,60,"[1440,789]",,,[],,,,,,,,,,,,greenhouse5.jpg,space,0.09319,[],[],[],[],[],[],[],0,72,72,49,1,frontDoor3.jpg,flowershop3.jpg,greenhouse.jpg,farm2.jpg,,
Image_List_2,,,,,,,,,,,,,,,,44551,2020-11-24_20h47.56.563,lingCatScenes,2020.1.3,MacIntel,60,"[1440,789]",,,[],,,,,,,,,,,,library_aisle8.jpg,space,0.12948,[],[],[],[],[],[],[],0,73,73,59,1,homegarden7.jpg,highway4.jpg,kindergarten_classroom5.jpg,grocerystore3.jpg,,
Image_List_2,,,,,,,,,,,,,,,,44551,2020-11-24_20h47.56.563,lingCatScenes,2020.1.3,MacIntel,60,"[1440,789]",,,[],,,,,,,,,,,,warehouseoutside1.jpg,space,0.146035,[],[],[],[],[],[],[],0,74,74,96,1,warehouse4.jpg,tenniscourt3.jpg,windmill1.jpg,warehouse1.jpg,,
Image_List_2,,,,,,,,,,,,,,,,44551,2020-11-24_20h47.56.563,lingCatScenes,2020.1.3,MacIntel,60,"[1440,789]",,,[],,,,,,,,,,,,banquetHall4.jpg,space,0.09514,[],[],[],[],[],[],[],0,75,75,7,1,attic2.jpg,backstage1.jpg,baggageClaim3.jpg,applestore2.jpg,,
Image_List_2,,,,,,,,,,,,,,,,44551,2020-11-24_20h47.56.563,lingCatScenes,2020.1.3,MacIntel,60,"[1440,789]",,,[],,,,,,,,,,,,gasstation8.jpg,space,0.142985,[],[],[],[],[],[],[],0,76,76,47,1,frontDoor.jpg,firestation4.jpg,fountain7.jpg,elevatorOutside2.jpg,,
Image_List_2,,,,,,,,,,,,,,,,44551,2020-11-24_20h47.56.563,lingCatScenes,2020.1.3,MacIntel,60,"[1440,789]",,,[],,,,,,,,,,,,metroInside4.jpg,space,0.11601,[],[],[],[],[],[],[],0,77,77,61,1,HorseRaceTrack.jpg,homegarden6.jpg,kindergarten_classroom7.jpg,hayfield6.jpg,,
Image_List_2,,,,,,,,,,,,,,,,44551,2020-11-24_20h47.56.563,lingCatScenes,2020.1.3,MacIntel,60,"[1440,789]",,,[],,,,,,,,,,,,alley2.jpg,space,0.143855,[],[],[],[],[],[],[],0,78,78,0,1,airplanecabin1.jpg,appleorchard4.jpg,airplanecabin5.jpg,airplanecabin3.jpg,,
Image_List_2,,,,,,,,,,,,,,,,44551,2020-11-24_20h47.56.563,lingCatScenes,2020.1.3,MacIntel,60,"[1440,789]",,,[],,,,,,,,,,,,playroom6.jpg,space,0.127855,[],[],[],[],[],[],[],0,79,79,77,1,parkinggarage2.jpg,pasture9.jpg,park8.jpg,mallindoor6.jpg,,
Image_List_2,,,,,,,,,,,,,,,,44551,2020-11-24_20h47.56.563,lingCatScenes,2020.1.3,MacIntel,60,"[1440,789]",,,[],,,,,,,,,,,,yogastudio4.jpg,space,0.108695,[],[],[],[],[],[],[],0,80,80,99,1,wineVineyard9.jpg,windmill2.jpg,wrestlingring7.jpg,yogastudio1.jpg,,
Image_List_2,,,,,,,,,,,,,,,,44551,2020-11-24_20h47.56.563,lingCatScenes,2020.1.3,MacIntel,60,"[1440,789]",,,[],,,,,,,,,,,,casino1.jpg,space,0.11384,[],[],[],[],[],[],[],0,81,81,18,1,bleachers5.jpg,brewery4.jpg,castle2.jpg,basement6.jpg,,
Image_List_2,,,,,,,,,,,,,,,,44551,2020-11-24_20h47.56.563,lingCatScenes,2020.1.3,MacIntel,60,"[1440,789]",,,[],,,,,,,,,,,,trainStation5.jpg,space,0.127045,[],[],[],[],[],[],[],0,82,82,91,1,shoestore2.jpg,skatepark5.jpg,ticket_counter6.jpg,sidewalk3.jpg,,
Image_List_2,,,,,,,,,,,,,,,,44551,2020-11-24_20h47.56.563,lingCatScenes,2020.1.3,MacIntel,60,"[1440,789]",,,[],,,,,,,,,,,,diner12.jpg,space,0.109405,[],[],[],[],[],[],[],0,83,83,32,1,dancestudio6.jpg,constructionSite2.jpg,dentist4.jpg,cabin4.jpg,,
Image_List_2,,,,,,,,,,,,,,,,44551,2020-11-24_20h47.56.563,lingCatScenes,2020.1.3,MacIntel,60,"[1440,789]",,,[],,,,,,,,,,,,warehouse2.jpg,space,0.127165,[],[],[],[],[],[],[],0,84,84,95,1,waitingroom2.jpg,stripmall6.jpg,weightroom4.jpg,tvstudio3.jpg,,
Image_List_2,,,,,,,,,,,,,,,,44551,2020-11-24_20h47.56.563,lingCatScenes,2020.1.3,MacIntel,60,"[1440,789]",,,[],,,,,,,,,,,,playground10.jpg,space,0.10915,[],[],[],[],[],[],[],0,85,85,74,1,newsstand2.jpg,observatory4.jpeg,operatingroom1.jpg,lightingstore2.jpg,,
Image_List_2,,,,,,,,,,,,,,,,44551,2020-11-24_20h47.56.563,lingCatScenes,2020.1.3,MacIntel,60,"[1440,789]",,,[],,,,,,,,,,,,pavilion5.jpg,space,0.09766,[],[],[],[],[],[],[],0,86,86,71,1,metroInside2.jpg,metroInside3.jpg,museum3.jpg,jewelrystore.jpg,,
Image_List_2,,,,,,,,,,,,,,,,44551,2020-11-24_20h47.56.563,lingCatScenes,2020.1.3,MacIntel,60,"[1440,789]",,,[],,,,,,,,,,,,deck2.jpg,space,0.113125,[],[],[],[],[],[],[],0,87,87,29,1,cornfield2.jpg,cliff2.jpg,constructionSite4.jpg,bridalboutique3.jpg,,
Image_List_2,,,,,,,,,,,,,,,,44551,2020-11-24_20h47.56.563,lingCatScenes,2020.1.3,MacIntel,60,"[1440,789]",,,[],,,,,,,,,,,,playground6.jpg,space,0.140035,[],[],[],[],[],[],[],0,88,88,75,1,pantry5.jpg,operatingroom4.jpg,park.jpg,lockerroom.jpg,,
Image_List_2,,,,,,,,,,,,,,,,44551,2020-11-24_20h47.56.563,lingCatScenes,2020.1.3,MacIntel,60,"[1440,789]",,,[],,,,,,,,,,,,driveway4.jpg,space,0.110425,[],[],[],[],[],[],[],0,89,89,37,1,dining_car.jpg,dinosaur4.jpg,driveway7.jpg,citystreet9.jpg,,
Image_List_2,,,,,,,,,,,,,,,,44551,2020-11-24_20h47.56.563,lingCatScenes,2020.1.3,MacIntel,60,"[1440,789]",,,[],,,,,,,,,,,,office3.jpg,space,0.11818,[],[],[],[],[],[],[],0,90,90,66,1,library_aisle10.jpg,laundromat3.jpg,liquorstore.jpg,horsebarn9.jpg,,
Image_List_2,,,,,,,,,,,,,,,,44551,2020-11-24_20h47.56.563,lingCatScenes,2020.1.3,MacIntel,60,"[1440,789]",,,[],,,,,,,,,,,,desertvegetation6.jpg,space,0.14154,[],[],[],[],[],[],[],0,91,91,31,1,cubicle4.jpg,conference4.jpg,courtroom2.jpg,cabin3.jpg,,
Image_List_2,,,,,,,,,,,,,,,,44551,2020-11-24_20h47.56.563,lingCatScenes,2020.1.3,MacIntel,60,"[1440,789]",,,[],,,,,,,,,,,,poolhall2.jpeg,space,0.143155,[],[],[],[],[],[],[],0,92,92,79,1,pasture.jpg,playground9.jpg,pier2.jpg,observatory2.jpg,,
Image_List_2,,,,,,,,,,,,,,,,44551,2020-11-24_20h47.56.563,lingCatScenes,2020.1.3,MacIntel,60,"[1440,789]",,,[],,,,,,,,,,,,frontFoyer7.jpg,space,0.110255,[],[],[],[],[],[],[],0,93,93,45,1,fittingroom2.jpg,factory1.jpg,forestpath4.jpg,dock4.jpg,,
Image_List_2,,,,,,,,,,,,,,,,44551,2020-11-24_20h47.56.563,lingCatScenes,2020.1.3,MacIntel,60,"[1440,789]",,,[],,,,,,,,,,,,diningroom5.jpg,space,0.122605,[],[],[],[],[],[],[],0,94,94,34,1,deck4.jpg,courthouse4.jpg,diner11.jpg,campusquad1.jpg,,
Image_List_2,,,,,,,,,,,,,,,,44551,2020-11-24_20h47.56.563,lingCatScenes,2020.1.3,MacIntel,60,"[1440,789]",,,[],,,,,,,,,,,,track5.jpg,space,0.097165,[],[],[],[],[],[],[],0,95,95,89,1,ruralroad7.jpg,ShowJumping7.jpg,staircase7.jpg,sculpturegarden3.jpg,,
Image_List_2,,,,,,,,,,,,,,,,44551,2020-11-24_20h47.56.563,lingCatScenes,2020.1.3,MacIntel,60,"[1440,789]",,,[],,,,,,,,,,,,parkinglot.jpg,space,0.138885,[],[],[],[],[],[],[],0,96,96,68,1,liquorstore7.jpg,lightingstore4.jpg,lockerroom2.jpg,hospitalroom3.jpg,,
Image_List_2,,,,,,,,,,,,,,,,44551,2020-11-24_20h47.56.563,lingCatScenes,2020.1.3,MacIntel,60,"[1440,789]",,,[],,,,,,,,,,,,cafeteria6.jpg,space,0.114015,[],[],[],[],[],[],[],0,97,97,16,1,basement.jpg,breakroom2.jpg,campusquad4.jpg,barbershop2.jpg,,
Image_List_2,,,,,,,,,,,,,,,,44551,2020-11-24_20h47.56.563,lingCatScenes,2020.1.3,MacIntel,60,"[1440,789]",,,[],,,,,,,,,,,,cafeteria5.jpg,space,0.129625,[],[],[],[],[],[],[],0,98,98,15,1,bambooforest4.jpg,bleachers8.jpg,cabinIndoors.jpg,bar8.jpg,,
Image_List_2,,,,,,,,,,,,,,,,44551,2020-11-24_20h47.56.563,lingCatScenes,2020.1.3,MacIntel,60,"[1440,789]",,,[],,,,,,,,,,,,baggageClaim2.jpg,space,0.112125,[],[],[],[],[],[],[],0,99,99,4,1,artStudio1.jpg,auto_showroom1.jpg,appleorchard3.jpg,alley4.jpg,,
Image_List_2,,,,,,,,,,,,,,,,44551,2020-11-24_20h47.56.563,lingCatScenes,2020.1.3,MacIntel,60,,,,,,,,,,,,,,,,,,,,,,,,,,,,,,,,,,,space,0.100775
