image_list,key_resp_intructions.keys,key_resp_intructions.rt,key_resp_intructions_3.keys,key_resp_intructions_3.rt,PracticeComplete_2.keys,PracticeComplete_2.rt,PracticeComplete_3.keys,PracticeComplete_3.rt,demo_trials.thisRepN,demo_trials.thisTrialN,demo_trials.thisN,demo_trials.thisIndex,demo_trials.ran,demo_images,path_images,participant,date,expName,psychopyVersion,OS,frameRate,windowSize,drawing,numDrawings,drawingSizes,practice_complete.keys,practice_complete.rt,PracticeComplete.keys,PracticeComplete.rt,practice_trials.thisRepN,practice_trials.thisTrialN,practice_trials.thisN,practice_trials.thisIndex,practice_trials.ran,practice_images,feedback_images,key_resp_intructions_2.keys,key_resp_intructions_2.rt,Image_List_1,trial_complete.keys,trial_complete.rt,trials.thisRepN,trials.thisTrialN,trials.thisN,trials.thisIndex,trials.ran,Image_List_2,Image_List_3,Image_List_4,Image_List_5,key_resp.keys,key_resp.rt
Image_List_1,space,14.299,space,4.007,space,5.607,space,5.102,0,0,0,3,1,ahead_right_left.jpg,ahead_right_left_path.jpg,44552,2020-11-17_16h39.55.750,analogCatScenes,2020.1.3,MacIntel,60,,,,,,,,,,,,,,,,,,,,,,,,,,,,,,,
Image_List_1,,,,,space,2.207,space,0.873,0,1,1,0,1,ahead.jpg,ahead_path.jpg,44552,2020-11-17_16h39.55.750,analogCatScenes,2020.1.3,MacIntel,60,,,,,,,,,,,,,,,,,,,,,,,,,,,,,,,
Image_List_1,,,,,space,1.139,space,0.956,0,2,2,2,1,ahead_right.jpg,ahead_right_path.jpg,44552,2020-11-17_16h39.55.750,analogCatScenes,2020.1.3,MacIntel,60,,,,,,,,,,,,,,,,,,,,,,,,,,,,,,,
Image_List_1,,,,,space,0.844,space,0.781,0,3,3,4,1,left.jpg,left_path.jpg,44552,2020-11-17_16h39.55.750,analogCatScenes,2020.1.3,MacIntel,60,,,,,,,,,,,,,,,,,,,,,,,,,,,,,,,
Image_List_1,,,,,space,4.046,space,0.68,0,4,4,5,1,right.jpg,right_path.jpg,44552,2020-11-17_16h39.55.750,analogCatScenes,2020.1.3,MacIntel,60,,,,,,,,,,,,,,,,,,,,,,,,,,,,,,,
Image_List_1,,,,,space,0.625,space,1.271,0,5,5,1,1,ahead_left.jpg,ahead_left_path.jpg,44552,2020-11-17_16h39.55.750,analogCatScenes,2020.1.3,MacIntel,60,,,,,,,,,,,,,,,,,,,,,,,,,,,,,,,
Image_List_1,,,,,space,1.153,space,4.867,0,6,6,6,1,right_left.jpg,right_left_path.jpg,44552,2020-11-17_16h39.55.750,analogCatScenes,2020.1.3,MacIntel,60,,,,,,,,,,,,,,,,,,,,,,,,,,,,,,,
Image_List_1,,,,,,,,,,,,,,,,44552,2020-11-17_16h39.55.750,analogCatScenes,2020.1.3,MacIntel,60,"[1440,900]",[],0,[],space,0.793,space,1.074,0,0,0,3,1,ahead_right_left_2.jpg,ahead_right_left_2_path.jpg,,,,,,,,,,,,,,,,
Image_List_1,,,,,,,,,,,,,,,,44552,2020-11-17_16h39.55.750,analogCatScenes,2020.1.3,MacIntel,60,"[1440,900]","[[[0.0011111111111111111,-0.19333333333333333],[0.0011111111111111111,-0.19333333333333333],[0.0011111111111111111,-0.19333333333333333],[0.0011111111111111111,-0.19333333333333333],[0.0011111111111111111,-0.19333333333333333],[0.0011111111111111111,-0.19333333333333333],[0.0011111111111111111,-0.19333333333333333],[0.0011111111111111111,-0.19333333333333333],[0.0011111111111111111,-0.19333333333333333],[0.0011111111111111111,-0.19333333333333333],[0.0011111111111111111,-0.19333333333333333],[0.0011111111111111111,-0.19333333333333333],[0.0011111111111111111,-0.18777777777777777],[0.0011111111111111111,-0.17777777777777778],[0.0011111111111111111,-0.15777777777777777],[0.0011111111111111111,-0.13666666666666666],[0.0011111111111111111,-0.12111111111111111],[0.0011111111111111111,-0.09888888888888889],[0.0011111111111111111,-0.06666666666666667],[0.0011111111111111111,-0.04888888888888889],[0.0022222222222222222,-0.03333333333333333],[0.0044444444444444444,-0.017777777777777778],[0.005555555555555556,-0.0033333333333333335],[0.0077777777777777776,0.01],[0.008888888888888889,0.023333333333333334],[0.01,0.034444444444444444],[0.011111111111111112,0.042222222222222223],[0.012222222222222223,0.05333333333333334],[0.012222222222222223,0.06111111111111111],[0.012222222222222223,0.07],[0.013333333333333334,0.07666666666666666],[0.014444444444444444,0.08444444444444445],[0.015555555555555555,0.09222222222222222],[0.016666666666666666,0.09777777777777778],[0.017777777777777778,0.10444444444444445],[0.017777777777777778,0.1111111111111111],[0.01888888888888889,0.11888888888888889],[0.01888888888888889,0.12777777777777777],[0.02,0.13333333333333333],[0.02,0.14],[0.021111111111111112,0.14666666666666667],[0.021111111111111112,0.1511111111111111],[0.022222222222222223,0.15555555555555556],[0.022222222222222223,0.15777777777777777],[0.022222222222222223,0.16111111111111112],[0.022222222222222223,0.1622222222222222],[0.022222222222222223,0.16333333333333333],[0.022222222222222223,0.16555555555555557],[0.022222222222222223,0.16666666666666666],[0.022222222222222223,0.16777777777777778],[0.022222222222222223,0.16777777777777778],[0.022222222222222223,0.17],[0.022222222222222223,0.1711111111111111],[0.022222222222222223,0.17222222222222222],[0.022222222222222223,0.17333333333333334],[0.022222222222222223,0.17444444444444446],[0.022222222222222223,0.17555555555555555],[0.022222222222222223,0.17555555555555555],[0.022222222222222223,0.17666666666666667],[0.022222222222222223,0.17777777777777778],[0.022222222222222223,0.17777777777777778],[0.022222222222222223,0.17777777777777778],[0.022222222222222223,0.17888888888888888],[0.022222222222222223,0.17888888888888888],[0.022222222222222223,0.17888888888888888],[0.023333333333333334,0.17666666666666667]]]",1,[66],space,10.154,space,1.574,0,1,1,0,1,ahead_2.jpg,ahead_2_path.jpg,,,,,,,,,,,,,,,,
Image_List_1,,,,,,,,,,,,,,,,44552,2020-11-17_16h39.55.750,analogCatScenes,2020.1.3,MacIntel,60,"[1440,900]","[[[-0.0022222222222222222,-0.1988888888888889],[-0.0022222222222222222,-0.1988888888888889],[-0.0022222222222222222,-0.1988888888888889],[-0.0022222222222222222,-0.1988888888888889],[-0.0022222222222222222,-0.1988888888888889],[-0.0022222222222222222,-0.1988888888888889],[-0.0022222222222222222,-0.1988888888888889],[-0.0022222222222222222,-0.1988888888888889],[-0.0022222222222222222,-0.1988888888888889],[-0.0022222222222222222,-0.19333333333333333],[-0.0022222222222222222,-0.17666666666666667],[-0.0022222222222222222,-0.14888888888888888],[-0.0022222222222222222,-0.11444444444444445],[-0.0022222222222222222,-0.08777777777777777],[-0.0022222222222222222,-0.058888888888888886],[-0.0022222222222222222,-0.03666666666666667],[-0.0022222222222222222,-0.01888888888888889],[-0.0022222222222222222,-0.0044444444444444444],[-0.0022222222222222222,0.0077777777777777776],[-0.0022222222222222222,0.015555555555555555],[-0.0022222222222222222,0.022222222222222223],[-0.0011111111111111111,0.028888888888888888],[0,0.034444444444444444],[0.0022222222222222222,0.04],[0.0033333333333333335,0.04555555555555556],[0.005555555555555556,0.051111111111111114],[0.006666666666666667,0.056666666666666664],[0.0077777777777777776,0.06111111111111111],[0.01,0.06888888888888889],[0.011111111111111112,0.07444444444444444],[0.013333333333333334,0.0811111111111111],[0.015555555555555555,0.08555555555555555],[0.016666666666666666,0.09111111111111111],[0.017777777777777778,0.09444444444444444],[0.01888888888888889,0.09666666666666666],[0.01888888888888889,0.09888888888888889],[0.02,0.10222222222222223],[0.021111111111111112,0.10666666666666667],[0.022222222222222223,0.11],[0.023333333333333334,0.11333333333333333],[0.024444444444444446,0.11555555555555555],[0.024444444444444446,0.11777777777777777],[0.025555555555555557,0.11888888888888889],[0.025555555555555557,0.12111111111111111],[0.025555555555555557,0.12333333333333334],[0.025555555555555557,0.12555555555555556],[0.02666666666666667,0.12666666666666668],[0.02666666666666667,0.1288888888888889],[0.02666666666666667,0.13111111111111112],[0.02666666666666667,0.13333333333333333],[0.02666666666666667,0.13555555555555557],[0.02666666666666667,0.1388888888888889],[0.02666666666666667,0.1411111111111111],[0.02666666666666667,0.14333333333333334],[0.02666666666666667,0.14555555555555555],[0.02666666666666667,0.14666666666666667],[0.02666666666666667,0.14888888888888888],[0.02666666666666667,0.1511111111111111],[0.02666666666666667,0.15222222222222223],[0.02666666666666667,0.15444444444444444],[0.02666666666666667,0.15666666666666668],[0.02666666666666667,0.15777777777777777],[0.02666666666666667,0.16],[0.02666666666666667,0.1622222222222222],[0.02666666666666667,0.16444444444444445],[0.02666666666666667,0.16555555555555557],[0.02666666666666667,0.16777777777777778],[0.02666666666666667,0.1688888888888889],[0.02666666666666667,0.1711111111111111],[0.02666666666666667,0.17333333333333334],[0.02666666666666667,0.17555555555555555],[0.02666666666666667,0.17666666666666667],[0.02666666666666667,0.17888888888888888],[0.02666666666666667,0.18],[0.02666666666666667,0.1811111111111111],[0.02666666666666667,0.18222222222222223],[0.02666666666666667,0.18222222222222223],[0.02666666666666667,0.18222222222222223],[0.02666666666666667,0.18333333333333332],[0.02666666666666667,0.18333333333333332],[0.02666666666666667,0.18333333333333332],[0.02666666666666667,0.18333333333333332],[0.02666666666666667,0.18333333333333332]]]",1,[83],space,3.824,space,2.62,0,2,2,1,1,ahead_left_2.jpg,ahead_left_2_path.jpg,,,,,,,,,,,,,,,,
Image_List_1,,,,,,,,,,,,,,,,44552,2020-11-17_16h39.55.750,analogCatScenes,2020.1.3,MacIntel,60,"[1440,900]","[[[-0.0022222222222222222,-0.21],[-0.0022222222222222222,-0.21],[-0.0022222222222222222,-0.21],[-0.0022222222222222222,-0.21],[-0.0022222222222222222,-0.21],[-0.0022222222222222222,-0.21],[-0.0022222222222222222,-0.21],[-0.0022222222222222222,-0.21],[-0.0022222222222222222,-0.21],[-0.0022222222222222222,-0.21],[-0.0022222222222222222,-0.21],[-0.0022222222222222222,-0.21],[-0.0022222222222222222,-0.20777777777777778],[0.0033333333333333335,-0.1988888888888889],[0.01,-0.19],[0.021111111111111112,-0.17555555555555555],[0.034444444444444444,-0.16111111111111112],[0.04666666666666667,-0.14555555555555555],[0.056666666666666664,-0.13444444444444445],[0.06555555555555556,-0.12555555555555556],[0.07333333333333333,-0.11666666666666667],[0.0811111111111111,-0.10777777777777778],[0.08888888888888889,-0.09888888888888889],[0.09888888888888889,-0.08555555555555555],[0.10555555555555556,-0.07777777777777778],[0.11,-0.07333333333333333],[0.11666666666666667,-0.06888888888888889],[0.12111111111111111,-0.06444444444444444],[0.12555555555555556,-0.06111111111111111],[0.13,-0.057777777777777775],[0.13555555555555557,-0.05333333333333334],[0.1388888888888889,-0.051111111111111114],[0.14444444444444443,-0.04777777777777778],[0.15,-0.04555555555555556],[0.15555555555555556,-0.042222222222222223],[0.16,-0.04],[0.16444444444444445,-0.03777777777777778],[0.1688888888888889,-0.035555555555555556],[0.17222222222222222,-0.03333333333333333],[0.17666666666666667,-0.03222222222222222],[0.18222222222222223,-0.03],[0.18666666666666668,-0.027777777777777776],[0.1922222222222222,-0.025555555555555557],[0.19666666666666666,-0.024444444444444446],[0.2011111111111111,-0.022222222222222223],[0.20444444444444446,-0.02],[0.2088888888888889,-0.01888888888888889],[0.21666666666666667,-0.014444444444444444],[0.22111111111111112,-0.013333333333333334],[0.22333333333333333,-0.012222222222222223],[0.2311111111111111,-0.0077777777777777776],[0.23555555555555555,-0.005555555555555556],[0.2411111111111111,-0.0022222222222222222],[0.24555555555555555,0],[0.25,0.0022222222222222222],[0.2544444444444444,0.0033333333333333335],[0.2577777777777778,0.0044444444444444444],[0.2611111111111111,0.005555555555555556],[0.2644444444444444,0.006666666666666667],[0.2688888888888889,0.0077777777777777776],[0.2733333333333333,0.008888888888888889],[0.27666666666666667,0.01],[0.28,0.01],[0.2833333333333333,0.011111111111111112],[0.2877777777777778,0.012222222222222223],[0.2922222222222222,0.013333333333333334],[0.29777777777777775,0.013333333333333334],[0.3011111111111111,0.014444444444444444],[0.3055555555555556,0.015555555555555555],[0.3088888888888889,0.015555555555555555],[0.31222222222222223,0.016666666666666666],[0.31333333333333335,0.016666666666666666],[0.31333333333333335,0.017777777777777778],[0.31444444444444447,0.017777777777777778],[0.31555555555555553,0.017777777777777778],[0.31555555555555553,0.017777777777777778],[0.31555555555555553,0.017777777777777778],[0.31555555555555553,0.017777777777777778],[0.31555555555555553,0.017777777777777778]]]",1,[79],space,5.728,space,18.12,0,3,3,5,1,right_2.jpg,right_2_path.jpg,,,,,,,,,,,,,,,,
Image_List_1,,,,,,,,,,,,,,,,44552,2020-11-17_16h39.55.750,analogCatScenes,2020.1.3,MacIntel,60,"[1440,900]","[[[-0.0044444444444444444,-0.1988888888888889],[-0.0044444444444444444,-0.1988888888888889],[-0.0044444444444444444,-0.1988888888888889],[-0.0044444444444444444,-0.1988888888888889],[-0.0044444444444444444,-0.1988888888888889],[-0.0044444444444444444,-0.1988888888888889],[-0.0044444444444444444,-0.1988888888888889],[-0.0044444444444444444,-0.1988888888888889],[-0.0044444444444444444,-0.1988888888888889],[-0.0044444444444444444,-0.19555555555555557],[-0.0044444444444444444,-0.18888888888888888],[-0.0044444444444444444,-0.17888888888888888],[-0.0044444444444444444,-0.15666666666666668],[-0.0044444444444444444,-0.13333333333333333],[-0.0044444444444444444,-0.11444444444444445],[-0.0044444444444444444,-0.09111111111111111],[-0.0044444444444444444,-0.06777777777777778],[-0.0044444444444444444,-0.04888888888888889],[-0.0044444444444444444,-0.03],[-0.005555555555555556,-0.012222222222222223],[-0.006666666666666667,0.0033333333333333335],[-0.0077777777777777776,0.015555555555555555],[-0.0077777777777777776,0.02666666666666667],[-0.0077777777777777776,0.03333333333333333],[-0.008888888888888889,0.04],[-0.01,0.04777777777777778],[-0.011111111111111112,0.05333333333333334],[-0.012222222222222223,0.058888888888888886],[-0.014444444444444444,0.06444444444444444],[-0.015555555555555555,0.07222222222222222],[-0.016666666666666666,0.07666666666666666],[-0.017777777777777778,0.0811111111111111],[-0.01888888888888889,0.08444444444444445],[-0.02,0.08888888888888889],[-0.02,0.09222222222222222],[-0.02,0.09555555555555556],[-0.021111111111111112,0.09888888888888889],[-0.022222222222222223,0.10111111111111111],[-0.022222222222222223,0.10333333333333333],[-0.022222222222222223,0.10444444444444445],[-0.023333333333333334,0.10555555555555556],[-0.023333333333333334,0.10666666666666667],[-0.023333333333333334,0.10666666666666667],[-0.023333333333333334,0.10777777777777778],[-0.023333333333333334,0.10777777777777778],[-0.023333333333333334,0.10777777777777778],[-0.023333333333333334,0.10777777777777778],[-0.023333333333333334,0.10777777777777778]],[[-0.0011111111111111111,-0.19],[-0.0011111111111111111,-0.19],[-0.0011111111111111111,-0.19],[-0.0011111111111111111,-0.19],[-0.0011111111111111111,-0.19],[-0.0011111111111111111,-0.19],[-0.0011111111111111111,-0.19],[-0.0011111111111111111,-0.19],[-0.0011111111111111111,-0.19],[-0.0011111111111111111,-0.19],[0.0011111111111111111,-0.19],[0.005555555555555556,-0.18666666666666668],[0.014444444444444444,-0.17888888888888888],[0.02666666666666667,-0.1711111111111111],[0.04,-0.16],[0.052222222222222225,-0.1511111111111111],[0.06555555555555556,-0.14333333333333334],[0.07666666666666666,-0.13666666666666666],[0.08777777777777777,-0.1322222222222222],[0.09444444444444444,-0.1288888888888889],[0.10888888888888888,-0.12444444444444444],[0.11666666666666667,-0.12333333333333334],[0.12666666666666668,-0.12222222222222222],[0.13777777777777778,-0.12111111111111111],[0.1511111111111111,-0.11888888888888889],[0.16444444444444445,-0.11888888888888889],[0.17888888888888888,-0.11666666666666667],[0.19333333333333333,-0.11555555555555555],[0.20444444444444446,-0.11444444444444445],[0.21666666666666667,-0.11222222222222222],[0.22777777777777777,-0.1111111111111111],[0.24,-0.11],[0.24888888888888888,-0.10888888888888888],[0.2577777777777778,-0.10777777777777778],[0.2688888888888889,-0.10666666666666667],[0.27444444444444444,-0.10666666666666667],[0.2833333333333333,-0.10555555555555556],[0.28888888888888886,-0.10444444444444445],[0.29444444444444445,-0.10444444444444445],[0.3,-0.10444444444444445],[0.30333333333333334,-0.10333333333333333],[0.3055555555555556,-0.10333333333333333],[0.30666666666666664,-0.10333333333333333],[0.30777777777777776,-0.10333333333333333],[0.30777777777777776,-0.10333333333333333],[0.3088888888888889,-0.10333333333333333],[0.3088888888888889,-0.10333333333333333],[0.3088888888888889,-0.10333333333333333],[0.3088888888888889,-0.10333333333333333],[0.3088888888888889,-0.10333333333333333]]]",2,"[48,50]",space,5.36,space,1.348,0,4,4,2,1,ahead_right_2.jpg,ahead_right_2_path.jpg,,,,,,,,,,,,,,,,
Image_List_1,,,,,,,,,,,,,,,,44552,2020-11-17_16h39.55.750,analogCatScenes,2020.1.3,MacIntel,60,"[1440,900]","[[[-0.0022222222222222222,-0.2011111111111111],[-0.0022222222222222222,-0.2011111111111111],[-0.0022222222222222222,-0.2011111111111111],[-0.0022222222222222222,-0.2011111111111111],[-0.0022222222222222222,-0.2011111111111111],[-0.0022222222222222222,-0.2011111111111111],[-0.0022222222222222222,-0.2011111111111111],[-0.0022222222222222222,-0.2011111111111111],[-0.0022222222222222222,-0.2011111111111111],[-0.0022222222222222222,-0.2011111111111111],[-0.0022222222222222222,-0.2011111111111111],[-0.0022222222222222222,-0.2011111111111111],[-0.0022222222222222222,-0.2011111111111111],[-0.0022222222222222222,-0.2011111111111111],[-0.0022222222222222222,-0.2011111111111111],[-0.0022222222222222222,-0.2011111111111111],[-0.0022222222222222222,-0.2011111111111111],[-0.0022222222222222222,-0.2011111111111111],[-0.0022222222222222222,-0.2],[-0.0022222222222222222,-0.1988888888888889],[-0.0022222222222222222,-0.19777777777777777],[-0.0022222222222222222,-0.19777777777777777],[-0.0022222222222222222,-0.19555555555555557],[-0.0033333333333333335,-0.1922222222222222],[-0.0033333333333333335,-0.19],[-0.0033333333333333335,-0.18666666666666668],[-0.0044444444444444444,-0.18333333333333332],[-0.0044444444444444444,-0.17888888888888888],[-0.005555555555555556,-0.17333333333333334],[-0.006666666666666667,-0.1688888888888889],[-0.006666666666666667,-0.16333333333333333],[-0.0077777777777777776,-0.15777777777777777],[-0.008888888888888889,-0.15333333333333332],[-0.01,-0.14888888888888888],[-0.011111111111111112,-0.14444444444444443],[-0.011111111111111112,-0.1411111111111111],[-0.013333333333333334,-0.13666666666666666],[-0.014444444444444444,-0.1288888888888889],[-0.016666666666666666,-0.12222222222222222],[-0.021111111111111112,-0.11222222222222222],[-0.023333333333333334,-0.10444444444444445],[-0.025555555555555557,-0.09777777777777778],[-0.028888888888888888,-0.09222222222222222],[-0.03222222222222222,-0.08333333333333333],[-0.035555555555555556,-0.07666666666666666],[-0.04111111111111111,-0.06666666666666667],[-0.044444444444444446,-0.06111111111111111],[-0.04888888888888889,-0.05333333333333334],[-0.052222222222222225,-0.04777777777777778],[-0.056666666666666664,-0.04],[-0.06111111111111111,-0.03333333333333333],[-0.06555555555555556,-0.02666666666666667],[-0.07111111111111111,-0.02],[-0.07555555555555556,-0.014444444444444444],[-0.08222222222222222,-0.006666666666666667],[-0.08888888888888889,0.0011111111111111111],[-0.09444444444444444,0.008888888888888889],[-0.10111111111111111,0.016666666666666666],[-0.10666666666666667,0.023333333333333334],[-0.11333333333333333,0.03],[-0.12,0.035555555555555556],[-0.12777777777777777,0.042222222222222223],[-0.14,0.05333333333333334],[-0.14666666666666667,0.06222222222222222],[-0.15333333333333332,0.06888888888888889],[-0.16,0.07555555555555556],[-0.16777777777777778,0.08333333333333333],[-0.17444444444444446,0.09],[-0.18,0.09444444444444444],[-0.18666666666666668,0.1],[-0.1922222222222222,0.10444444444444445],[-0.2,0.1111111111111111],[-0.20555555555555555,0.11555555555555555],[-0.2111111111111111,0.11888888888888889],[-0.21888888888888888,0.12222222222222222],[-0.22555555555555556,0.12555555555555556],[-0.23222222222222222,0.1288888888888889],[-0.23666666666666666,0.1322222222222222],[-0.24333333333333335,0.13444444444444445],[-0.25,0.13666666666666666],[-0.25555555555555554,0.1388888888888889],[-0.26,0.1411111111111111],[-0.2633333333333333,0.14222222222222222],[-0.26555555555555554,0.14333333333333334],[-0.26666666666666666,0.14444444444444443],[-0.2677777777777778,0.14555555555555555],[-0.2677777777777778,0.14666666666666667],[-0.2677777777777778,0.14666666666666667],[-0.2677777777777778,0.14666666666666667],[-0.2677777777777778,0.14666666666666667]],[[-0.006666666666666667,-0.1988888888888889],[-0.006666666666666667,-0.1988888888888889],[-0.006666666666666667,-0.1988888888888889],[-0.006666666666666667,-0.1988888888888889],[-0.006666666666666667,-0.1988888888888889],[-0.006666666666666667,-0.1988888888888889],[-0.006666666666666667,-0.1988888888888889],[-0.006666666666666667,-0.1988888888888889],[-0.006666666666666667,-0.1988888888888889],[-0.006666666666666667,-0.1988888888888889],[-0.0044444444444444444,-0.19777777777777777],[-0.0011111111111111111,-0.19444444444444445],[0,-0.19333333333333333],[0.0022222222222222222,-0.19],[0.0033333333333333335,-0.18777777777777777],[0.005555555555555556,-0.18666666666666668],[0.006666666666666667,-0.18444444444444444],[0.0077777777777777776,-0.18333333333333332],[0.01,-0.1811111111111111],[0.011111111111111112,-0.18],[0.013333333333333334,-0.17777777777777778],[0.016666666666666666,-0.17555555555555555],[0.021111111111111112,-0.17222222222222222],[0.02666666666666667,-0.1688888888888889],[0.03111111111111111,-0.16555555555555557],[0.03777777777777778,-0.16111111111111112],[0.04555555555555556,-0.15666666666666668],[0.05444444444444444,-0.15],[0.06222222222222222,-0.14666666666666667],[0.06888888888888889,-0.14333333333333334],[0.07555555555555556,-0.14],[0.08444444444444445,-0.13777777777777778],[0.09111111111111111,-0.13444444444444445],[0.09666666666666666,-0.1322222222222222],[0.10333333333333333,-0.13111111111111112],[0.1111111111111111,-0.1288888888888889],[0.11666666666666667,-0.12777777777777777],[0.12222222222222222,-0.12666666666666668],[0.1288888888888889,-0.12555555555555556],[0.13555555555555557,-0.12555555555555556],[0.14333333333333334,-0.12444444444444444],[0.1511111111111111,-0.12444444444444444],[0.15888888888888889,-0.12444444444444444],[0.16666666666666666,-0.12444444444444444],[0.17555555555555555,-0.12444444444444444],[0.18555555555555556,-0.12444444444444444],[0.19666666666666666,-0.12444444444444444],[0.2088888888888889,-0.12555555555555556],[0.22,-0.12666666666666668],[0.23222222222222222,-0.1288888888888889],[0.25222222222222224,-0.1322222222222222],[0.2577777777777778,-0.1322222222222222],[0.27555555555555555,-0.13555555555555557],[0.28888888888888886,-0.13666666666666666],[0.30444444444444446,-0.13666666666666666],[0.31333333333333335,-0.13777777777777778],[0.3233333333333333,-0.13777777777777778],[0.3277777777777778,-0.13777777777777778],[0.3322222222222222,-0.13777777777777778],[0.3333333333333333,-0.13777777777777778],[0.33444444444444443,-0.1388888888888889],[0.33555555555555555,-0.1388888888888889],[0.33555555555555555,-0.1388888888888889],[0.33555555555555555,-0.1388888888888889],[0.33555555555555555,-0.1388888888888889],[0.33555555555555555,-0.1388888888888889],[0.33555555555555555,-0.1388888888888889]]]",2,"[90,67]",space,6.355,space,1.333,0,5,5,4,1,left_2.jpg,left_2_path.jpg,,,,,,,,,,,,,,,,
Image_List_1,,,,,,,,,,,,,,,,44552,2020-11-17_16h39.55.750,analogCatScenes,2020.1.3,MacIntel,60,"[1440,900]","[[[0,-0.20333333333333334],[0,-0.20333333333333334],[0,-0.20333333333333334],[0,-0.20333333333333334],[0,-0.20333333333333334],[0,-0.20333333333333334],[0,-0.20222222222222222],[0,-0.19777777777777777],[0,-0.18444444444444444],[0,-0.17],[-0.0022222222222222222,-0.15222222222222223],[-0.005555555555555556,-0.12666666666666668],[-0.008888888888888889,-0.10777777777777778],[-0.016666666666666666,-0.08],[-0.021111111111111112,-0.058888888888888886],[-0.025555555555555557,-0.042222222222222223],[-0.03,-0.02666666666666667],[-0.03333333333333333,-0.014444444444444444],[-0.04111111111111111,0.0022222222222222222],[-0.04888888888888889,0.016666666666666666],[-0.056666666666666664,0.03],[-0.06444444444444444,0.04111111111111111],[-0.07333333333333333,0.05555555555555555],[-0.07777777777777778,0.06444444444444444],[-0.08444444444444445,0.07333333333333333],[-0.09,0.08333333333333333],[-0.09555555555555556,0.09333333333333334],[-0.10333333333333333,0.10444444444444445],[-0.1111111111111111,0.11555555555555555],[-0.11888888888888889,0.12444444444444444],[-0.12555555555555556,0.1322222222222222],[-0.13111111111111112,0.14],[-0.13666666666666666,0.14888888888888888],[-0.14444444444444443,0.15777777777777777],[-0.15222222222222223,0.16777777777777778],[-0.15888888888888889,0.17333333333333334],[-0.16555555555555557,0.1811111111111111],[-0.1711111111111111,0.18666666666666668],[-0.17555555555555555,0.19111111111111112],[-0.17888888888888888,0.19555555555555557],[-0.18222222222222223,0.2],[-0.18555555555555556,0.20444444444444446],[-0.18666666666666668,0.20777777777777778],[-0.18888888888888888,0.2088888888888889],[-0.18888888888888888,0.21],[-0.18888888888888888,0.2111111111111111],[-0.18888888888888888,0.2111111111111111],[-0.18888888888888888,0.2111111111111111],[-0.18888888888888888,0.21],[-0.18888888888888888,0.2088888888888889]],[[-0.0011111111111111111,-0.1988888888888889],[-0.0011111111111111111,-0.1988888888888889],[-0.0011111111111111111,-0.1988888888888889],[-0.0011111111111111111,-0.1988888888888889],[-0.0011111111111111111,-0.1988888888888889],[-0.0011111111111111111,-0.1988888888888889],[-0.0011111111111111111,-0.1988888888888889],[-0.0011111111111111111,-0.1988888888888889],[-0.0011111111111111111,-0.1988888888888889],[-0.0011111111111111111,-0.19555555555555557],[-0.0011111111111111111,-0.19],[-0.0011111111111111111,-0.18],[-0.0011111111111111111,-0.16666666666666666],[-0.0011111111111111111,-0.1511111111111111],[0,-0.1288888888888889],[0.0022222222222222222,-0.1111111111111111],[0.0044444444444444444,-0.09222222222222222],[0.0077777777777777776,-0.07333333333333333],[0.012222222222222223,-0.05555555555555555],[0.016666666666666666,-0.04111111111111111],[0.02,-0.027777777777777776],[0.023333333333333334,-0.015555555555555555],[0.027777777777777776,-0.005555555555555556],[0.03,0.0044444444444444444],[0.03333333333333333,0.015555555555555555],[0.03777777777777778,0.027777777777777776],[0.043333333333333335,0.04111111111111111],[0.04888888888888889,0.05444444444444444],[0.05444444444444444,0.06666666666666667],[0.06111111111111111,0.07888888888888888],[0.06666666666666667,0.09333333333333334],[0.07666666666666666,0.11333333333333333],[0.08333333333333333,0.1288888888888889],[0.09111111111111111,0.14222222222222222],[0.1,0.15555555555555556],[0.10777777777777778,0.16777777777777778],[0.1111111111111111,0.17444444444444446],[0.11666666666666667,0.18222222222222223],[0.12,0.18777777777777777],[0.12444444444444444,0.1922222222222222],[0.12777777777777777,0.19666666666666666],[0.13111111111111112,0.2],[0.13444444444444445,0.20333333333333334],[0.13777777777777778,0.20666666666666667],[0.1411111111111111,0.2088888888888889],[0.14444444444444443,0.2111111111111111],[0.14777777777777779,0.21333333333333335],[0.15,0.21444444444444444],[0.15222222222222223,0.21666666666666667],[0.15444444444444444,0.21777777777777776],[0.15555555555555556,0.21777777777777776],[0.15666666666666668,0.21888888888888888],[0.15777777777777777,0.22],[0.15888888888888889,0.22],[0.15888888888888889,0.22],[0.15888888888888889,0.22],[0.15888888888888889,0.22],[0.15888888888888889,0.22],[0.15888888888888889,0.22],[0.15888888888888889,0.22]]]",2,"[50,60]",space,5.027,space,2.401,0,6,6,6,1,right_left_2.jpg,right_left_2_path.jpg,,,,,,,,,,,,,,,,
Image_List_1,,,,,,,,,,,,,,,,44552,2020-11-17_16h39.55.750,analogCatScenes,2020.1.3,MacIntel,60,"[1440,900]","[[[0.0011111111111111111,-0.19666666666666666],[0.0011111111111111111,-0.19666666666666666],[0.0011111111111111111,-0.19666666666666666],[0.0011111111111111111,-0.19666666666666666],[0.0011111111111111111,-0.19666666666666666],[0.0011111111111111111,-0.19666666666666666],[0.0011111111111111111,-0.19666666666666666],[0.0011111111111111111,-0.19666666666666666],[0.0011111111111111111,-0.19666666666666666],[0.0011111111111111111,-0.19666666666666666],[0.0011111111111111111,-0.19333333333333333],[0.0011111111111111111,-0.18555555555555556],[0.0011111111111111111,-0.17666666666666667],[0.0011111111111111111,-0.16666666666666666],[0.0011111111111111111,-0.15555555555555556],[0.0011111111111111111,-0.14444444444444443],[0.0011111111111111111,-0.13111111111111112],[0.0022222222222222222,-0.11777777777777777],[0.0044444444444444444,-0.10222222222222223],[0.0077777777777777776,-0.08666666666666667],[0.01,-0.07222222222222222],[0.011111111111111112,-0.06333333333333334],[0.013333333333333334,-0.05333333333333334],[0.014444444444444444,-0.04555555555555556],[0.015555555555555555,-0.03777777777777778],[0.015555555555555555,-0.028888888888888888],[0.015555555555555555,-0.022222222222222223],[0.015555555555555555,-0.015555555555555555],[0.015555555555555555,-0.01],[0.015555555555555555,-0.006666666666666667],[0.015555555555555555,-0.0033333333333333335],[0.015555555555555555,-0.0011111111111111111],[0.015555555555555555,0.0011111111111111111],[0.015555555555555555,0.0022222222222222222],[0.015555555555555555,0.0033333333333333335],[0.016666666666666666,0.005555555555555556]]]",1,[36],,,,,,,,,,,,space,4.679,greenhouse2.jpg,space,2.937,0,0,0,54,1,horsebarn11.jpg,gazebo2.jpg,homegarage4.jpg,frontFoyer.jpg,,
Image_List_1,,,,,,,,,,,,,,,,44552,2020-11-17_16h39.55.750,analogCatScenes,2020.1.3,MacIntel,60,"[1440,900]","[[[-0.01,-0.19333333333333333],[-0.01,-0.19333333333333333],[-0.01,-0.19333333333333333],[-0.01,-0.19333333333333333],[-0.01,-0.19333333333333333],[-0.01,-0.19333333333333333],[-0.01,-0.19333333333333333],[-0.01,-0.19333333333333333],[-0.011111111111111112,-0.19333333333333333],[-0.016666666666666666,-0.19333333333333333],[-0.03222222222222222,-0.19333333333333333],[-0.05,-0.19333333333333333],[-0.06222222222222222,-0.19333333333333333],[-0.07666666666666666,-0.19333333333333333],[-0.08333333333333333,-0.19333333333333333],[-0.09333333333333334,-0.19333333333333333],[-0.09555555555555556,-0.19333333333333333],[-0.10111111111111111,-0.19],[-0.10666666666666667,-0.18777777777777777],[-0.1111111111111111,-0.18444444444444444],[-0.11333333333333333,-0.18222222222222223],[-0.11555555555555555,-0.18],[-0.11666666666666667,-0.17888888888888888],[-0.11777777777777777,-0.17777777777777778],[-0.12,-0.17555555555555555],[-0.12111111111111111,-0.17222222222222222],[-0.12333333333333334,-0.1688888888888889],[-0.12444444444444444,-0.16555555555555557],[-0.12666666666666668,-0.1622222222222222],[-0.13,-0.15777777777777777],[-0.1322222222222222,-0.15444444444444444],[-0.1322222222222222,-0.15222222222222223],[-0.13666666666666666,-0.14444444444444443],[-0.1388888888888889,-0.1388888888888889],[-0.1411111111111111,-0.13333333333333333],[-0.14444444444444443,-0.12555555555555556],[-0.14777777777777779,-0.11888888888888889],[-0.15,-0.11333333333333333],[-0.15444444444444444,-0.10222222222222223],[-0.15666666666666668,-0.09666666666666666],[-0.15777777777777777,-0.09222222222222222],[-0.16111111111111112,-0.08333333333333333],[-0.1622222222222222,-0.07666666666666666],[-0.16333333333333333,-0.07111111111111111],[-0.16444444444444445,-0.06555555555555556],[-0.16555555555555557,-0.06],[-0.16666666666666666,-0.05555555555555555],[-0.16666666666666666,-0.051111111111111114],[-0.16666666666666666,-0.04777777777777778],[-0.16666666666666666,-0.044444444444444446],[-0.16666666666666666,-0.042222222222222223],[-0.16666666666666666,-0.04],[-0.16666666666666666,-0.03666666666666667],[-0.16666666666666666,-0.034444444444444444],[-0.16666666666666666,-0.03222222222222222],[-0.16666666666666666,-0.03],[-0.16555555555555557,-0.027777777777777776],[-0.16555555555555557,-0.02666666666666667],[-0.16555555555555557,-0.025555555555555557],[-0.16555555555555557,-0.023333333333333334],[-0.16444444444444445,-0.022222222222222223],[-0.16444444444444445,-0.021111111111111112],[-0.16333333333333333,-0.01888888888888889],[-0.16333333333333333,-0.017777777777777778],[-0.1622222222222222,-0.016666666666666666],[-0.1622222222222222,-0.015555555555555555],[-0.1622222222222222,-0.014444444444444444],[-0.1622222222222222,-0.014444444444444444],[-0.1622222222222222,-0.014444444444444444]],[[0.005555555555555556,-0.2011111111111111],[0.005555555555555556,-0.2011111111111111],[0.005555555555555556,-0.2011111111111111],[0.005555555555555556,-0.2011111111111111],[0.005555555555555556,-0.2011111111111111],[0.005555555555555556,-0.2011111111111111],[0.005555555555555556,-0.2011111111111111],[0.006666666666666667,-0.2011111111111111],[0.01,-0.2011111111111111],[0.015555555555555555,-0.2011111111111111],[0.024444444444444446,-0.2011111111111111],[0.034444444444444444,-0.2011111111111111],[0.04555555555555556,-0.2011111111111111],[0.057777777777777775,-0.2011111111111111],[0.07333333333333333,-0.2011111111111111],[0.08888888888888889,-0.2011111111111111],[0.10333333333333333,-0.2011111111111111],[0.12111111111111111,-0.2011111111111111],[0.13444444444444445,-0.2011111111111111],[0.14666666666666667,-0.2011111111111111],[0.16,-0.2011111111111111],[0.16666666666666666,-0.2011111111111111],[0.19555555555555557,-0.2011111111111111],[0.20777777777777778,-0.2011111111111111],[0.22,-0.2011111111111111],[0.23,-0.2011111111111111],[0.2411111111111111,-0.2011111111111111],[0.25,-0.2011111111111111],[0.2544444444444444,-0.2],[0.26555555555555554,-0.2],[0.27,-0.1988888888888889],[0.2733333333333333,-0.19777777777777777],[0.27666666666666667,-0.19777777777777777],[0.28,-0.19666666666666666],[0.2833333333333333,-0.19555555555555557],[0.2877777777777778,-0.19444444444444445],[0.29,-0.1922222222222222],[0.2922222222222222,-0.19111111111111112],[0.29333333333333333,-0.19],[0.29444444444444445,-0.18888888888888888],[0.29555555555555557,-0.18777777777777777],[0.2966666666666667,-0.18555555555555556],[0.2966666666666667,-0.18333333333333332],[0.29777777777777775,-0.1811111111111111],[0.29888888888888887,-0.17888888888888888],[0.29888888888888887,-0.17666666666666667],[0.3011111111111111,-0.1711111111111111],[0.3011111111111111,-0.17],[0.30333333333333334,-0.16666666666666666],[0.30444444444444446,-0.16555555555555557],[0.30444444444444446,-0.16444444444444445],[0.3055555555555556,-0.1622222222222222],[0.30666666666666664,-0.16],[0.30666666666666664,-0.15777777777777777],[0.30777777777777776,-0.15444444444444444],[0.3088888888888889,-0.15333333333333332],[0.3088888888888889,-0.15222222222222223],[0.31,-0.1511111111111111],[0.31,-0.15],[0.31,-0.14888888888888888],[0.31,-0.14888888888888888],[0.31,-0.14888888888888888],[0.31,-0.14888888888888888]]]",2,"[69,63]",,,,,,,,,,,,,,library_aisle10.jpg,space,5.057,0,1,1,66,1,office3.jpg,laundromat3.jpg,liquorstore.jpg,horsebarn9.jpg,,
Image_List_1,,,,,,,,,,,,,,,,44552,2020-11-17_16h39.55.750,analogCatScenes,2020.1.3,MacIntel,60,"[1440,900]","[[[-0.0044444444444444444,-0.19555555555555557],[-0.0044444444444444444,-0.19555555555555557],[-0.0044444444444444444,-0.19555555555555557],[-0.0044444444444444444,-0.19555555555555557],[-0.0044444444444444444,-0.19555555555555557],[-0.0044444444444444444,-0.19555555555555557],[-0.0044444444444444444,-0.19444444444444445],[-0.005555555555555556,-0.18555555555555556],[-0.01,-0.17222222222222222],[-0.013333333333333334,-0.15222222222222223],[-0.017777777777777778,-0.13111111111111112],[-0.01888888888888889,-0.11222222222222222],[-0.021111111111111112,-0.09222222222222222],[-0.024444444444444446,-0.07333333333333333],[-0.027777777777777776,-0.05555555555555555],[-0.03222222222222222,-0.042222222222222223],[-0.03666666666666667,-0.027777777777777776],[-0.04555555555555556,-0.008888888888888889],[-0.04666666666666667,-0.0022222222222222222],[-0.051111111111111114,0.0077777777777777776],[-0.057777777777777775,0.023333333333333334],[-0.06,0.03222222222222222],[-0.06222222222222222,0.042222222222222223],[-0.06444444444444444,0.04777777777777778],[-0.06666666666666667,0.05444444444444444],[-0.06777777777777778,0.06],[-0.07,0.06444444444444444],[-0.07222222222222222,0.06888888888888889],[-0.07333333333333333,0.07222222222222222],[-0.07555555555555556,0.07555555555555556],[-0.07666666666666666,0.07888888888888888],[-0.07777777777777778,0.08222222222222222],[-0.07888888888888888,0.08444444444444445],[-0.07888888888888888,0.08555555555555555],[-0.08,0.08777777777777777],[-0.08,0.08888888888888889],[-0.08,0.08888888888888889],[-0.08,0.08888888888888889]]]",1,[38],,,,,,,,,,,,,,attic3.jpg,space,3.325,0,2,2,8,1,banquetHall6.jpg,balconyIN.jpg,bar.jpg,applestore4.jpg,,
Image_List_1,,,,,,,,,,,,,,,,44552,2020-11-17_16h39.55.750,analogCatScenes,2020.1.3,MacIntel,60,"[1440,900]","[[[-0.0022222222222222222,-0.2],[-0.0022222222222222222,-0.2],[-0.0022222222222222222,-0.2],[-0.0022222222222222222,-0.2],[-0.0022222222222222222,-0.2],[-0.0022222222222222222,-0.2],[-0.0022222222222222222,-0.2],[-0.0022222222222222222,-0.1988888888888889],[-0.01,-0.18444444444444444],[-0.016666666666666666,-0.17222222222222222],[-0.02666666666666667,-0.15666666666666668],[-0.034444444444444444,-0.14444444444444443],[-0.043333333333333335,-0.1322222222222222],[-0.051111111111111114,-0.12333333333333334],[-0.06111111111111111,-0.11444444444444445],[-0.07111111111111111,-0.10555555555555556],[-0.08222222222222222,-0.09555555555555556],[-0.09111111111111111,-0.08777777777777777],[-0.1,-0.0811111111111111],[-0.10777777777777778,-0.07666666666666666],[-0.11444444444444445,-0.07222222222222222],[-0.12333333333333334,-0.06777777777777778],[-0.13,-0.06444444444444444],[-0.13777777777777778,-0.06222222222222222],[-0.14666666666666667,-0.058888888888888886],[-0.15333333333333332,-0.056666666666666664],[-0.15888888888888889,-0.05444444444444444],[-0.16555555555555557,-0.051111111111111114],[-0.17,-0.04888888888888889],[-0.17555555555555555,-0.04666666666666667],[-0.17888888888888888,-0.04555555555555556],[-0.18222222222222223,-0.044444444444444446],[-0.18666666666666668,-0.043333333333333335],[-0.18777777777777777,-0.043333333333333335],[-0.18777777777777777,-0.043333333333333335]],[[0,-0.1988888888888889],[0,-0.1988888888888889],[0,-0.1988888888888889],[0,-0.1988888888888889],[0,-0.1988888888888889],[0,-0.1988888888888889],[0,-0.1988888888888889],[0,-0.1988888888888889],[0,-0.19666666666666666],[0,-0.18555555555555556],[0,-0.16777777777777778],[0,-0.14444444444444443],[0,-0.12555555555555556],[0,-0.1],[0.0011111111111111111,-0.08],[0.0022222222222222222,-0.06888888888888889],[0.008888888888888889,-0.05444444444444444],[0.013333333333333334,-0.04777777777777778],[0.01888888888888889,-0.04111111111111111],[0.02666666666666667,-0.034444444444444444],[0.034444444444444444,-0.03],[0.04111111111111111,-0.025555555555555557],[0.051111111111111114,-0.021111111111111112],[0.06222222222222222,-0.016666666666666666],[0.07444444444444444,-0.012222222222222223],[0.08666666666666667,-0.008888888888888889],[0.09888888888888889,-0.005555555555555556],[0.1111111111111111,-0.0033333333333333335],[0.12444444444444444,-0.0022222222222222222],[0.13666666666666666,-0.0011111111111111111],[0.14777777777777779,0],[0.15555555555555556,0],[0.16666666666666666,0.0011111111111111111],[0.17444444444444446,0.0011111111111111111],[0.18,0.0011111111111111111],[0.18666666666666668,0.0011111111111111111],[0.19111111111111112,0.0011111111111111111],[0.19555555555555557,0.0011111111111111111],[0.1988888888888889,0],[0.20222222222222222,-0.0011111111111111111],[0.20666666666666667,-0.0022222222222222222],[0.2111111111111111,-0.0033333333333333335],[0.21777777777777776,-0.005555555555555556],[0.22111111111111112,-0.0077777777777777776],[0.2222222222222222,-0.008888888888888889],[0.22444444444444445,-0.01],[0.22555555555555556,-0.01],[0.22555555555555556,-0.011111111111111112],[0.22666666666666666,-0.011111111111111112],[0.22777777777777777,-0.012222222222222223],[0.22777777777777777,-0.012222222222222223],[0.22777777777777777,-0.012222222222222223],[0.2288888888888889,-0.012222222222222223],[0.2288888888888889,-0.012222222222222223],[0.2288888888888889,-0.012222222222222223],[0.2288888888888889,-0.013333333333333334]]]",2,"[35,56]",,,,,,,,,,,,,,frontLawn4.jpg,space,4.324,0,3,3,50,1,grocerystore6.jpg,forestpath6.jpg,hallway2.jpg,fireplace4.jpg,,
Image_List_1,,,,,,,,,,,,,,,,44552,2020-11-17_16h39.55.750,analogCatScenes,2020.1.3,MacIntel,60,"[1440,900]","[[[-0.01,-0.2088888888888889],[-0.01,-0.2088888888888889],[-0.01,-0.2088888888888889],[-0.01,-0.2088888888888889],[-0.01,-0.2088888888888889],[-0.01,-0.2088888888888889],[-0.01,-0.2088888888888889],[-0.01,-0.2088888888888889],[-0.01,-0.2088888888888889],[-0.01,-0.2088888888888889],[-0.01,-0.2088888888888889],[-0.01,-0.2088888888888889],[-0.01,-0.2088888888888889],[-0.01,-0.2088888888888889],[-0.01,-0.2088888888888889],[-0.01,-0.20777777777777778],[-0.01,-0.20555555555555555],[-0.01,-0.20222222222222222],[-0.01,-0.19666666666666666],[-0.008888888888888889,-0.19111111111111112],[-0.006666666666666667,-0.18555555555555556],[-0.0044444444444444444,-0.18],[-0.0022222222222222222,-0.17444444444444446],[0,-0.1688888888888889],[0.0011111111111111111,-0.16333333333333333],[0.0044444444444444444,-0.15666666666666668],[0.006666666666666667,-0.1511111111111111],[0.011111111111111112,-0.14444444444444443],[0.013333333333333334,-0.14],[0.016666666666666666,-0.13555555555555557],[0.01888888888888889,-0.13111111111111112],[0.023333333333333334,-0.12555555555555556],[0.025555555555555557,-0.12111111111111111],[0.03,-0.11444444444444445],[0.035555555555555556,-0.10777777777777778],[0.04,-0.09888888888888889],[0.04555555555555556,-0.09111111111111111],[0.05,-0.08333333333333333],[0.05444444444444444,-0.07888888888888888],[0.06,-0.07111111111111111],[0.06222222222222222,-0.06666666666666667],[0.06555555555555556,-0.06111111111111111],[0.06777777777777778,-0.056666666666666664],[0.07111111111111111,-0.05333333333333334],[0.07222222222222222,-0.05],[0.07444444444444444,-0.04777777777777778],[0.07555555555555556,-0.04555555555555556],[0.07666666666666666,-0.043333333333333335],[0.07777777777777778,-0.042222222222222223],[0.07888888888888888,-0.04],[0.08,-0.03888888888888889],[0.08222222222222222,-0.035555555555555556],[0.08333333333333333,-0.034444444444444444],[0.08333333333333333,-0.03333333333333333],[0.08333333333333333,-0.03222222222222222],[0.08444444444444445,-0.03222222222222222],[0.08444444444444445,-0.03222222222222222],[0.08444444444444445,-0.03222222222222222],[0.08444444444444445,-0.03222222222222222],[0.08444444444444445,-0.03222222222222222]],[[0.0033333333333333335,-0.2011111111111111],[0.0033333333333333335,-0.2011111111111111],[0.0033333333333333335,-0.2011111111111111],[0.0033333333333333335,-0.2011111111111111],[0.0033333333333333335,-0.2011111111111111],[0.0033333333333333335,-0.2011111111111111],[0.0033333333333333335,-0.2011111111111111],[0.0033333333333333335,-0.2011111111111111],[0.0022222222222222222,-0.2011111111111111],[0.0011111111111111111,-0.2],[-0.0022222222222222222,-0.19666666666666666],[-0.005555555555555556,-0.19444444444444445],[-0.01,-0.18888888888888888],[-0.015555555555555555,-0.18555555555555556],[-0.021111111111111112,-0.18],[-0.025555555555555557,-0.17666666666666667],[-0.03333333333333333,-0.17],[-0.042222222222222223,-0.1622222222222222],[-0.05333333333333334,-0.15222222222222223],[-0.06111111111111111,-0.14666666666666667],[-0.06777777777777778,-0.14],[-0.07555555555555556,-0.13333333333333333],[-0.0811111111111111,-0.12666666666666668],[-0.08666666666666667,-0.12111111111111111],[-0.09444444444444444,-0.11444444444444445],[-0.10111111111111111,-0.10666666666666667],[-0.10888888888888888,-0.1],[-0.11555555555555555,-0.09333333333333334],[-0.12,-0.09],[-0.12777777777777777,-0.08333333333333333],[-0.13333333333333333,-0.07666666666666666],[-0.1388888888888889,-0.07222222222222222],[-0.14666666666666667,-0.06555555555555556],[-0.15444444444444444,-0.057777777777777775],[-0.15888888888888889,-0.05444444444444444],[-0.16444444444444445,-0.04888888888888889],[-0.1688888888888889,-0.044444444444444446],[-0.17222222222222222,-0.04111111111111111],[-0.17444444444444446,-0.03777777777777778],[-0.17666666666666667,-0.035555555555555556],[-0.17777777777777778,-0.034444444444444444],[-0.18,-0.03222222222222222],[-0.18222222222222223,-0.03],[-0.18333333333333332,-0.028888888888888888],[-0.18333333333333332,-0.027777777777777776],[-0.18444444444444444,-0.02666666666666667],[-0.18444444444444444,-0.02666666666666667],[-0.18444444444444444,-0.02666666666666667],[-0.18444444444444444,-0.02666666666666667]]]",2,"[60,49]",,,,,,,,,,,,,,rooftop1.jpg,space,4.48,0,4,4,88,1,track.jpg,sculpturegarden4.jpg,soccerfield.jpg,sandbox.jpg,,
Image_List_1,,,,,,,,,,,,,,,,44552,2020-11-17_16h39.55.750,analogCatScenes,2020.1.3,MacIntel,60,"[1440,900]","[[[-0.005555555555555556,-0.20333333333333334],[-0.005555555555555556,-0.20333333333333334],[-0.005555555555555556,-0.20333333333333334],[-0.005555555555555556,-0.20333333333333334],[-0.005555555555555556,-0.20333333333333334],[-0.005555555555555556,-0.20333333333333334],[-0.0077777777777777776,-0.20333333333333334],[-0.01888888888888889,-0.20333333333333334],[-0.03,-0.20333333333333334],[-0.04555555555555556,-0.20333333333333334],[-0.06,-0.20333333333333334],[-0.07333333333333333,-0.20222222222222222],[-0.08222222222222222,-0.2],[-0.09,-0.19777777777777777],[-0.09888888888888889,-0.1922222222222222],[-0.11555555555555555,-0.18222222222222223],[-0.12,-0.17888888888888888],[-0.12666666666666668,-0.17444444444444446],[-0.13111111111111112,-0.1711111111111111],[-0.13555555555555557,-0.16777777777777778],[-0.1411111111111111,-0.16333333333333333],[-0.14888888888888888,-0.15666666666666668],[-0.15777777777777777,-0.15],[-0.16444444444444445,-0.14444444444444443],[-0.17333333333333334,-0.13666666666666666],[-0.17888888888888888,-0.13111111111111112],[-0.18666666666666668,-0.12444444444444444],[-0.19666666666666666,-0.11555555555555555],[-0.20666666666666667,-0.10555555555555556],[-0.21666666666666667,-0.09666666666666666],[-0.2222222222222222,-0.09111111111111111],[-0.2311111111111111,-0.08222222222222222],[-0.23666666666666666,-0.07555555555555556],[-0.24333333333333335,-0.06777777777777778],[-0.24888888888888888,-0.06111111111111111],[-0.25333333333333335,-0.05444444444444444],[-0.25666666666666665,-0.05],[-0.2588888888888889,-0.04555555555555556],[-0.26,-0.04111111111111111],[-0.26,-0.04],[-0.26,-0.03777777777777778],[-0.26,-0.035555555555555556],[-0.26,-0.034444444444444444],[-0.26,-0.034444444444444444],[-0.26,-0.03333333333333333],[-0.2588888888888889,-0.03333333333333333],[-0.2577777777777778,-0.03333333333333333],[-0.25666666666666665,-0.03333333333333333],[-0.2544444444444444,-0.03222222222222222],[-0.25222222222222224,-0.03222222222222222],[-0.24888888888888888,-0.03222222222222222],[-0.24666666666666667,-0.03222222222222222],[-0.24222222222222223,-0.03222222222222222],[-0.2388888888888889,-0.03111111111111111],[-0.23666666666666666,-0.03111111111111111],[-0.23333333333333334,-0.03111111111111111],[-0.2311111111111111,-0.03111111111111111],[-0.2288888888888889,-0.03111111111111111],[-0.22777777777777777,-0.03],[-0.22666666666666666,-0.03],[-0.22444444444444445,-0.03],[-0.22333333333333333,-0.028888888888888888],[-0.2222222222222222,-0.028888888888888888],[-0.22111111111111112,-0.028888888888888888],[-0.22111111111111112,-0.027777777777777776],[-0.22,-0.027777777777777776],[-0.22,-0.027777777777777776],[-0.22,-0.027777777777777776],[-0.22,-0.027777777777777776],[-0.22,-0.027777777777777776]],[[-0.0033333333333333335,-0.19777777777777777],[-0.0033333333333333335,-0.19777777777777777],[-0.0033333333333333335,-0.19777777777777777],[-0.0033333333333333335,-0.19777777777777777],[-0.0033333333333333335,-0.19777777777777777],[-0.0033333333333333335,-0.19777777777777777],[-0.0033333333333333335,-0.19777777777777777],[-0.0033333333333333335,-0.19777777777777777],[-0.0033333333333333335,-0.19777777777777777],[-0.0044444444444444444,-0.19666666666666666],[-0.0044444444444444444,-0.19444444444444445],[-0.005555555555555556,-0.19111111111111112],[-0.005555555555555556,-0.18888888888888888],[-0.005555555555555556,-0.18777777777777777],[-0.005555555555555556,-0.18666666666666668],[-0.005555555555555556,-0.18555555555555556],[-0.005555555555555556,-0.18555555555555556],[-0.005555555555555556,-0.18555555555555556],[-0.005555555555555556,-0.18444444444444444],[-0.005555555555555556,-0.18333333333333332],[-0.005555555555555556,-0.18222222222222223],[-0.005555555555555556,-0.18],[-0.005555555555555556,-0.17666666666666667],[-0.005555555555555556,-0.17444444444444446],[-0.005555555555555556,-0.17222222222222222],[-0.005555555555555556,-0.1688888888888889],[-0.005555555555555556,-0.16555555555555557],[-0.005555555555555556,-0.16333333333333333],[-0.005555555555555556,-0.16],[-0.0044444444444444444,-0.15666666666666668],[-0.0044444444444444444,-0.15444444444444444],[-0.0033333333333333335,-0.15222222222222223],[-0.0022222222222222222,-0.15],[-0.0022222222222222222,-0.14777777777777779],[-0.0011111111111111111,-0.14444444444444443],[-0.0011111111111111111,-0.14222222222222222],[0,-0.1388888888888889],[0.0011111111111111111,-0.13666666666666666],[0.0033333333333333335,-0.13333333333333333],[0.0044444444444444444,-0.13111111111111112],[0.005555555555555556,-0.12777777777777777],[0.0077777777777777776,-0.12555555555555556],[0.008888888888888889,-0.12222222222222222],[0.01,-0.12],[0.012222222222222223,-0.11666666666666667],[0.014444444444444444,-0.11333333333333333],[0.016666666666666666,-0.11],[0.01888888888888889,-0.10444444444444445],[0.02,-0.10111111111111111],[0.021111111111111112,-0.09777777777777778],[0.022222222222222223,-0.09555555555555556],[0.023333333333333334,-0.09333333333333334],[0.023333333333333334,-0.09111111111111111],[0.024444444444444446,-0.08888888888888889],[0.024444444444444446,-0.08666666666666667],[0.024444444444444446,-0.08444444444444445],[0.024444444444444446,-0.08222222222222222],[0.024444444444444446,-0.08],[0.024444444444444446,-0.07777777777777778],[0.024444444444444446,-0.07666666666666666],[0.024444444444444446,-0.07444444444444444],[0.024444444444444446,-0.07222222222222222],[0.024444444444444446,-0.07111111111111111],[0.023333333333333334,-0.06888888888888889],[0.022222222222222223,-0.06444444444444444],[0.021111111111111112,-0.06222222222222222],[0.021111111111111112,-0.06],[0.02,-0.057777777777777775],[0.02,-0.056666666666666664],[0.01888888888888889,-0.05444444444444444],[0.017777777777777778,-0.052222222222222225],[0.017777777777777778,-0.05],[0.016666666666666666,-0.04888888888888889],[0.016666666666666666,-0.04777777777777778],[0.016666666666666666,-0.04666666666666667],[0.016666666666666666,-0.04555555555555556],[0.016666666666666666,-0.04555555555555556],[0.016666666666666666,-0.04555555555555556]],[[0.0033333333333333335,-0.19555555555555557],[0.0033333333333333335,-0.19555555555555557],[0.0033333333333333335,-0.19555555555555557],[0.0033333333333333335,-0.19555555555555557],[0.0033333333333333335,-0.19555555555555557],[0.005555555555555556,-0.19555555555555557],[0.013333333333333334,-0.19555555555555557],[0.025555555555555557,-0.19555555555555557],[0.03888888888888889,-0.19555555555555557],[0.05,-0.19555555555555557],[0.06222222222222222,-0.19555555555555557],[0.07333333333333333,-0.19555555555555557],[0.0811111111111111,-0.19555555555555557],[0.08666666666666667,-0.19555555555555557],[0.09333333333333334,-0.19555555555555557],[0.10333333333333333,-0.19555555555555557],[0.11,-0.19555555555555557],[0.12,-0.19555555555555557],[0.13111111111111112,-0.19555555555555557],[0.1388888888888889,-0.19555555555555557],[0.14444444444444443,-0.19555555555555557],[0.1511111111111111,-0.19555555555555557],[0.15888888888888889,-0.19666666666666666],[0.16444444444444445,-0.19777777777777777],[0.1711111111111111,-0.1988888888888889],[0.17777777777777778,-0.2],[0.18444444444444444,-0.2],[0.1922222222222222,-0.2011111111111111],[0.2011111111111111,-0.2011111111111111],[0.21,-0.2011111111111111],[0.21555555555555556,-0.2011111111111111],[0.22444444444444445,-0.2011111111111111],[0.23,-0.2011111111111111],[0.23555555555555555,-0.2011111111111111],[0.24222222222222223,-0.2011111111111111],[0.2477777777777778,-0.2011111111111111],[0.25222222222222224,-0.2011111111111111],[0.25666666666666665,-0.2011111111111111],[0.2611111111111111,-0.2011111111111111],[0.2633333333333333,-0.2011111111111111],[0.26555555555555554,-0.2011111111111111],[0.26666666666666666,-0.2],[0.2688888888888889,-0.2],[0.27,-0.2],[0.27111111111111114,-0.1988888888888889],[0.27111111111111114,-0.19777777777777777],[0.2722222222222222,-0.19777777777777777],[0.2733333333333333,-0.19666666666666666],[0.2733333333333333,-0.19555555555555557],[0.2733333333333333,-0.19555555555555557],[0.2733333333333333,-0.19444444444444445],[0.2733333333333333,-0.19333333333333333],[0.27444444444444444,-0.1922222222222222],[0.27444444444444444,-0.19],[0.27555555555555555,-0.18777777777777777],[0.27666666666666667,-0.18555555555555556],[0.2788888888888889,-0.18222222222222223],[0.28,-0.17777777777777778],[0.2811111111111111,-0.17444444444444446],[0.2833333333333333,-0.17],[0.2833333333333333,-0.16555555555555557],[0.28444444444444444,-0.16111111111111112],[0.28555555555555556,-0.15666666666666668],[0.28555555555555556,-0.1511111111111111],[0.28555555555555556,-0.14777777777777779],[0.28555555555555556,-0.14222222222222222],[0.28555555555555556,-0.1388888888888889],[0.28555555555555556,-0.13555555555555557],[0.28555555555555556,-0.1322222222222222],[0.28555555555555556,-0.13111111111111112],[0.28444444444444444,-0.1288888888888889],[0.2833333333333333,-0.12666666666666668],[0.2822222222222222,-0.12444444444444444],[0.2811111111111111,-0.12333333333333334],[0.2811111111111111,-0.12222222222222222],[0.2811111111111111,-0.12111111111111111],[0.2811111111111111,-0.12111111111111111],[0.28,-0.12111111111111111],[0.28,-0.12111111111111111],[0.28,-0.12111111111111111],[0.28,-0.12111111111111111]]]",3,"[70,78,81]",,,,,,,,,,,,,,shoestore2.jpg,space,7.761,0,5,5,91,1,trainStation5.jpg,skatepark5.jpg,ticket_counter6.jpg,sidewalk3.jpg,,
Image_List_1,,,,,,,,,,,,,,,,44552,2020-11-17_16h39.55.750,analogCatScenes,2020.1.3,MacIntel,60,"[1440,900]","[[[-0.0022222222222222222,-0.2011111111111111],[-0.0022222222222222222,-0.2011111111111111],[-0.0022222222222222222,-0.2011111111111111],[-0.0022222222222222222,-0.2011111111111111],[-0.0022222222222222222,-0.2011111111111111],[-0.0022222222222222222,-0.2011111111111111],[-0.0022222222222222222,-0.2011111111111111],[-0.0022222222222222222,-0.2011111111111111],[-0.0022222222222222222,-0.2011111111111111],[-0.0022222222222222222,-0.2011111111111111],[-0.0022222222222222222,-0.2],[-0.0022222222222222222,-0.19777777777777777],[-0.0022222222222222222,-0.19444444444444445],[-0.0044444444444444444,-0.19],[-0.005555555555555556,-0.18444444444444444],[-0.006666666666666667,-0.18333333333333332],[-0.0077777777777777776,-0.17777777777777778],[-0.008888888888888889,-0.17444444444444446],[-0.01,-0.1711111111111111],[-0.011111111111111112,-0.16777777777777778],[-0.012222222222222223,-0.16444444444444445],[-0.012222222222222223,-0.16],[-0.013333333333333334,-0.15555555555555556],[-0.014444444444444444,-0.1511111111111111],[-0.015555555555555555,-0.14666666666666667],[-0.016666666666666666,-0.1411111111111111],[-0.017777777777777778,-0.13777777777777778],[-0.017777777777777778,-0.13444444444444445],[-0.01888888888888889,-0.13111111111111112],[-0.01888888888888889,-0.1288888888888889],[-0.02,-0.12555555555555556],[-0.02,-0.12444444444444444],[-0.02,-0.12333333333333334],[-0.02,-0.12333333333333334],[-0.02,-0.12333333333333334],[-0.02,-0.12333333333333334],[-0.02,-0.12333333333333334]],[[-0.0011111111111111111,-0.20333333333333334],[-0.0011111111111111111,-0.20333333333333334],[-0.0011111111111111111,-0.20333333333333334],[-0.0011111111111111111,-0.20333333333333334],[-0.0011111111111111111,-0.20333333333333334],[-0.0011111111111111111,-0.20333333333333334],[0.0022222222222222222,-0.20333333333333334],[0.012222222222222223,-0.20333333333333334],[0.025555555555555557,-0.20333333333333334],[0.044444444444444446,-0.20333333333333334],[0.06777777777777778,-0.20333333333333334],[0.09111111111111111,-0.20333333333333334],[0.10666666666666667,-0.20333333333333334],[0.13444444444444445,-0.20333333333333334],[0.15888888888888889,-0.20333333333333334],[0.18888888888888888,-0.20333333333333334],[0.2088888888888889,-0.20333333333333334],[0.23333333333333334,-0.20333333333333334],[0.2577777777777778,-0.20333333333333334],[0.28,-0.20333333333333334],[0.29777777777777775,-0.20222222222222222],[0.31222222222222223,-0.2011111111111111],[0.32222222222222224,-0.2011111111111111],[0.33,-0.2011111111111111],[0.33444444444444443,-0.2],[0.33666666666666667,-0.2],[0.3377777777777778,-0.2],[0.3377777777777778,-0.2],[0.3377777777777778,-0.2],[0.3377777777777778,-0.2],[0.3377777777777778,-0.1988888888888889],[0.33666666666666667,-0.1988888888888889]]]",2,"[37,32]",,,,,,,,,,,,,,frontDoor2.jpg,space,5.977,0,6,6,48,1,golfcourse6.jpg,fittingroom5.jpg,golfcourse7.jpg,fabricstore2.jpg,,
Image_List_1,,,,,,,,,,,,,,,,44552,2020-11-17_16h39.55.750,analogCatScenes,2020.1.3,MacIntel,60,"[1440,900]","[[[0.005555555555555556,-0.20333333333333334],[0.005555555555555556,-0.20333333333333334],[0.005555555555555556,-0.20333333333333334],[0.005555555555555556,-0.20333333333333334],[0.005555555555555556,-0.20333333333333334],[0.0044444444444444444,-0.20333333333333334],[-0.0011111111111111111,-0.20333333333333334],[-0.011111111111111112,-0.20333333333333334],[-0.023333333333333334,-0.20333333333333334],[-0.03666666666666667,-0.20333333333333334],[-0.04666666666666667,-0.20333333333333334],[-0.05333333333333334,-0.20333333333333334],[-0.06,-0.20333333333333334],[-0.06888888888888889,-0.20333333333333334],[-0.08,-0.20333333333333334],[-0.09333333333333334,-0.20333333333333334],[-0.10444444444444445,-0.20222222222222222],[-0.11555555555555555,-0.20222222222222222],[-0.12444444444444444,-0.2011111111111111],[-0.13333333333333333,-0.1988888888888889],[-0.14777777777777779,-0.19333333333333333],[-0.15777777777777777,-0.19],[-0.16777777777777778,-0.18666666666666668],[-0.17777777777777778,-0.18222222222222223],[-0.18666666666666668,-0.17888888888888888],[-0.19555555555555557,-0.17555555555555555],[-0.20555555555555555,-0.17222222222222222],[-0.21555555555555556,-0.1688888888888889],[-0.2222222222222222,-0.16555555555555557],[-0.23,-0.16333333333333333],[-0.23666666666666666,-0.16111111111111112],[-0.24555555555555555,-0.15888888888888889],[-0.25333333333333335,-0.15666666666666668],[-0.2588888888888889,-0.15444444444444444],[-0.26666666666666666,-0.15222222222222223],[-0.2722222222222222,-0.1511111111111111],[-0.2777777777777778,-0.15],[-0.2833333333333333,-0.14888888888888888],[-0.2866666666666667,-0.14777777777777779],[-0.28888888888888886,-0.14777777777777779],[-0.29,-0.14777777777777779],[-0.29,-0.14777777777777779],[-0.29,-0.14777777777777779]],[[0.0077777777777777776,-0.20333333333333334],[0.0077777777777777776,-0.20333333333333334],[0.0077777777777777776,-0.20333333333333334],[0.0077777777777777776,-0.20333333333333334],[0.0077777777777777776,-0.20333333333333334],[0.0077777777777777776,-0.20333333333333334],[0.0077777777777777776,-0.20333333333333334],[0.0077777777777777776,-0.20333333333333334],[0.0077777777777777776,-0.20333333333333334],[0.0077777777777777776,-0.20333333333333334],[0.008888888888888889,-0.20333333333333334],[0.012222222222222223,-0.20333333333333334],[0.021111111111111112,-0.20333333333333334],[0.028888888888888888,-0.20333333333333334],[0.034444444444444444,-0.20333333333333334],[0.042222222222222223,-0.20333333333333334],[0.051111111111111114,-0.20333333333333334],[0.06,-0.20333333333333334],[0.06888888888888889,-0.20333333333333334],[0.08555555555555555,-0.20222222222222222],[0.09666666666666666,-0.2011111111111111],[0.10777777777777778,-0.1988888888888889],[0.11888888888888889,-0.19666666666666666],[0.1322222222222222,-0.19333333333333333],[0.14666666666666667,-0.19111111111111112],[0.16,-0.18777777777777777],[0.17444444444444446,-0.18555555555555556],[0.18666666666666668,-0.18444444444444444],[0.19777777777777777,-0.18222222222222223],[0.2088888888888889,-0.18],[0.22,-0.17666666666666667],[0.23333333333333334,-0.17444444444444446],[0.24555555555555555,-0.1711111111111111],[0.25666666666666665,-0.16777777777777778],[0.2688888888888889,-0.16333333333333333],[0.2788888888888889,-0.16],[0.28555555555555556,-0.15888888888888889],[0.29333333333333333,-0.15666666666666668],[0.29777777777777775,-0.15444444444444444],[0.3,-0.15444444444444444],[0.3022222222222222,-0.15333333333333332],[0.30333333333333334,-0.15333333333333332],[0.30444444444444446,-0.15333333333333332],[0.30444444444444446,-0.15333333333333332],[0.30444444444444446,-0.15333333333333332],[0.30444444444444446,-0.15333333333333332],[0.30444444444444446,-0.15333333333333332],[0.30444444444444446,-0.15333333333333332],[0.30444444444444446,-0.15333333333333332],[0.30444444444444446,-0.15333333333333332]]]",2,"[43,50]",,,,,,,,,,,,,,firestation2.jpg,space,4.64,0,7,7,44,1,frontFoyer4.jpg,elevatorOutside1.jpg,foodcourt6.jpg,dock2.jpg,,
Image_List_1,,,,,,,,,,,,,,,,44552,2020-11-17_16h39.55.750,analogCatScenes,2020.1.3,MacIntel,60,"[1440,900]","[[[-0.0077777777777777776,-0.19777777777777777],[-0.0077777777777777776,-0.19777777777777777],[-0.0077777777777777776,-0.19777777777777777],[-0.0077777777777777776,-0.19777777777777777],[-0.0077777777777777776,-0.19777777777777777],[-0.0077777777777777776,-0.19777777777777777],[-0.0077777777777777776,-0.19777777777777777],[-0.013333333333333334,-0.19777777777777777],[-0.01888888888888889,-0.19777777777777777],[-0.027777777777777776,-0.19777777777777777],[-0.03777777777777778,-0.19777777777777777],[-0.04666666666666667,-0.19777777777777777],[-0.051111111111111114,-0.19777777777777777],[-0.056666666666666664,-0.19777777777777777],[-0.06444444444444444,-0.19777777777777777],[-0.07333333333333333,-0.19777777777777777],[-0.08333333333333333,-0.19777777777777777],[-0.09333333333333334,-0.19777777777777777],[-0.1,-0.19777777777777777],[-0.11222222222222222,-0.19666666666666666],[-0.12111111111111111,-0.19444444444444445],[-0.13333333333333333,-0.1922222222222222],[-0.14444444444444443,-0.19],[-0.15333333333333332,-0.18777777777777777],[-0.1622222222222222,-0.18444444444444444],[-0.1711111111111111,-0.18],[-0.17777777777777778,-0.17666666666666667],[-0.18666666666666668,-0.1711111111111111],[-0.19777777777777777,-0.16444444444444445],[-0.2088888888888889,-0.15666666666666668],[-0.22,-0.14888888888888888],[-0.22555555555555556,-0.14444444444444443],[-0.23333333333333334,-0.14],[-0.23777777777777778,-0.13666666666666666],[-0.24222222222222223,-0.13555555555555557],[-0.24555555555555555,-0.13333333333333333],[-0.2477777777777778,-0.13333333333333333],[-0.2477777777777778,-0.13333333333333333],[-0.2477777777777778,-0.13333333333333333],[-0.2477777777777778,-0.13333333333333333]],[[-0.0033333333333333335,-0.20555555555555555],[-0.0033333333333333335,-0.20555555555555555],[-0.0033333333333333335,-0.20555555555555555],[-0.0033333333333333335,-0.20555555555555555],[-0.0033333333333333335,-0.20555555555555555],[-0.0033333333333333335,-0.20555555555555555],[-0.0033333333333333335,-0.20555555555555555],[-0.0033333333333333335,-0.20555555555555555],[-0.0033333333333333335,-0.20555555555555555],[-0.0022222222222222222,-0.20555555555555555],[0.0011111111111111111,-0.20555555555555555],[0.005555555555555556,-0.20555555555555555],[0.008888888888888889,-0.20555555555555555],[0.013333333333333334,-0.20555555555555555],[0.01888888888888889,-0.20444444444444446],[0.022222222222222223,-0.20444444444444446],[0.02666666666666667,-0.20222222222222222],[0.03111111111111111,-0.2011111111111111],[0.03666666666666667,-0.1988888888888889],[0.04111111111111111,-0.19777777777777777],[0.04555555555555556,-0.19555555555555557],[0.051111111111111114,-0.19444444444444445],[0.056666666666666664,-0.19333333333333333],[0.06222222222222222,-0.1922222222222222],[0.06777777777777778,-0.1922222222222222],[0.07444444444444444,-0.19111111111111112],[0.08444444444444445,-0.19],[0.09,-0.18888888888888888],[0.09666666666666666,-0.18888888888888888],[0.10333333333333333,-0.18888888888888888],[0.1111111111111111,-0.18777777777777777],[0.11888888888888889,-0.18777777777777777],[0.12444444444444444,-0.18777777777777777],[0.13111111111111112,-0.18777777777777777],[0.13666666666666666,-0.18777777777777777],[0.14222222222222222,-0.18666666666666668],[0.14666666666666667,-0.18666666666666668],[0.15333333333333332,-0.18666666666666668],[0.15777777777777777,-0.18555555555555556],[0.1622222222222222,-0.18555555555555556],[0.16555555555555557,-0.18555555555555556],[0.16777777777777778,-0.18555555555555556],[0.17,-0.18555555555555556],[0.17,-0.18555555555555556],[0.17,-0.18555555555555556],[0.17,-0.18555555555555556]]]",2,"[40,46]",,,,,,,,,,,,,,artStudio1.jpg,space,4.142,0,8,8,4,1,baggageClaim2.jpg,auto_showroom1.jpg,appleorchard3.jpg,alley4.jpg,,
Image_List_1,,,,,,,,,,,,,,,,44552,2020-11-17_16h39.55.750,analogCatScenes,2020.1.3,MacIntel,60,"[1440,900]","[[[-0.0044444444444444444,-0.2011111111111111],[-0.0044444444444444444,-0.2011111111111111],[-0.0044444444444444444,-0.2011111111111111],[-0.0044444444444444444,-0.2011111111111111],[-0.0044444444444444444,-0.2011111111111111],[-0.0044444444444444444,-0.2011111111111111],[-0.006666666666666667,-0.2011111111111111],[-0.016666666666666666,-0.2011111111111111],[-0.027777777777777776,-0.2011111111111111],[-0.044444444444444446,-0.2011111111111111],[-0.06222222222222222,-0.2011111111111111],[-0.07777777777777778,-0.2011111111111111],[-0.09111111111111111,-0.2011111111111111],[-0.11333333333333333,-0.2011111111111111],[-0.12777777777777777,-0.2],[-0.14444444444444443,-0.19555555555555557],[-0.16111111111111112,-0.19111111111111112],[-0.17666666666666667,-0.18444444444444444],[-0.18888888888888888,-0.17666666666666667],[-0.20555555555555555,-0.16666666666666666],[-0.21444444444444444,-0.15888888888888889],[-0.2222222222222222,-0.15],[-0.23,-0.14222222222222222],[-0.23666666666666666,-0.13444444444444445],[-0.24333333333333335,-0.12555555555555556],[-0.25,-0.11666666666666667],[-0.25666666666666665,-0.10888888888888888],[-0.2633333333333333,-0.10111111111111111],[-0.2677777777777778,-0.09333333333333334],[-0.27111111111111114,-0.08777777777777777],[-0.27555555555555555,-0.08222222222222222],[-0.28,-0.07666666666666666],[-0.28444444444444444,-0.07222222222222222],[-0.2877777777777778,-0.06777777777777778],[-0.2922222222222222,-0.06333333333333334],[-0.29555555555555557,-0.058888888888888886],[-0.29777777777777775,-0.05444444444444444],[-0.3,-0.051111111111111114],[-0.3022222222222222,-0.04777777777777778],[-0.30444444444444446,-0.044444444444444446],[-0.3055555555555556,-0.043333333333333335],[-0.3055555555555556,-0.042222222222222223],[-0.3055555555555556,-0.042222222222222223],[-0.3055555555555556,-0.042222222222222223]],[[0.0033333333333333335,-0.19444444444444445],[0.0033333333333333335,-0.19444444444444445],[0.0033333333333333335,-0.19444444444444445],[0.0033333333333333335,-0.19444444444444445],[0.0033333333333333335,-0.19444444444444445],[0.0033333333333333335,-0.19444444444444445],[0.0033333333333333335,-0.19444444444444445],[0.0033333333333333335,-0.19444444444444445],[0.0033333333333333335,-0.19444444444444445],[0.0033333333333333335,-0.19444444444444445],[0.0077777777777777776,-0.19444444444444445],[0.014444444444444444,-0.19444444444444445],[0.022222222222222223,-0.19444444444444445],[0.03333333333333333,-0.19444444444444445],[0.05333333333333334,-0.19444444444444445],[0.06888888888888889,-0.19444444444444445],[0.08444444444444445,-0.19444444444444445],[0.09888888888888889,-0.19444444444444445],[0.11444444444444445,-0.19444444444444445],[0.13111111111111112,-0.19444444444444445],[0.14333333333333334,-0.19555555555555557],[0.15666666666666668,-0.19555555555555557],[0.16777777777777778,-0.19666666666666666],[0.17888888888888888,-0.19666666666666666],[0.18666666666666668,-0.19777777777777777],[0.19444444444444445,-0.19777777777777777],[0.20222222222222222,-0.1988888888888889],[0.20777777777777778,-0.1988888888888889],[0.21333333333333335,-0.2],[0.21777777777777776,-0.2],[0.22444444444444445,-0.2],[0.2311111111111111,-0.2],[0.23555555555555555,-0.2],[0.2411111111111111,-0.2],[0.24555555555555555,-0.2],[0.25,-0.2],[0.25555555555555554,-0.2],[0.2633333333333333,-0.1988888888888889],[0.2688888888888889,-0.19666666666666666],[0.27444444444444444,-0.19444444444444445],[0.2788888888888889,-0.1922222222222222],[0.2822222222222222,-0.19],[0.28444444444444444,-0.18777777777777777],[0.2866666666666667,-0.18555555555555556],[0.28888888888888886,-0.18444444444444444],[0.29,-0.18222222222222223],[0.2922222222222222,-0.1811111111111111],[0.2966666666666667,-0.17777777777777778],[0.3011111111111111,-0.17333333333333334],[0.3055555555555556,-0.17],[0.31,-0.16555555555555557],[0.31333333333333335,-0.16333333333333333],[0.31555555555555553,-0.16111111111111112],[0.31666666666666665,-0.16],[0.31777777777777777,-0.16],[0.31777777777777777,-0.15888888888888889],[0.32,-0.15888888888888889],[0.3211111111111111,-0.15777777777777777]]]",2,"[44,58]",,,,,,,,,,,,,,grocerystore5.jpg,space,4.521,0,9,9,56,1,hut3.jpg,golfcourse10.jpg,hut1.jpg,gasstation2.jpg,,
Image_List_1,,,,,,,,,,,,,,,,44552,2020-11-17_16h39.55.750,analogCatScenes,2020.1.3,MacIntel,60,"[1440,900]","[[[0.0044444444444444444,-0.1988888888888889],[0.0044444444444444444,-0.1988888888888889],[0.0044444444444444444,-0.1988888888888889],[0.0044444444444444444,-0.1988888888888889],[0.0044444444444444444,-0.1988888888888889],[0.0044444444444444444,-0.1988888888888889],[-0.0011111111111111111,-0.1988888888888889],[-0.012222222222222223,-0.19777777777777777],[-0.025555555555555557,-0.19333333333333333],[-0.034444444444444444,-0.19],[-0.04666666666666667,-0.18555555555555556],[-0.06555555555555556,-0.17444444444444446],[-0.0811111111111111,-0.16666666666666666],[-0.1,-0.15444444444444444],[-0.12222222222222222,-0.1388888888888889],[-0.1411111111111111,-0.12777777777777777],[-0.16111111111111112,-0.11555555555555555],[-0.17777777777777778,-0.10555555555555556],[-0.19444444444444445,-0.09444444444444444],[-0.2088888888888889,-0.08333333333333333],[-0.2222222222222222,-0.07333333333333333],[-0.23333333333333334,-0.06222222222222222],[-0.24,-0.05555555555555555],[-0.24555555555555555,-0.04888888888888889],[-0.24888888888888888,-0.04555555555555556],[-0.25,-0.042222222222222223],[-0.2511111111111111,-0.04111111111111111],[-0.25222222222222224,-0.03888888888888889],[-0.25222222222222224,-0.03666666666666667],[-0.2544444444444444,-0.03333333333333333],[-0.25555555555555554,-0.03111111111111111],[-0.25666666666666665,-0.028888888888888888],[-0.2577777777777778,-0.025555555555555557],[-0.2588888888888889,-0.023333333333333334],[-0.2588888888888889,-0.022222222222222223],[-0.2588888888888889,-0.02],[-0.2588888888888889,-0.01888888888888889],[-0.2588888888888889,-0.01888888888888889],[-0.2588888888888889,-0.02]],[[-0.006666666666666667,-0.19666666666666666],[-0.006666666666666667,-0.19666666666666666],[-0.006666666666666667,-0.19666666666666666],[-0.006666666666666667,-0.19666666666666666],[-0.006666666666666667,-0.19666666666666666],[-0.006666666666666667,-0.19666666666666666],[-0.006666666666666667,-0.19666666666666666],[-0.006666666666666667,-0.19666666666666666],[-0.006666666666666667,-0.19666666666666666],[-0.0044444444444444444,-0.19666666666666666],[0,-0.19666666666666666],[0.011111111111111112,-0.19666666666666666],[0.02,-0.19666666666666666],[0.028888888888888888,-0.19666666666666666],[0.03777777777777778,-0.19666666666666666],[0.04888888888888889,-0.19555555555555557],[0.06,-0.1922222222222222],[0.07,-0.19],[0.08,-0.18555555555555556],[0.09,-0.18222222222222223],[0.09888888888888889,-0.18],[0.10444444444444445,-0.17777777777777778],[0.11,-0.17666666666666667],[0.11444444444444445,-0.17555555555555555],[0.11555555555555555,-0.17444444444444446],[0.11666666666666667,-0.17444444444444446],[0.11777777777777777,-0.17444444444444446],[0.11888888888888889,-0.17333333333333334],[0.11888888888888889,-0.17333333333333334],[0.12,-0.17222222222222222],[0.12,-0.1711111111111111],[0.12111111111111111,-0.1711111111111111],[0.12222222222222222,-0.17],[0.12444444444444444,-0.1688888888888889],[0.12555555555555556,-0.16666666666666666],[0.12666666666666668,-0.16555555555555557],[0.1288888888888889,-0.16333333333333333],[0.13,-0.1622222222222222],[0.13111111111111112,-0.16111111111111112],[0.13111111111111112,-0.16111111111111112],[0.1322222222222222,-0.16111111111111112],[0.1322222222222222,-0.16111111111111112],[0.1322222222222222,-0.16111111111111112],[0.1322222222222222,-0.16111111111111112],[0.1322222222222222,-0.16111111111111112],[0.1322222222222222,-0.16111111111111112]]]",2,"[39,46]",,,,,,,,,,,,,,musicStore3.jpg,space,4.061,0,10,10,73,1,photographer_studio2.jpg,nursery.jpg,nursery4.jpg,library_aisle9.jpg,,
Image_List_1,,,,,,,,,,,,,,,,44552,2020-11-17_16h39.55.750,analogCatScenes,2020.1.3,MacIntel,60,"[1440,900]","[[[-0.0022222222222222222,-0.2],[-0.0022222222222222222,-0.2],[-0.0022222222222222222,-0.2],[-0.0022222222222222222,-0.2],[-0.0022222222222222222,-0.2],[-0.0022222222222222222,-0.2],[-0.0022222222222222222,-0.2],[-0.0022222222222222222,-0.2],[-0.0022222222222222222,-0.2],[-0.0022222222222222222,-0.2],[-0.0022222222222222222,-0.2],[-0.0022222222222222222,-0.1988888888888889],[0.0022222222222222222,-0.19444444444444445],[0.006666666666666667,-0.18555555555555556],[0.01888888888888889,-0.1688888888888889],[0.027777777777777776,-0.15777777777777777],[0.042222222222222223,-0.14222222222222222],[0.056666666666666664,-0.12777777777777777],[0.07111111111111111,-0.11222222222222222],[0.08555555555555555,-0.09666666666666666],[0.1,-0.08333333333333333],[0.11333333333333333,-0.07],[0.12666666666666668,-0.058888888888888886],[0.14,-0.04888888888888889],[0.15333333333333332,-0.03777777777777778],[0.16,-0.03222222222222222],[0.18,-0.013333333333333334],[0.1922222222222222,-0.0011111111111111111],[0.21,0.016666666666666666],[0.2222222222222222,0.03],[0.23666666666666666,0.044444444444444446],[0.25333333333333335,0.06222222222222222],[0.26222222222222225,0.07222222222222222],[0.27111111111111114,0.0811111111111111],[0.28,0.08888888888888889],[0.28444444444444444,0.09333333333333334],[0.28888888888888886,0.09888888888888889],[0.2911111111111111,0.10111111111111111],[0.2922222222222222,0.10222222222222223],[0.29333333333333333,0.10333333333333333],[0.29333333333333333,0.10333333333333333],[0.29333333333333333,0.10333333333333333],[0.29333333333333333,0.10333333333333333],[0.29333333333333333,0.10333333333333333],[0.29333333333333333,0.10333333333333333],[0.29333333333333333,0.10333333333333333],[0.29333333333333333,0.10333333333333333]]]",1,[47],,,,,,,,,,,,,,alley1.jpg,space,2.798,0,11,11,2,1,arcade1.jpg,applestore6.jpg,apartmentBuilding4.jpg,airportTerminal6.jpg,,
Image_List_1,,,,,,,,,,,,,,,,44552,2020-11-17_16h39.55.750,analogCatScenes,2020.1.3,MacIntel,60,"[1440,900]","[[[0,-0.21],[0,-0.21],[0,-0.21],[0,-0.21],[0,-0.21],[0,-0.21],[0,-0.21],[0,-0.21],[0,-0.21],[0,-0.21],[0,-0.21],[0,-0.21],[-0.0033333333333333335,-0.21],[-0.008888888888888889,-0.20777777777777778],[-0.016666666666666666,-0.20333333333333334],[-0.024444444444444446,-0.1988888888888889],[-0.03222222222222222,-0.19444444444444445],[-0.03888888888888889,-0.19],[-0.04666666666666667,-0.18555555555555556],[-0.056666666666666664,-0.17888888888888888],[-0.07222222222222222,-0.16777777777777778],[-0.08333333333333333,-0.16],[-0.09333333333333334,-0.15444444444444444],[-0.10333333333333333,-0.14888888888888888],[-0.11222222222222222,-0.14444444444444443],[-0.12111111111111111,-0.14],[-0.13,-0.13555555555555557],[-0.13777777777777778,-0.13111111111111112],[-0.14666666666666667,-0.12666666666666668],[-0.15555555555555556,-0.12333333333333334],[-0.16333333333333333,-0.11888888888888889],[-0.1711111111111111,-0.11444444444444445],[-0.17888888888888888,-0.11],[-0.18444444444444444,-0.10777777777777778],[-0.19333333333333333,-0.10333333333333333],[-0.19666666666666666,-0.10222222222222223],[-0.20222222222222222,-0.1],[-0.20666666666666667,-0.09888888888888889],[-0.2088888888888889,-0.09666666666666666],[-0.21,-0.09555555555555556],[-0.2111111111111111,-0.09555555555555556],[-0.2111111111111111,-0.09444444444444444],[-0.21222222222222223,-0.09444444444444444],[-0.21222222222222223,-0.09444444444444444],[-0.21222222222222223,-0.09444444444444444],[-0.21222222222222223,-0.09444444444444444],[-0.21222222222222223,-0.09444444444444444]],[[-0.0077777777777777776,-0.2],[-0.0077777777777777776,-0.2],[-0.0077777777777777776,-0.2],[-0.0077777777777777776,-0.2],[-0.0077777777777777776,-0.2],[-0.0077777777777777776,-0.2],[-0.0077777777777777776,-0.2],[-0.0077777777777777776,-0.2],[-0.0077777777777777776,-0.2],[-0.0077777777777777776,-0.2],[-0.0077777777777777776,-0.1988888888888889],[-0.0077777777777777776,-0.19777777777777777],[-0.01,-0.19444444444444445],[-0.011111111111111112,-0.1922222222222222],[-0.013333333333333334,-0.18888888888888888],[-0.016666666666666666,-0.18555555555555556],[-0.02,-0.18333333333333332],[-0.023333333333333334,-0.18],[-0.025555555555555557,-0.17666666666666667],[-0.028888888888888888,-0.17222222222222222],[-0.03111111111111111,-0.1688888888888889],[-0.03222222222222222,-0.16555555555555557],[-0.035555555555555556,-0.16111111111111112],[-0.03666666666666667,-0.15777777777777777],[-0.03888888888888889,-0.15333333333333332],[-0.042222222222222223,-0.15],[-0.04666666666666667,-0.14444444444444443],[-0.05,-0.14],[-0.052222222222222225,-0.13555555555555557],[-0.056666666666666664,-0.13],[-0.058888888888888886,-0.12333333333333334],[-0.06111111111111111,-0.11888888888888889],[-0.06333333333333334,-0.11333333333333333],[-0.06444444444444444,-0.10888888888888888],[-0.06666666666666667,-0.10444444444444445],[-0.06777777777777778,-0.10111111111111111],[-0.06888888888888889,-0.09777777777777778],[-0.06888888888888889,-0.09444444444444444],[-0.06888888888888889,-0.09222222222222222],[-0.06888888888888889,-0.09111111111111111],[-0.06888888888888889,-0.08777777777777777],[-0.06888888888888889,-0.08555555555555555],[-0.06888888888888889,-0.08444444444444445],[-0.06888888888888889,-0.08222222222222222],[-0.06777777777777778,-0.0811111111111111],[-0.06777777777777778,-0.08],[-0.06666666666666667,-0.07888888888888888],[-0.06666666666666667,-0.07777777777777778],[-0.06555555555555556,-0.07555555555555556],[-0.06555555555555556,-0.07444444444444444],[-0.06444444444444444,-0.07333333333333333],[-0.06333333333333334,-0.07222222222222222],[-0.06333333333333334,-0.07111111111111111],[-0.06222222222222222,-0.07],[-0.06222222222222222,-0.06888888888888889],[-0.06111111111111111,-0.06666666666666667],[-0.06,-0.06555555555555556],[-0.06,-0.06444444444444444],[-0.058888888888888886,-0.06333333333333334],[-0.057777777777777775,-0.06222222222222222],[-0.056666666666666664,-0.06111111111111111],[-0.056666666666666664,-0.06],[-0.05555555555555555,-0.058888888888888886],[-0.05555555555555555,-0.058888888888888886],[-0.05555555555555555,-0.058888888888888886],[-0.05555555555555555,-0.058888888888888886],[-0.05555555555555555,-0.058888888888888886],[-0.05555555555555555,-0.058888888888888886]]]",2,"[47,68]",,,,,,,,,,,,,,highway7.jpg,space,4.779,0,12,12,58,1,lab1.jpg,hedgemaze1.jpg,igloo4.jpg,grocerystore2.jpg,,
Image_List_1,,,,,,,,,,,,,,,,44552,2020-11-17_16h39.55.750,analogCatScenes,2020.1.3,MacIntel,60,"[1440,900]","[[[0.0033333333333333335,-0.20333333333333334],[0.0033333333333333335,-0.20333333333333334],[0.0033333333333333335,-0.20333333333333334],[0.0033333333333333335,-0.20333333333333334],[0.0033333333333333335,-0.20333333333333334],[0.0033333333333333335,-0.20333333333333334],[0.0033333333333333335,-0.20333333333333334],[0.0033333333333333335,-0.20333333333333334],[0.0022222222222222222,-0.20333333333333334],[-0.0022222222222222222,-0.20333333333333334],[-0.005555555555555556,-0.20333333333333334],[-0.01,-0.2011111111111111],[-0.016666666666666666,-0.19777777777777777],[-0.022222222222222223,-0.19444444444444445],[-0.02666666666666667,-0.1922222222222222],[-0.03111111111111111,-0.18777777777777777],[-0.03777777777777778,-0.18444444444444444],[-0.042222222222222223,-0.18],[-0.04888888888888889,-0.17555555555555555],[-0.05444444444444444,-0.17222222222222222],[-0.06,-0.16777777777777778],[-0.06333333333333334,-0.16444444444444445],[-0.06777777777777778,-0.1622222222222222],[-0.07111111111111111,-0.15888888888888889],[-0.07555555555555556,-0.15555555555555556],[-0.08,-0.1511111111111111],[-0.08666666666666667,-0.14777777777777779],[-0.09222222222222222,-0.14333333333333334],[-0.09888888888888889,-0.1388888888888889],[-0.10444444444444445,-0.13444444444444445],[-0.11222222222222222,-0.1288888888888889],[-0.11888888888888889,-0.12333333333333334],[-0.13333333333333333,-0.11444444444444445],[-0.14222222222222222,-0.10888888888888888],[-0.1511111111111111,-0.10333333333333333],[-0.16,-0.09777777777777778],[-0.1688888888888889,-0.09222222222222222],[-0.17777777777777778,-0.08666666666666667],[-0.18444444444444444,-0.08333333333333333],[-0.1922222222222222,-0.08],[-0.19777777777777777,-0.07666666666666666],[-0.20333333333333334,-0.07333333333333333],[-0.2088888888888889,-0.07111111111111111],[-0.21222222222222223,-0.06888888888888889],[-0.21666666666666667,-0.06555555555555556],[-0.22111111111111112,-0.06333333333333334],[-0.22555555555555556,-0.06111111111111111],[-0.22777777777777777,-0.06],[-0.23,-0.057777777777777775],[-0.23222222222222222,-0.057777777777777775],[-0.23444444444444446,-0.056666666666666664],[-0.23555555555555555,-0.05555555555555555],[-0.23777777777777778,-0.05444444444444444],[-0.2388888888888889,-0.05333333333333334],[-0.2411111111111111,-0.052222222222222225],[-0.24222222222222223,-0.052222222222222225],[-0.24333333333333335,-0.051111111111111114],[-0.24555555555555555,-0.05],[-0.24555555555555555,-0.05],[-0.24666666666666667,-0.04888888888888889],[-0.24666666666666667,-0.04888888888888889],[-0.24666666666666667,-0.04888888888888889],[-0.24666666666666667,-0.04888888888888889]],[[-0.006666666666666667,-0.1988888888888889],[-0.006666666666666667,-0.1988888888888889],[-0.006666666666666667,-0.1988888888888889],[-0.006666666666666667,-0.1988888888888889],[-0.006666666666666667,-0.1988888888888889],[-0.006666666666666667,-0.1988888888888889],[-0.006666666666666667,-0.1988888888888889],[-0.006666666666666667,-0.1988888888888889],[-0.006666666666666667,-0.19666666666666666],[-0.006666666666666667,-0.19333333333333333],[-0.006666666666666667,-0.19111111111111112],[-0.006666666666666667,-0.18777777777777777],[-0.006666666666666667,-0.18555555555555556],[-0.006666666666666667,-0.1811111111111111],[-0.006666666666666667,-0.17777777777777778],[-0.006666666666666667,-0.17444444444444446],[-0.006666666666666667,-0.17222222222222222],[-0.006666666666666667,-0.1688888888888889],[-0.006666666666666667,-0.16666666666666666],[-0.005555555555555556,-0.16444444444444445],[-0.0044444444444444444,-0.16111111111111112],[-0.0033333333333333335,-0.15777777777777777],[-0.0011111111111111111,-0.15333333333333332],[0.0011111111111111111,-0.14777777777777779],[0.0033333333333333335,-0.1411111111111111],[0.0077777777777777776,-0.13],[0.011111111111111112,-0.12222222222222222],[0.014444444444444444,-0.11222222222222222],[0.017777777777777778,-0.10666666666666667],[0.021111111111111112,-0.09888888888888889],[0.024444444444444446,-0.09333333333333334],[0.027777777777777776,-0.08777777777777777],[0.03111111111111111,-0.08333333333333333],[0.034444444444444444,-0.08],[0.03777777777777778,-0.07666666666666666],[0.04,-0.07444444444444444],[0.042222222222222223,-0.07222222222222222],[0.04555555555555556,-0.07],[0.04777777777777778,-0.06666666666666667],[0.051111111111111114,-0.06444444444444444],[0.05444444444444444,-0.06222222222222222],[0.056666666666666664,-0.06],[0.058888888888888886,-0.057777777777777775],[0.06222222222222222,-0.05555555555555555],[0.06555555555555556,-0.05333333333333334],[0.07,-0.051111111111111114],[0.07333333333333333,-0.04888888888888889],[0.07666666666666666,-0.04666666666666667],[0.08222222222222222,-0.044444444444444446],[0.08444444444444445,-0.043333333333333335],[0.08666666666666667,-0.042222222222222223],[0.09,-0.04],[0.09111111111111111,-0.03888888888888889],[0.09333333333333334,-0.03888888888888889],[0.09444444444444444,-0.03777777777777778],[0.09555555555555556,-0.03666666666666667],[0.09555555555555556,-0.03666666666666667],[0.09666666666666666,-0.03666666666666667],[0.09666666666666666,-0.035555555555555556],[0.09777777777777778,-0.035555555555555556],[0.09777777777777778,-0.035555555555555556],[0.09777777777777778,-0.035555555555555556],[0.09777777777777778,-0.035555555555555556],[0.09777777777777778,-0.035555555555555556],[0.09777777777777778,-0.035555555555555556]],[[-0.0033333333333333335,-0.21],[-0.0033333333333333335,-0.21],[-0.0033333333333333335,-0.21],[-0.0033333333333333335,-0.21],[-0.0033333333333333335,-0.21],[-0.0033333333333333335,-0.21],[-0.0033333333333333335,-0.21],[-0.0033333333333333335,-0.21],[-0.0033333333333333335,-0.21],[-0.0033333333333333335,-0.21],[-0.0022222222222222222,-0.20777777777777778],[0.0033333333333333335,-0.20333333333333334],[0.01,-0.19777777777777777],[0.016666666666666666,-0.19444444444444445],[0.023333333333333334,-0.19],[0.03,-0.18777777777777777],[0.03666666666666667,-0.18555555555555556],[0.043333333333333335,-0.18444444444444444],[0.04888888888888889,-0.18222222222222223],[0.056666666666666664,-0.17888888888888888],[0.06444444444444444,-0.17555555555555555],[0.07444444444444444,-0.17222222222222222],[0.08333333333333333,-0.1688888888888889],[0.1,-0.16444444444444445],[0.10888888888888888,-0.16111111111111112],[0.12,-0.16],[0.13333333333333333,-0.15666666666666668],[0.14777777777777779,-0.15333333333333332],[0.16555555555555557,-0.14888888888888888],[0.18444444444444444,-0.14555555555555555],[0.20333333333333334,-0.14222222222222222],[0.2222222222222222,-0.1388888888888889],[0.24444444444444444,-0.13666666666666666],[0.26222222222222225,-0.13444444444444445],[0.2733333333333333,-0.13444444444444445],[0.2833333333333333,-0.13333333333333333],[0.2922222222222222,-0.13333333333333333],[0.29888888888888887,-0.13333333333333333],[0.30444444444444446,-0.13333333333333333],[0.3088888888888889,-0.13333333333333333],[0.31222222222222223,-0.13333333333333333],[0.31444444444444447,-0.13333333333333333],[0.31444444444444447,-0.13333333333333333],[0.31555555555555553,-0.13333333333333333],[0.31666666666666665,-0.13333333333333333],[0.31666666666666665,-0.13333333333333333],[0.31777777777777777,-0.13333333333333333],[0.31777777777777777,-0.13333333333333333],[0.31777777777777777,-0.13333333333333333],[0.31777777777777777,-0.13333333333333333],[0.31777777777777777,-0.13333333333333333]]]",3,"[63,65,51]",,,,,,,,,,,,,,campusquad2.jpg,space,6.81,0,13,13,26,1,cornfield4.jpg,church4.jpg,churchInside3.jpg,botanicalGarden7.jpg,,
Image_List_1,,,,,,,,,,,,,,,,44552,2020-11-17_16h39.55.750,analogCatScenes,2020.1.3,MacIntel,60,"[1440,900]","[[[-0.005555555555555556,-0.20555555555555555],[-0.005555555555555556,-0.20555555555555555],[-0.005555555555555556,-0.20555555555555555],[-0.005555555555555556,-0.20555555555555555],[-0.005555555555555556,-0.20555555555555555],[-0.005555555555555556,-0.20555555555555555],[-0.005555555555555556,-0.20555555555555555],[-0.005555555555555556,-0.20555555555555555],[-0.005555555555555556,-0.20555555555555555],[-0.005555555555555556,-0.20555555555555555],[-0.005555555555555556,-0.20555555555555555],[-0.005555555555555556,-0.20555555555555555],[-0.005555555555555556,-0.20555555555555555],[-0.005555555555555556,-0.20555555555555555],[-0.005555555555555556,-0.20555555555555555],[-0.005555555555555556,-0.20555555555555555],[-0.005555555555555556,-0.20444444444444446],[-0.005555555555555556,-0.20222222222222222],[-0.005555555555555556,-0.19666666666666666],[-0.006666666666666667,-0.18444444444444444],[-0.006666666666666667,-0.1688888888888889],[-0.0077777777777777776,-0.15333333333333332],[-0.008888888888888889,-0.1411111111111111],[-0.008888888888888889,-0.13],[-0.008888888888888889,-0.12222222222222222],[-0.008888888888888889,-0.11222222222222222],[-0.008888888888888889,-0.10444444444444445],[-0.008888888888888889,-0.09444444444444444],[-0.01,-0.08777777777777777],[-0.01,-0.08],[-0.011111111111111112,-0.07],[-0.011111111111111112,-0.06222222222222222],[-0.011111111111111112,-0.05444444444444444],[-0.011111111111111112,-0.04666666666666667],[-0.012222222222222223,-0.04111111111111111],[-0.013333333333333334,-0.034444444444444444],[-0.014444444444444444,-0.024444444444444446],[-0.015555555555555555,-0.016666666666666666],[-0.015555555555555555,-0.008888888888888889],[-0.016666666666666666,-0.0022222222222222222],[-0.017777777777777778,0.005555555555555556],[-0.017777777777777778,0.014444444444444444],[-0.02,0.024444444444444446],[-0.021111111111111112,0.03222222222222222],[-0.021111111111111112,0.03777777777777778],[-0.022222222222222223,0.044444444444444446],[-0.022222222222222223,0.051111111111111114],[-0.023333333333333334,0.05555555555555555],[-0.023333333333333334,0.06],[-0.024444444444444446,0.06333333333333334],[-0.024444444444444446,0.06888888888888889],[-0.024444444444444446,0.07333333333333333],[-0.024444444444444446,0.07777777777777778],[-0.024444444444444446,0.08222222222222222],[-0.024444444444444446,0.08555555555555555],[-0.024444444444444446,0.09],[-0.024444444444444446,0.09444444444444444],[-0.024444444444444446,0.09888888888888889],[-0.024444444444444446,0.10222222222222223],[-0.024444444444444446,0.10666666666666667],[-0.024444444444444446,0.11333333333333333],[-0.024444444444444446,0.11666666666666667],[-0.024444444444444446,0.12],[-0.024444444444444446,0.12333333333333334],[-0.024444444444444446,0.12666666666666668],[-0.024444444444444446,0.1288888888888889],[-0.024444444444444446,0.13111111111111112],[-0.024444444444444446,0.13333333333333333],[-0.024444444444444446,0.13555555555555557],[-0.023333333333333334,0.13777777777777778],[-0.023333333333333334,0.14],[-0.022222222222222223,0.1411111111111111],[-0.022222222222222223,0.14333333333333334],[-0.021111111111111112,0.14555555555555555],[-0.02,0.14666666666666667],[-0.02,0.14888888888888888],[-0.01888888888888889,0.15],[-0.017777777777777778,0.15222222222222223],[-0.017777777777777778,0.15333333333333332],[-0.016666666666666666,0.15444444444444444],[-0.016666666666666666,0.15555555555555556],[-0.016666666666666666,0.15555555555555556],[-0.016666666666666666,0.15555555555555556],[-0.016666666666666666,0.15555555555555556],[-0.016666666666666666,0.15555555555555556]],[[-0.0022222222222222222,-0.20777777777777778],[-0.0022222222222222222,-0.20777777777777778],[-0.0022222222222222222,-0.20777777777777778],[-0.0022222222222222222,-0.20777777777777778],[-0.0022222222222222222,-0.20777777777777778],[-0.0022222222222222222,-0.20777777777777778],[-0.0022222222222222222,-0.20777777777777778],[-0.0022222222222222222,-0.20777777777777778],[-0.0022222222222222222,-0.20777777777777778],[-0.0022222222222222222,-0.20777777777777778],[-0.0022222222222222222,-0.20777777777777778],[-0.0022222222222222222,-0.20777777777777778],[-0.0022222222222222222,-0.20777777777777778],[-0.0022222222222222222,-0.20777777777777778],[-0.0022222222222222222,-0.20777777777777778],[-0.0022222222222222222,-0.20777777777777778],[-0.0022222222222222222,-0.20777777777777778],[-0.0022222222222222222,-0.20555555555555555],[0,-0.20444444444444446],[0.0011111111111111111,-0.2011111111111111],[0.0033333333333333335,-0.19666666666666666],[0.006666666666666667,-0.19333333333333333],[0.008888888888888889,-0.18888888888888888],[0.013333333333333334,-0.18333333333333332],[0.016666666666666666,-0.18],[0.02,-0.17666666666666667],[0.024444444444444446,-0.17222222222222222],[0.03,-0.16666666666666666],[0.03333333333333333,-0.16333333333333333],[0.03777777777777778,-0.15777777777777777],[0.044444444444444446,-0.15222222222222223],[0.04888888888888889,-0.14888888888888888],[0.05444444444444444,-0.14444444444444443],[0.06111111111111111,-0.14],[0.06888888888888889,-0.13333333333333333],[0.07666666666666666,-0.12777777777777777],[0.08555555555555555,-0.12],[0.09555555555555556,-0.1111111111111111],[0.10555555555555556,-0.10222222222222223],[0.11777777777777777,-0.09333333333333334],[0.13,-0.08333333333333333],[0.14333333333333334,-0.07222222222222222],[0.15444444444444444,-0.06222222222222222],[0.16666666666666666,-0.051111111111111114],[0.18,-0.04111111111111111],[0.19444444444444445,-0.03],[0.20777777777777778,-0.02],[0.22111111111111112,-0.01],[0.23333333333333334,-0.0022222222222222222],[0.24555555555555555,0.005555555555555556],[0.25222222222222224,0.01],[0.2588888888888889,0.014444444444444444],[0.26555555555555554,0.01888888888888889],[0.2722222222222222,0.022222222222222223],[0.2811111111111111,0.02666666666666667],[0.28888888888888886,0.03],[0.29444444444444445,0.03333333333333333],[0.3,0.035555555555555556],[0.30333333333333334,0.03777777777777778],[0.30777777777777776,0.04],[0.31,0.04111111111111111],[0.3111111111111111,0.042222222222222223],[0.31222222222222223,0.043333333333333335],[0.31333333333333335,0.043333333333333335],[0.31333333333333335,0.043333333333333335],[0.31333333333333335,0.043333333333333335],[0.31333333333333335,0.043333333333333335]],[[-0.006666666666666667,-0.2],[-0.006666666666666667,-0.2],[-0.006666666666666667,-0.2],[-0.006666666666666667,-0.2],[-0.006666666666666667,-0.2],[-0.006666666666666667,-0.2],[-0.006666666666666667,-0.2],[-0.006666666666666667,-0.19444444444444445],[-0.008888888888888889,-0.18],[-0.008888888888888889,-0.1711111111111111],[-0.012222222222222223,-0.15777777777777777],[-0.014444444444444444,-0.14444444444444443],[-0.016666666666666666,-0.13444444444444445],[-0.02,-0.12222222222222222],[-0.022222222222222223,-0.1111111111111111],[-0.027777777777777776,-0.09777777777777778],[-0.03222222222222222,-0.08888888888888889],[-0.04,-0.07666666666666666],[-0.05,-0.06555555555555556],[-0.06,-0.05555555555555555],[-0.06888888888888889,-0.04666666666666667],[-0.07777777777777778,-0.03777777777777778],[-0.08555555555555555,-0.03],[-0.09444444444444444,-0.022222222222222223],[-0.10444444444444445,-0.014444444444444444],[-0.11333333333333333,-0.006666666666666667],[-0.12222222222222222,0],[-0.1322222222222222,0.006666666666666667],[-0.14333333333333334,0.013333333333333334],[-0.15333333333333332,0.021111111111111112],[-0.16333333333333333,0.027777777777777776],[-0.17222222222222222,0.03333333333333333],[-0.18,0.04],[-0.18888888888888888,0.04555555555555556],[-0.19777777777777777,0.051111111111111114],[-0.20444444444444446,0.05444444444444444],[-0.21222222222222223,0.057777777777777775],[-0.21888888888888888,0.06111111111111111],[-0.22777777777777777,0.06444444444444444],[-0.23666666666666666,0.06777777777777778],[-0.24222222222222223,0.07],[-0.24666666666666667,0.07111111111111111],[-0.25,0.07333333333333333],[-0.25222222222222224,0.07333333333333333],[-0.2544444444444444,0.07444444444444444],[-0.25555555555555554,0.07444444444444444],[-0.2577777777777778,0.07444444444444444],[-0.2588888888888889,0.07444444444444444],[-0.2588888888888889,0.07444444444444444],[-0.2588888888888889,0.07444444444444444],[-0.26,0.07444444444444444],[-0.26,0.07444444444444444],[-0.2611111111111111,0.07444444444444444],[-0.2611111111111111,0.07444444444444444],[-0.2611111111111111,0.07444444444444444],[-0.2611111111111111,0.07444444444444444],[-0.2611111111111111,0.07444444444444444]]]",3,"[85,67,57]",,,,,,,,,,,,,,savanna5.jpg,space,10.511,0,14,14,90,1,trainStation1.jpg,sidewalk1.jpg,stripmall3.jpg,shoestore4.jpg,,
