image_list,key_resp_intructions.keys,key_resp_intructions.rt,key_resp_intructions_3.keys,key_resp_intructions_3.rt,PracticeComplete_2.keys,PracticeComplete_2.rt,PracticeComplete_3.keys,PracticeComplete_3.rt,demo_trials.thisRepN,demo_trials.thisTrialN,demo_trials.thisN,demo_trials.thisIndex,demo_trials.ran,demo_images,path_images,participant,date,expName,psychopyVersion,OS,frameRate,windowSize,practice_complete.keys,practice_complete.rt,boxes_checked,PracticeComplete.keys,PracticeComplete.rt,practice_trials.thisRepN,practice_trials.thisTrialN,practice_trials.thisN,practice_trials.thisIndex,practice_trials.ran,practice_images,feedback_images,key_resp_intructions_2.keys,key_resp_intructions_2.rt,Image_List_4,trial_complete.keys,trial_complete.rt,trial_mouse.x,trial_mouse.y,trial_mouse.leftButton,trial_mouse.midButton,trial_mouse.rightButton,trial_mouse.time,trial_mouse.clicked_name,trials.thisRepN,trials.thisTrialN,trials.thisN,trials.thisIndex,trials.ran,Image_List_1,Image_List_2,Image_List_3,Image_List_5,key_resp.keys,key_resp.rt
Image_List_4,space,5.34688,space,3.305785,space,12.987505,space,2.5328,0,0,0,6,1,right_left.jpg,right_left_path.jpg,44584,2020-11-19_17h53.57.799,lingCatScenes,2020.1.3,Win32,60,,,,,,,,,,,,,,,,,,,,,,,,,,,,,,,,,,,,
Image_List_4,,,,,space,2.169375,space,3.62763,0,1,1,3,1,ahead_right_left.jpg,ahead_right_left_path.jpg,44584,2020-11-19_17h53.57.799,lingCatScenes,2020.1.3,Win32,60,,,,,,,,,,,,,,,,,,,,,,,,,,,,,,,,,,,,
Image_List_4,,,,,space,5.500075,space,4.04487,0,2,2,4,1,left.jpg,left_path.jpg,44584,2020-11-19_17h53.57.799,lingCatScenes,2020.1.3,Win32,60,,,,,,,,,,,,,,,,,,,,,,,,,,,,,,,,,,,,
Image_List_4,,,,,space,5.059705,space,2.97946,0,3,3,2,1,ahead_right.jpg,ahead_right_path.jpg,44584,2020-11-19_17h53.57.799,lingCatScenes,2020.1.3,Win32,60,,,,,,,,,,,,,,,,,,,,,,,,,,,,,,,,,,,,
Image_List_4,,,,,space,3.619355,space,2.67538,0,4,4,1,1,ahead_left.jpg,ahead_left_path.jpg,44584,2020-11-19_17h53.57.799,lingCatScenes,2020.1.3,Win32,60,,,,,,,,,,,,,,,,,,,,,,,,,,,,,,,,,,,,
Image_List_4,,,,,space,2.73427,space,2.084955,0,5,5,0,1,ahead.jpg,ahead_path.jpg,44584,2020-11-19_17h53.57.799,lingCatScenes,2020.1.3,Win32,60,,,,,,,,,,,,,,,,,,,,,,,,,,,,,,,,,,,,
Image_List_4,,,,,space,3.87203,space,0.85176,0,6,6,5,1,right.jpg,right_path.jpg,44584,2020-11-19_17h53.57.799,lingCatScenes,2020.1.3,Win32,60,,,,,,,,,,,,,,,,,,,,,,,,,,,,,,,,,,,,
Image_List_4,,,,,,,,,,,,,,,,44584,2020-11-19_17h53.57.799,lingCatScenes,2020.1.3,Win32,60,"[1366,768]",space,3.864915,[],space,2.834385,0,0,0,2,1,ahead_right_2.jpg,ahead_right_2_path.jpg,,,,,,,,,,,,,,,,,,,,,,,
Image_List_4,,,,,,,,,,,,,,,,44584,2020-11-19_17h53.57.799,lingCatScenes,2020.1.3,Win32,60,"[1366,768]",space,4.02066,[],space,3.11259,0,1,1,5,1,right_2.jpg,right_2_path.jpg,,,,,,,,,,,,,,,,,,,,,,,
Image_List_4,,,,,,,,,,,,,,,,44584,2020-11-19_17h53.57.799,lingCatScenes,2020.1.3,Win32,60,"[1366,768]",space,13.562635,"[""ahead_box""]",space,4.63164,0,2,2,1,1,ahead_left_2.jpg,ahead_left_2_path.jpg,,,,,,,,,,,,,,,,,,,,,,,
Image_List_4,,,,,,,,,,,,,,,,44584,2020-11-19_17h53.57.799,lingCatScenes,2020.1.3,Win32,60,"[1366,768]",space,9.809815,"[""left_box"",""right_box""]",space,3.198605,0,3,3,6,1,right_left_2.jpg,right_left_2_path.jpg,,,,,,,,,,,,,,,,,,,,,,,
Image_List_4,,,,,,,,,,,,,,,,44584,2020-11-19_17h53.57.799,lingCatScenes,2020.1.3,Win32,60,"[1366,768]",space,4.259835,"[""ahead_box""]",space,1.543585,0,4,4,0,1,ahead_2.jpg,ahead_2_path.jpg,,,,,,,,,,,,,,,,,,,,,,,
Image_List_4,,,,,,,,,,,,,,,,44584,2020-11-19_17h53.57.799,lingCatScenes,2020.1.3,Win32,60,"[1366,768]",space,6.79354,"[""left_box""]",space,1.86288,0,5,5,4,1,left_2.jpg,left_2_path.jpg,,,,,,,,,,,,,,,,,,,,,,,
Image_List_4,,,,,,,,,,,,,,,,44584,2020-11-19_17h53.57.799,lingCatScenes,2020.1.3,Win32,60,"[1366,768]",space,9.703525,"[""left_box"",""ahead_box"",""right_box""]",space,2.28358,0,6,6,3,1,ahead_right_left_2.jpg,ahead_right_left_2_path.jpg,,,,,,,,,,,,,,,,,,,,,,,
Image_List_4,,,,,,,,,,,,,,,,44584,2020-11-19_17h53.57.799,lingCatScenes,2020.1.3,Win32,60,"[1366,768]",,,"[""trial_ahead_box""]",,,,,,,,,,space,2.33499,fabricstore1.jpg,space,3.92981,[-0.00390625],[-0.2903645833333333],[1],[0],[0],[2.8362899999992806],"[""trial_ahead_box""]",0,0,0,41,1,dugout4.jpg,farm3.jpg,drymountains3.jpg,dentist2.jpg,,
Image_List_4,,,,,,,,,,,,,,,,44584,2020-11-19_17h53.57.799,lingCatScenes,2020.1.3,Win32,60,"[1366,768]",,,"[""trial_left_box"",""trial_right_box""]",,,,,,,,,,,,wrestlingring7.jpg,space,15.198525,"[-0.4518229166666667,-0.3919270833333333,0.3997395833333333]","[-0.3111979166666667,-0.2994791666666667,-0.3020833333333333]","[1,1,1]","[0,0,0]","[0,0,0]","[6.3444300000010685,9.060649999999441,14.526269999998533]","[""trial_left_box"",""trial_right_box""]",0,1,1,99,1,wineVineyard9.jpg,yogastudio4.jpg,windmill2.jpg,yogastudio1.jpg,,
Image_List_4,,,,,,,,,,,,,,,,44584,2020-11-19_17h53.57.799,lingCatScenes,2020.1.3,Win32,60,"[1366,768]",,,"[""trial_ahead_box"",""trial_left_box"",""trial_right_box""]",,,,,,,,,,,,golfcourse7.jpg,space,9.485695,"[-0.0026041666666666665,-0.38671875,0.41015625]","[-0.27734375,-0.30859375,-0.3059895833333333]","[1,1,1]","[0,0,0]","[0,0,0]","[3.260870000001944,5.260620000000927,6.510395000001097]","[""trial_ahead_box"",""trial_left_box"",""trial_right_box""]",0,2,2,48,1,frontDoor2.jpg,golfcourse6.jpg,fittingroom5.jpg,fabricstore2.jpg,,
Image_List_4,,,,,,,,,,,,,,,,44584,2020-11-19_17h53.57.799,lingCatScenes,2020.1.3,Win32,60,"[1366,768]",,,"[""trial_left_box"",""trial_right_box""]",,,,,,,,,,,,museum3.jpg,space,6.959745,"[-0.3893229166666667,0.36328125,0.3815104166666667]","[-0.3125,-0.30078125,-0.30078125]","[1,1,1]","[0,0,0]","[0,0,0]","[2.244670000000042,4.844000000001017,5.577090000002556]","[""trial_left_box"",""trial_right_box""]",0,3,3,71,1,metroInside2.jpg,pavilion5.jpg,metroInside3.jpg,jewelrystore.jpg,,
Image_List_4,,,,,,,,,,,,,,,,44584,2020-11-19_17h53.57.799,lingCatScenes,2020.1.3,Win32,60,"[1366,768]",,,"[""trial_ahead_box""]",,,,,,,,,,,,homegarage3.jpg,space,5.027965,[-0.013020833333333334],[-0.2877604166666667],[1],[0],[0],[2.6096949999990784],"[""trial_ahead_box""]",0,4,4,53,1,gazebo3.jpg,homeoffice.jpg,frontLawn3.jpg,fountain.jpg,,
Image_List_4,,,,,,,,,,,,,,,,44584,2020-11-19_17h53.57.799,lingCatScenes,2020.1.3,Win32,60,"[1366,768]",,,"[""trial_ahead_box"",""trial_right_box""]",,,,,,,,,,,,highway.jpg,space,8.43139,"[0.0013020833333333333,0.3580729166666667,0.3841145833333333]","[-0.296875,-0.2981770833333333,-0.2955729166666667]","[1,1,1]","[0,0,0]","[0,0,0]","[3.3602200000023004,6.06030000000095,7.409310000002733]","[""trial_ahead_box"",""trial_right_box""]",0,5,5,52,1,gasstation7.jpg,hardwarestore1.jpg,frontFoyer6.jpg,forestpath2.jpg,,
Image_List_4,,,,,,,,,,,,,,,,44584,2020-11-19_17h53.57.799,lingCatScenes,2020.1.3,Win32,60,"[1366,768]",,,"[""trial_left_box"",""trial_right_box""]",,,,,,,,,,,,kindergarten_classroom7.jpg,space,5.507545,"[-0.4231770833333333,0.3880208333333333]","[-0.3111979166666667,-0.3151041666666667]","[1,1]","[0,0]","[0,0]","[3.878260000001376,4.8943400000026145]","[""trial_left_box"",""trial_right_box""]",0,6,6,61,1,HorseRaceTrack.jpg,metroInside4.jpg,homegarden6.jpg,hayfield6.jpg,,
Image_List_4,,,,,,,,,,,,,,,,44584,2020-11-19_17h53.57.799,lingCatScenes,2020.1.3,Win32,60,"[1366,768]",,,"[""trial_ahead_box"",""trial_left_box"",""trial_right_box""]",,,,,,,,,,,,park2.jpg,space,6.02346,"[-0.00390625,-0.3932291666666667,-0.3984375,0.4088541666666667]","[-0.2864583333333333,-0.3268229166666667,-0.3216145833333333,-0.2942708333333333]","[1,1,1,1]","[0,0,0,0]","[0,0,0,0]","[1.644285000002128,2.960670000000391,3.87736000000217,5.543665000001113]","[""trial_ahead_box"",""trial_left_box"",""trial_right_box""]",0,7,7,76,1,parkinggarage.jpg,playroom4.jpg,parkinggarage3.jpg,lookout4.jpg,,
Image_List_4,,,,,,,,,,,,,,,,44584,2020-11-19_17h53.57.799,lingCatScenes,2020.1.3,Win32,60,"[1366,768]",,,"[""trial_ahead_box""]",,,,,,,,,,,,hallway2.jpg,space,2.851915,[0.01953125],[-0.29296875],[1],[0],[0],[2.029159999998228],"[""trial_ahead_box""]",0,8,8,50,1,frontLawn4.jpg,grocerystore6.jpg,forestpath6.jpg,fireplace4.jpg,,
Image_List_4,,,,,,,,,,,,,,,,44584,2020-11-19_17h53.57.799,lingCatScenes,2020.1.3,Win32,60,"[1366,768]",,,"[""trial_left_box"",""trial_right_box""]",,,,,,,,,,,,igloo4.jpg,space,13.60406,"[0.020833333333333332,-0.37890625,-0.3854166666666667,0.3684895833333333,0.02734375,0.00390625,0.4270833333333333,0.3984375]","[-0.3033854166666667,-0.3294270833333333,-0.3177083333333333,-0.28515625,-0.29296875,-0.2942708333333333,-0.3151041666666667,-0.3072916666666667]","[1,1,1,1,1,1,1,1]","[0,0,0,0,0,0,0,0]","[0,0,0,0,0,0,0,0]","[3.5779249999977765,5.244415000001027,5.994224999998494,7.277364999998042,10.376454999997804,11.059779999999648,12.392854999998235,13.076339999999618]","[""trial_ahead_box"",""trial_left_box"",""trial_ahead_box"",""trial_right_box""]",0,9,9,58,1,highway7.jpg,lab1.jpg,hedgemaze1.jpg,grocerystore2.jpg,,
Image_List_4,,,,,,,,,,,,,,,,44584,2020-11-19_17h53.57.799,lingCatScenes,2020.1.3,Win32,60,"[1366,768]",,,"[""trial_left_box"",""trial_right_box""]",,,,,,,,,,,,minigolf8.jpg,space,6.278875,"[-0.4049479166666667,0.3893229166666667]","[-0.2890625,-0.31640625]","[1,1]","[0,0]","[0,0]","[4.379379999998491,5.595809999998892]","[""trial_left_box"",""trial_right_box""]",0,10,10,70,1,lockerroom4.jpg,pavilion.jpg,lockerroom3.jpg,igloo.jpg,,
Image_List_4,,,,,,,,,,,,,,,,44584,2020-11-19_17h53.57.799,lingCatScenes,2020.1.3,Win32,60,"[1366,768]",,,"[""trial_sharp_right_box"",""trial_sharp_left_box""]",,,,,,,,,,,,weightroom4.jpg,space,16.806885,"[0.4153645833333333,0.59375,-0.6080729166666666,-0.6015625,0.4049479166666667]","[-0.3072916666666667,-0.30078125,-0.3294270833333333,-0.3059895833333333,-0.2825520833333333]","[1,1,1,1,1]","[0,0,0,0,0]","[0,0,0,0,0]","[11.192875000000754,13.525814999997294,14.625794999999925,15.358759999999222,16.35846999999933]","[""trial_right_box"",""trial_sharp_right_box"",""trial_sharp_left_box"",""trial_right_box""]",0,11,11,95,1,waitingroom2.jpg,warehouse2.jpg,stripmall6.jpg,tvstudio3.jpg,,
Image_List_4,,,,,,,,,,,,,,,,44584,2020-11-19_17h53.57.799,lingCatScenes,2020.1.3,Win32,60,"[1366,768]",,,"[""trial_right_box"",""trial_left_box""]",,,,,,,,,,,,lab4.jpg,space,5.89942,"[0.3984375,-0.3919270833333333]","[-0.3229166666666667,-0.2786458333333333]","[1,1]","[0,0]","[0,0]","[1.9112850000020671,3.5772450000005165]","[""trial_right_box"",""trial_left_box""]",0,12,12,63,1,hut2.jpg,museum6.jpg,hotelRoom2.jpg,highway2.jpg,,
Image_List_4,,,,,,,,,,,,,,,,44584,2020-11-19_17h53.57.799,lingCatScenes,2020.1.3,Win32,60,"[1366,768]",,,"[""trial_right_box""]",,,,,,,,,,,,checkoutcounter2.jpg,space,5.851705,[0.39453125],[-0.3033854166666667],[1],[0],[0],[1.5955099999991944],"[""trial_right_box""]",0,13,13,25,1,campsite7.jpg,conference3.jpg,church3.jpg,botanicalGarden4.jpg,,
Image_List_4,,,,,,,,,,,,,,,,44584,2020-11-19_17h53.57.799,lingCatScenes,2020.1.3,Win32,60,"[1366,768]",,,"[""trial_ahead_box"",""trial_left_box"",""trial_right_box""]",,,,,,,,,,,,hut1.jpg,space,5.471835,"[-0.01171875,-0.4192708333333333,0.4205729166666667]","[-0.3098958333333333,-0.2903645833333333,-0.2916666666666667]","[1,1,1]","[0,0,0]","[0,0,0]","[2.526769999996759,3.61030999999997,4.9766749999980675]","[""trial_ahead_box"",""trial_left_box"",""trial_right_box""]",0,14,14,56,1,grocerystore5.jpg,hut3.jpg,golfcourse10.jpg,gasstation2.jpg,,
Image_List_4,,,,,,,,,,,,,,,,44584,2020-11-19_17h53.57.799,lingCatScenes,2020.1.3,Win32,60,"[1366,768]",,,"[""trial_ahead_box"",""trial_left_box"",""trial_right_box""]",,,,,,,,,,,,campusquad4.jpg,space,4.85773,"[-0.018229166666666668,-0.010416666666666666,-0.3802083333333333,0.3815104166666667]","[-0.34375,-0.3111979166666667,-0.2890625,-0.3125]","[1,1,1,1]","[0,0,0,0]","[0,0,0,0]","[1.4291249999986917,2.062049999996759,2.911984999998822,4.062039999997069]","[""trial_ahead_box"",""trial_left_box"",""trial_right_box""]",0,15,15,16,1,basement.jpg,cafeteria6.jpg,breakroom2.jpg,barbershop2.jpg,,
Image_List_4,,,,,,,,,,,,,,,,44584,2020-11-19_17h53.57.799,lingCatScenes,2020.1.3,Win32,60,"[1366,768]",,,"[""trial_slight_right_box""]",,,,,,,,,,,,doctor1.jpg,space,8.36373,[0.19921875],[-0.2942708333333333],[1],[0],[0],[4.460729999998762],"[""trial_slight_right_box""]",0,16,16,36,1,diner14.jpg,dormroom9.jpg,dining_car3.jpg,checkoutcounter9.jpg,,
Image_List_4,,,,,,,,,,,,,,,,44584,2020-11-19_17h53.57.799,lingCatScenes,2020.1.3,Win32,60,"[1366,768]",,,"[""trial_ahead_box""]",,,,,,,,,,,,farm4.jpg,space,3.21048,[0],[-0.2903645833333333],[1],[0],[0],[2.1942649999982677],"[""trial_ahead_box""]",0,17,17,42,1,exerciseequipment3.jpg,firestation3.jpg,drymountains6.jpg,desertvegetation2.jpg,,
Image_List_4,,,,,,,,,,,,,,,,44584,2020-11-19_17h53.57.799,lingCatScenes,2020.1.3,Win32,60,"[1366,768]",,,"[""trial_left_box"",""trial_right_box""]",,,,,,,,,,,,drymountains5.jpg,space,9.257,"[-0.39453125,0.39453125]","[-0.3190104166666667,-0.3203125]","[1,1]","[0,0]","[0,0]","[3.2277099999993197,7.026630000000409]","[""trial_left_box"",""trial_right_box""]",0,18,18,39,1,driveway6.jpg,eyeglassstore9.jpg,drycleaners6.jpg,cliff5.jpg,,
Image_List_4,,,,,,,,,,,,,,,,44584,2020-11-19_17h53.57.799,lingCatScenes,2020.1.3,Win32,60,"[1366,768]",,,"[""trial_slight_left_box"",""trial_right_box""]",,,,,,,,,,,,dugout1.jpg,space,16.83771,"[-0.18880208333333334,0.04296875,0.014322916666666666,0.014322916666666666,0.57421875,0.3984375]","[-0.3059895833333333,-0.3229166666666667,-0.3138020833333333,-0.3138020833333333,-0.2877604166666667,-0.296875]","[1,1,1,1,1,1]","[0,0,0,0,0,0]","[0,0,0,0,0,0]","[7.3097799999995345,10.709015000000363,11.57573000000042,12.808440000000587,14.624709999999993,15.524554999999907]","[""trial_slight_left_box"",""trial_ahead_box"",""trial_ahead_box"",""trial_right_box""]",0,19,19,40,1,drycleaners4.jpg,farm1.jpg,drymountains.jpg,clothingstore3.jpg,,
Image_List_4,,,,,,,,,,,,,,,,44584,2020-11-19_17h53.57.799,lingCatScenes,2020.1.3,Win32,60,"[1366,768]",,,"[""trial_right_box""]",,,,,,,,,,,,foodcourt.jpg,space,8.44741,"[0.3841145833333333,-0.37890625,-0.3841145833333333]","[-0.2955729166666667,-0.3020833333333333,-0.3020833333333333]","[1,1,1]","[0,0,0]","[0,0,0]","[2.677349999998114,6.243139999998675,7.142504999999744]","[""trial_right_box"",""trial_left_box"",""trial_left_box""]",0,20,20,43,1,exerciseequipment5.jpg,forestpath10.jpg,dugout2.jpg,diningroom3.jpg,,
Image_List_4,,,,,,,,,,,,,,,,44584,2020-11-19_17h53.57.799,lingCatScenes,2020.1.3,Win32,60,"[1366,768]",,,"[""trial_ahead_box"",""trial_left_box"",""trial_right_box""]",,,,,,,,,,,,basketballcourt3.jpg,space,4.668,"[-0.0390625,-0.010416666666666666,-0.4114583333333333,0.4231770833333333]","[-0.2955729166666667,-0.3033854166666667,-0.3072916666666667,-0.3229166666666667]","[1,1,1,1]","[0,0,0,0]","[0,0,0,0]","[1.6943499999978258,2.4107850000000326,3.277040000000852,4.160684999998864]","[""trial_ahead_box"",""trial_left_box"",""trial_right_box""]",0,21,21,10,1,backstage2.jpg,barbershop3.jpg,ballroom4.jpg,ATM4.jpg,,
Image_List_4,,,,,,,,,,,,,,,,44584,2020-11-19_17h53.57.799,lingCatScenes,2020.1.3,Win32,60,"[1366,768]",,,"[""trial_left_box""]",,,,,,,,,,,,hotelRoom7.jpg,space,3.383575,[-0.390625],[-0.3020833333333333],[1],[0],[0],[2.463145000001532],"[""trial_left_box""]",0,22,22,55,1,greenmountains.jpg,hotelRoom3.jpg,gazebo5.jpg,frontLawn2.jpg,,
Image_List_4,,,,,,,,,,,,,,,,44584,2020-11-19_17h53.57.799,lingCatScenes,2020.1.3,Win32,60,"[1366,768]",,,"[""trial_left_box"",""trial_right_box""]",,,,,,,,,,,,poolhall5.jpg,space,5.08267,"[-0.41015625,0.4088541666666667]","[-0.3125,-0.3059895833333333]","[1,1]","[0,0]","[0,0]","[2.894479999999078,4.544164999999339]","[""trial_left_box"",""trial_right_box""]",0,23,23,80,1,pavilion2.jpg,racecarcourse2.jpg,porch.jpg,parkinggarage4.jpg,,
Image_List_4,,,,,,,,,,,,,,,,44584,2020-11-19_17h53.57.799,lingCatScenes,2020.1.3,Win32,60,"[1366,768]",,,"[""trial_left_box"",""trial_ahead_box"",""trial_right_box""]",,,,,,,,,,,,operatingroom1.jpg,space,5.50904,"[-0.4049479166666667,0.010416666666666666,0.4296875,0.4010416666666667]","[-0.3033854166666667,-0.31640625,-0.3046875,-0.2994791666666667]","[1,1,1,1]","[0,0,0,0]","[0,0,0,0]","[2.1937900000011155,3.3431550000021844,4.343160000000296,4.959930000000838]","[""trial_left_box"",""trial_ahead_box"",""trial_right_box""]",0,24,24,74,1,newsstand2.jpg,playground10.jpg,observatory4.jpeg,lightingstore2.jpg,,
Image_List_4,,,,,,,,,,,,,,,,44584,2020-11-19_17h53.57.799,lingCatScenes,2020.1.3,Win32,60,"[1366,768]",,,"[""trial_left_box"",""trial_right_box""]",,,,,,,,,,,,fountain7.jpg,space,4.490815,"[-0.3880208333333333,0.3736979166666667,0.4270833333333333,0.4049479166666667]","[-0.27734375,-0.2942708333333333,-0.296875,-0.3020833333333333]","[1,1,1,1]","[0,0,0,0]","[0,0,0,0]","[1.7118399999998815,2.628294999998559,3.4447349999973085,4.061219999999537]","[""trial_left_box"",""trial_right_box""]",0,25,25,47,1,frontDoor.jpg,gasstation8.jpg,firestation4.jpg,elevatorOutside2.jpg,,
Image_List_4,,,,,,,,,,,,,,,,44584,2020-11-19_17h53.57.799,lingCatScenes,2020.1.3,Win32,60,"[1366,768]",,,"[""trial_left_box""]",,,,,,,,,,,,homegarage4.jpg,space,2.56766,[-0.4049479166666667],[-0.2890625],[1],[0],[0],[1.661610000002952],"[""trial_left_box""]",0,26,26,54,1,greenhouse2.jpg,horsebarn11.jpg,gazebo2.jpg,frontFoyer.jpg,,
Image_List_4,,,,,,,,,,,,,,,,44584,2020-11-19_17h53.57.799,lingCatScenes,2020.1.3,Win32,60,"[1366,768]",,,"[""trial_slight_left_box"",""trial_slight_right_box"",""trial_ahead_box""]",,,,,,,,,,,,pier2.jpg,space,9.22095,"[-0.20703125,0.24348958333333334,0.22395833333333334,0.006510416666666667]","[-0.30859375,-0.3046875,-0.30859375,-0.3033854166666667]","[1,1,1,1]","[0,0,0,0]","[0,0,0,0]","[3.4963749999988636,4.429585000001737,5.196794999999781,8.17895000000135]","[""trial_slight_left_box"",""trial_slight_right_box"",""trial_ahead_box""]",0,27,27,79,1,pasture.jpg,poolhall2.jpeg,playground9.jpg,observatory2.jpg,,
Image_List_4,,,,,,,,,,,,,,,,44584,2020-11-19_17h53.57.799,lingCatScenes,2020.1.3,Win32,60,"[1366,768]",,,"[""trial_right_box"",""trial_left_box"",""trial_ahead_box""]",,,,,,,,,,,,winebarrel4.jpg,space,12.110295,"[0.3958333333333333,-0.3893229166666667,-0.4036458333333333,-0.40234375,0.049479166666666664,0.013020833333333334]","[-0.30078125,-0.3372395833333333,-0.3372395833333333,-0.2994791666666667,-0.3046875,-0.30859375]","[1,1,1,1,1,1]","[0,0,0,0,0,0]","[0,0,0,0,0,0]","[5.3947900000021605,7.860560000000987,8.810489999999902,9.81017000000071,10.776809999999443,11.393025000001273]","[""trial_right_box"",""trial_left_box"",""trial_ahead_box""]",0,28,28,98,1,weightroom5.jpg,wineVineyard8.jpg,warehouse3.jpg,winebarrel2.jpg,,
Image_List_4,,,,,,,,,,,,,,,,44584,2020-11-19_17h53.57.799,lingCatScenes,2020.1.3,Win32,60,"[1366,768]",,,"[""trial_ahead_box""]",,,,,,,,,,,,dining_car6.jpg,space,3.428685,[0.013020833333333334],[-0.3151041666666667],[1],[0],[0],[2.6947800000016855],"[""trial_ahead_box""]",0,29,29,35,1,deck5.jpg,dock3.jpg,cubicle7.jpg,carmechanic2.jpg,,
Image_List_4,,,,,,,,,,,,,,,,44584,2020-11-19_17h53.57.799,lingCatScenes,2020.1.3,Win32,60,"[1366,768]",,,"[""trial_slight_left_box""]",,,,,,,,,,,,cemetery.jpg,space,9.849625,"[-0.19921875,0.6315104166666666]","[-0.29296875,-0.3033854166666667]","[1,1]","[0,0]","[0,0]","[3.3630550000017365,6.445784999999944]","[""trial_slight_left_box""]",0,30,30,22,1,bowlingalley5.jpg,church6.jpg,cargo5.jpg,bistrooutdoor6.jpg,,
Image_List_4,,,,,,,,,,,,,,,,44584,2020-11-19_17h53.57.799,lingCatScenes,2020.1.3,Win32,60,"[1366,768]",,,"[""trial_left_box"",""trial_right_box""]",,,,,,,,,,,,sculpturegarden2.jpg,space,5.164735,"[-0.41796875,-0.41796875,-0.4049479166666667,0.4192708333333333]","[-0.3619791666666667,-0.359375,-0.2864583333333333,-0.2877604166666667]","[1,1,1,1]","[0,0,0,0]","[0,0,0,0]","[1.794995000000256,2.511384999997972,3.0947049999994647,4.394290000000183]","[""trial_left_box"",""trial_right_box""]",0,31,31,87,1,restaurantkitchen2.jpg,theater2.jpg,savanna.jpg,RVinside2.jpg,,
Image_List_4,,,,,,,,,,,,,,,,44584,2020-11-19_17h53.57.799,lingCatScenes,2020.1.3,Win32,60,"[1366,768]",,,"[""trial_slight_right_box"",""trial_slight_left_box""]",,,,,,,,,,,,weightroom.jpg,space,12.190095,"[0.19270833333333334,-0.18489583333333334]","[-0.3098958333333333,-0.3072916666666667]","[1,1]","[0,0]","[0,0]","[9.726650000000518,11.026320000000851]","[""trial_slight_right_box"",""trial_slight_left_box""]",0,32,32,94,1,treehouse.jpg,waitingroom3.jpg,staircase6.jpg,trainStation3.jpg,,
Image_List_4,,,,,,,,,,,,,,,,44584,2020-11-19_17h53.57.799,lingCatScenes,2020.1.3,Win32,60,"[1366,768]",,,"[""trial_ahead_box"",""trial_left_box""]",,,,,,,,,,,,appleorchard2.jpg,space,5.081395,"[0.006510416666666667,-0.4153645833333333,-0.4036458333333333]","[-0.3138020833333333,-0.3333333333333333,-0.2916666666666667]","[1,1,1]","[0,0,0]","[0,0,0]","[1.661775000000489,2.9281150000024354,3.861080000002403]","[""trial_ahead_box"",""trial_left_box""]",0,33,33,3,1,apartmentBuilding2.jpg,attic1.jpg,aquarium1.jpg,alley3.jpg,,
Image_List_4,,,,,,,,,,,,,,,,44584,2020-11-19_17h53.57.799,lingCatScenes,2020.1.3,Win32,60,"[1366,768]",,,[],,,,,,,,,,,,rainforest5.jpg,space,5.325125,[],[],[],[],[],[],[],0,34,34,81,1,promenadeDeck.jpg,ruralroad5.jpg,promenadeDeck2.jpg,pasture8.jpg,,
Image_List_4,,,,,,,,,,,,,,,,44584,2020-11-19_17h53.57.799,lingCatScenes,2020.1.3,Win32,60,"[1366,768]",,,"[""trial_left_box"",""trial_right_box"",""trial_slight_left_box""]",,,,,,,,,,,,greenhouse.jpg,space,7.16154,"[-0.3841145833333333,0.41015625,-0.20442708333333334]","[-0.3072916666666667,-0.2955729166666667,-0.2760416666666667]","[1,1,1]","[0,0,0]","[0,0,0]","[2.011640000000625,3.394834999999148,6.31110500000068]","[""trial_left_box"",""trial_right_box"",""trial_slight_left_box""]",0,35,35,49,1,frontDoor3.jpg,greenhouse5.jpg,flowershop3.jpg,farm2.jpg,,
Image_List_4,,,,,,,,,,,,,,,,44584,2020-11-19_17h53.57.799,lingCatScenes,2020.1.3,Win32,60,"[1366,768]",,,"[""trial_ahead_box""]",,,,,,,,,,,,forestpath4.jpg,space,2.731825,[-0.00390625],[-0.29296875],[1],[0],[0],[1.4969149999998308],"[""trial_ahead_box""]",0,36,36,45,1,fittingroom2.jpg,frontFoyer7.jpg,factory1.jpg,dock4.jpg,,
Image_List_4,,,,,,,,,,,,,,,,44584,2020-11-19_17h53.57.799,lingCatScenes,2020.1.3,Win32,60,"[1366,768]",,,"[""trial_ahead_box"",""trial_left_box"",""trial_right_box""]",,,,,,,,,,,,readingroom4.jpg,space,6.20807,"[-0.0013020833333333333,-0.3984375,-0.3984375,-0.3958333333333333,0.4036458333333333]","[-0.31640625,-0.3424479166666667,-0.3268229166666667,-0.2981770833333333,-0.3033854166666667]","[1,1,1,1,1]","[0,0,0,0,0]","[0,0,0,0,0]","[1.5452750000005153,2.845160000000874,4.095065000001341,4.811710000001881,5.861270000001355]","[""trial_ahead_box"",""trial_left_box"",""trial_right_box""]",0,37,37,82,1,publicrestroom2.jpg,sandDunes_desert_outdoor9.jpg,promenadeDeck3.jpg,postoffice4.jpg,,
Image_List_4,,,,,,,,,,,,,,,,44584,2020-11-19_17h53.57.799,lingCatScenes,2020.1.3,Win32,60,"[1366,768]",,,"[""trial_slight_right_box""]",,,,,,,,,,,,attic4.jpg,space,3.809425,[0.19140625],[-0.2903645833333333],[1],[0],[0],[1.9298149999995076],"[""trial_slight_right_box""]",0,38,38,5,1,artStudio3.jpg,bambooforest.jpg,auto_showroom4.jpg,amusement3.jpg,,
Image_List_4,,,,,,,,,,,,,,,,44584,2020-11-19_17h53.57.799,lingCatScenes,2020.1.3,Win32,60,"[1366,768]",,,"[""trial_ahead_box""]",,,,,,,,,,,,churchInside3.jpg,space,2.09095,[-0.0026041666666666665],[-0.2786458333333333],[1],[0],[0],[1.4284350000015138],"[""trial_ahead_box""]",0,39,39,26,1,campusquad2.jpg,cornfield4.jpg,church4.jpg,botanicalGarden7.jpg,,
Image_List_4,,,,,,,,,,,,,,,,44584,2020-11-19_17h53.57.799,lingCatScenes,2020.1.3,Win32,60,"[1366,768]",,,"[""trial_left_box"",""trial_right_box""]",,,,,,,,,,,,liquorstore2.jpg,space,4.450305,"[-0.3997395833333333,0.40625]","[-0.3046875,-0.3059895833333333]","[1,1]","[0,0]","[0,0]","[1.6280549999974028,3.2941549999995914]","[""trial_left_box"",""trial_right_box""]",0,40,40,67,1,library_aisle3.jpg,park7.jpg,laundromat4.jpg,hospitalroom2.jpg,,
Image_List_4,,,,,,,,,,,,,,,,44584,2020-11-19_17h53.57.799,lingCatScenes,2020.1.3,Win32,60,"[1366,768]",,,"[""trial_ahead_box"",""trial_right_box""]",,,,,,,,,,,,carmechanic.jpg,space,4.2624,"[-0.009114583333333334,0.40234375]","[-0.2825520833333333,-0.3020833333333333]","[1,1]","[0,0]","[0,0]","[2.5623450000022103,3.962344999999914]","[""trial_ahead_box"",""trial_right_box""]",0,41,41,17,1,bikerack1.jpg,campsite6.jpg,breakroom4.jpg,baseball6.jpg,,
Image_List_4,,,,,,,,,,,,,,,,44584,2020-11-19_17h53.57.799,lingCatScenes,2020.1.3,Win32,60,"[1366,768]",,,"[""trial_ahead_box"",""trial_right_box""]",,,,,,,,,,,,metroInside1.jpg,space,8.59222,"[0.010416666666666666,0.3932291666666667,0.3893229166666667]","[-0.3033854166666667,-0.2604166666666667,-0.2981770833333333]","[1,1,1]","[0,0,0]","[0,0,0]","[1.3784500000001572,5.177414999998291,6.127179999999498]","[""trial_ahead_box"",""trial_right_box""]",0,42,42,69,1,liquorstore8.jpg,parkinglot2.jpg,livingroom.jpg,icecream2.jpg,,
Image_List_4,,,,,,,,,,,,,,,,44584,2020-11-19_17h53.57.799,lingCatScenes,2020.1.3,Win32,60,"[1366,768]",,,"[""trial_ahead_box"",""trial_slight_left_box"",""trial_left_box"",""trial_sharp_left_box"",""trial_slight_right_box"",""trial_right_box"",""trial_sharp_right_box""]",,,,,,,,,,,,sandDunes_desert_outdoor8.jpg,space,8.43708,"[-0.033854166666666664,-0.01953125,-0.18619791666666666,-0.4192708333333333,-0.57421875,-0.59765625,0.19401041666666666,0.4010416666666667,0.5846354166666666]","[-0.3151041666666667,-0.3033854166666667,-0.3046875,-0.3203125,-0.2903645833333333,-0.29296875,-0.3046875,-0.3046875,-0.2786458333333333]","[1,1,1,1,1,1,1,1,1]","[0,0,0,0,0,0,0,0,0]","[0,0,0,0,0,0,0,0,0]","[1.9625149999992573,2.662234999999896,3.311859999997978,3.928509999997914,4.528630000000703,5.145020000000045,6.244814999998198,7.294719999998051,7.910984999998732]","[""trial_ahead_box"",""trial_slight_left_box"",""trial_left_box"",""trial_sharp_left_box"",""trial_slight_right_box"",""trial_right_box"",""trial_sharp_right_box""]",0,43,43,86,1,restaurant14.jpg,stripmall.jpg,ruralroad3.jpg,rooftop4.jpg,,
Image_List_4,,,,,,,,,,,,,,,,44584,2020-11-19_17h53.57.799,lingCatScenes,2020.1.3,Win32,60,"[1366,768]",,,"[""trial_left_box""]",,,,,,,,,,,,baggageClaim1.jpg,space,5.406935,"[-0.37109375,-0.4361979166666667,-0.3958333333333333]","[-0.2916666666666667,-0.2942708333333333,-0.29296875]","[1,1,1]","[0,0,0]","[0,0,0]","[1.893524999999613,2.6597400000027847,3.6928900000020803]","[""trial_left_box""]",0,44,44,6,1,ATM1.jpg,banquetHall2.jpg,auto_showroom5.jpg,apartmentBuilding3.jpg,,
Image_List_4,,,,,,,,,,,,,,,,44584,2020-11-19_17h53.57.799,lingCatScenes,2020.1.3,Win32,60,"[1366,768]",,,[],,,,,,,,,,,,baywindow5.jpg,space,3.607885,[],[],[],[],[],[],[],0,45,45,11,1,backyard2.jpg,basketballcourt4.jpg,bambooforest3.jpg,backyard1.jpg,,
Image_List_4,,,,,,,,,,,,,,,,44584,2020-11-19_17h53.57.799,lingCatScenes,2020.1.3,Win32,60,"[1366,768]",,,"[""trial_left_box"",""trial_right_box""]",,,,,,,,,,,,airplanecabin5.jpg,space,3.686735,"[-0.4049479166666667,0.37890625,0.4166666666666667]","[-0.2760416666666667,-0.3294270833333333,-0.30859375]","[1,1,1]","[0,0,0]","[0,0,0]","[1.495080000000712,2.4781750000003058,3.1278749999984257]","[""trial_left_box"",""trial_right_box""]",0,46,46,0,1,airplanecabin1.jpg,alley2.jpg,appleorchard4.jpg,airplanecabin3.jpg,,
Image_List_4,,,,,,,,,,,,,,,,44584,2020-11-19_17h53.57.799,lingCatScenes,2020.1.3,Win32,60,"[1366,768]",,,"[""trial_ahead_box"",""trial_slight_left_box"",""trial_left_box"",""trial_slight_right_box"",""trial_right_box"",""trial_sharp_right_box"",""trial_sharp_left_box""]",,,,,,,,,,,,soccerfield.jpg,space,11.450815,"[-0.026041666666666668,-0.01953125,-0.23046875,-0.21744791666666666,-0.4010416666666667,0.15885416666666666,0.17447916666666666,0.20442708333333334,0.4153645833333333,0.6015625,-0.5859375,-0.62109375]","[-0.2877604166666667,-0.2877604166666667,-0.3033854166666667,-0.2981770833333333,-0.296875,-0.2994791666666667,-0.2994791666666667,-0.3046875,-0.2877604166666667,-0.2916666666666667,-0.3255208333333333,-0.3138020833333333]","[1,1,1,1,1,1,1,1,1,1,1,1]","[0,0,0,0,0,0,0,0,0,0,0,0]","[0,0,0,0,0,0,0,0,0,0,0,0]","[1.3114400000011983,1.994764999999461,2.6778249999988475,3.729409999999916,4.610945000000356,5.527665000001434,6.060600000000704,6.643514999999866,7.6769249999997555,9.026450000001319,10.043275000000108,10.85972000000038]","[""trial_ahead_box"",""trial_slight_left_box"",""trial_left_box"",""trial_slight_right_box"",""trial_right_box"",""trial_sharp_right_box"",""trial_sharp_left_box""]",0,47,47,88,1,rooftop1.jpg,track.jpg,sculpturegarden4.jpg,sandbox.jpg,,
Image_List_4,,,,,,,,,,,,,,,,44584,2020-11-19_17h53.57.799,lingCatScenes,2020.1.3,Win32,60,"[1366,768]",,,"[""trial_sharp_left_box"",""trial_left_box"",""trial_slight_left_box"",""trial_ahead_box"",""trial_slight_right_box"",""trial_right_box"",""trial_sharp_right_box""]",,,,,,,,,,,,sandDunes_desert_outdoor3.jpg,space,7.47928,"[-0.6041666666666666,-0.4388020833333333,-0.4140625,-0.2109375,-0.0026041666666666665,0.17838541666666666,0.4153645833333333,0.62109375]","[-0.2994791666666667,-0.2903645833333333,-0.2955729166666667,-0.2877604166666667,-0.2994791666666667,-0.2838541666666667,-0.2903645833333333,-0.2981770833333333]","[1,1,1,1,1,1,1,1]","[0,0,0,0,0,0,0,0]","[0,0,0,0,0,0,0,0]","[1.7783349999989468,2.5448099999994156,3.04491500000222,4.094974999999977,5.0776599999989,5.84420999999918,6.510890000001382,7.160490000002028]","[""trial_sharp_left_box"",""trial_left_box"",""trial_slight_left_box"",""trial_ahead_box"",""trial_slight_right_box"",""trial_right_box"",""trial_sharp_right_box""]",0,48,48,85,1,recordingstudio4.jpg,sidewalk5.jpg,ruralroad2.jpg,rooftop3.jpg,,
Image_List_4,,,,,,,,,,,,,,,,44584,2020-11-19_17h53.57.799,lingCatScenes,2020.1.3,Win32,60,"[1366,768]",,,"[""trial_ahead_box"",""trial_left_box"",""trial_right_box"",""trial_slight_left_box""]",,,,,,,,,,,,castle4.jpg,space,7.217365,"[0,-0.3984375,-0.3997395833333333,0.3854166666666667,-0.20572916666666666]","[-0.27734375,-0.3307291666666667,-0.3072916666666667,-0.30859375,-0.30078125]","[1,1,1,1,1]","[0,0,0,0,0]","[0,0,0,0,0]","[2.1127350000024308,3.1954700000023877,4.078265000000101,5.061680000002639,6.111355000000913]","[""trial_ahead_box"",""trial_left_box"",""trial_right_box"",""trial_slight_left_box""]",0,49,49,19,1,boardwalk2.jpg,casino3.jpg,cafeteria1.jpg,basketballcourt.jpg,,
Image_List_4,,,,,,,,,,,,,,,,44584,2020-11-19_17h53.57.799,lingCatScenes,2020.1.3,Win32,60,"[1366,768]",,,"[""trial_left_box"",""trial_right_box""]",,,,,,,,,,,,bleachers7.jpg,space,4.376,"[-0.390625,0.3723958333333333,0.39453125]","[-0.3216145833333333,-0.2825520833333333,-0.2877604166666667]","[1,1,1]","[0,0,0]","[0,0,0]","[1.3280200000006062,3.0111749999995254,3.67783000000054]","[""trial_left_box"",""trial_right_box""]",0,50,50,12,1,baggageClaim4.jpg,bedroom6.jpg,bambooforest5.jpg,backyard5.jpg,,
Image_List_4,,,,,,,,,,,,,,,,44584,2020-11-19_17h53.57.799,lingCatScenes,2020.1.3,Win32,60,"[1366,768]",,,"[""trial_left_box"",""trial_ahead_box"",""trial_slight_right_box""]",,,,,,,,,,,,park8.jpg,space,10.65147,"[-0.40234375,0.0026041666666666665,0.005208333333333333,0.01171875,0.20182291666666666]","[-0.3229166666666667,-0.3411458333333333,-0.3268229166666667,-0.28515625,-0.30859375]","[1,1,1,1,1]","[0,0,0,0,0]","[0,0,0,0,0]","[2.3623900000019376,3.9614749999999503,4.611140000000773,5.3444900000029065,6.19410500000231]","[""trial_left_box"",""trial_ahead_box"",""trial_slight_right_box""]",0,51,51,77,1,parkinggarage2.jpg,playroom6.jpg,pasture9.jpg,mallindoor6.jpg,,
Image_List_4,,,,,,,,,,,,,,,,44584,2020-11-19_17h53.57.799,lingCatScenes,2020.1.3,Win32,60,"[1366,768]",,,"[""trial_left_box"",""trial_right_box""]",,,,,,,,,,,,lab3.jpg,space,4.07709,"[-0.3841145833333333,0.3971354166666667]","[-0.3020833333333333,-0.30859375]","[1,1]","[0,0]","[0,0]","[1.8632050000014715,2.9962200000009034]","[""trial_left_box"",""trial_right_box""]",0,52,52,62,1,hotellobby2.jpg,minigolf.jpg,horsebarn8.jpg,hayfield7.jpg,,
Image_List_4,,,,,,,,,,,,,,,,44584,2020-11-19_17h53.57.799,lingCatScenes,2020.1.3,Win32,60,"[1366,768]",,,"[""trial_left_box"",""trial_right_box""]",,,,,,,,,,,,constructionSite4.jpg,space,3.875225,"[-0.40234375,0.4127604166666667]","[-0.30859375,-0.3059895833333333]","[1,1]","[0,0]","[0,0]","[1.595349999999712,2.8116649999975607]","[""trial_left_box"",""trial_right_box""]",0,53,53,29,1,cornfield2.jpg,deck2.jpg,cliff2.jpg,bridalboutique3.jpg,,
Image_List_4,,,,,,,,,,,,,,,,44584,2020-11-19_17h53.57.799,lingCatScenes,2020.1.3,Win32,60,"[1366,768]",,,"[""trial_left_box"",""trial_right_box"",""trial_slight_left_box""]",,,,,,,,,,,,windmill1.jpg,space,18.73769,"[-0.34765625,-0.3841145833333333,0.4192708333333333,0.020833333333333332,0.01953125,0.0078125,-0.006510416666666667,-0.19401041666666666]","[-0.2890625,-0.3020833333333333,-0.3203125,-0.2630208333333333,-0.2669270833333333,-0.2877604166666667,-0.2877604166666667,-0.296875]","[1,1,1,1,1,1,1,1]","[0,0,0,0,0,0,0,0]","[0,0,0,0,0,0,0,0]","[4.8108700000011595,5.410875000001397,6.96112500000163,9.143505000000005,9.660309999999413,10.35984499999904,13.975715000000605,15.008825000000797]","[""trial_left_box"",""trial_right_box"",""trial_ahead_box"",""trial_ahead_box"",""trial_slight_left_box""]",0,54,54,96,1,warehouse4.jpg,warehouseoutside1.jpg,tenniscourt3.jpg,warehouse1.jpg,,
Image_List_4,,,,,,,,,,,,,,,,44584,2020-11-19_17h53.57.799,lingCatScenes,2020.1.3,Win32,60,"[1366,768]",,,"[""trial_left_box"",""trial_ahead_box"",""trial_slight_right_box"",""trial_slight_left_box""]",,,,,,,,,,,,warehouseoutside2.jpg,space,9.692915,"[-0.4322916666666667,-0.3815104166666667,0.006510416666666667,0.20442708333333334,-0.19140625]","[-0.29296875,-0.28125,-0.2955729166666667,-0.2903645833333333,-0.2955729166666667]","[1,1,1,1,1]","[0,0,0,0,0]","[0,0,0,0,0]","[2.0586400000029244,2.708614999999554,3.7750550000018848,6.207830000003014,7.424075000002631]","[""trial_left_box"",""trial_ahead_box"",""trial_slight_right_box"",""trial_slight_left_box""]",0,55,55,93,1,tollbooth8.jpg,volleyballcourt4.jpg,staircase4.jpg,tenniscourt.jpg,,
Image_List_4,,,,,,,,,,,,,,,,44584,2020-11-19_17h53.57.799,lingCatScenes,2020.1.3,Win32,60,"[1366,768]",,,"[""trial_slight_left_box""]",,,,,,,,,,,,cave5.jpg,space,13.007245,[-0.20833333333333334],[-0.3098958333333333],[1],[0],[0],[5.812284999999861],"[""trial_slight_left_box""]",0,56,56,21,1,botanicalGarden6.jpg,cemetery6.jpg,campusquad3.jpg,beach1.jpeg,,
Image_List_4,,,,,,,,,,,,,,,,44584,2020-11-19_17h53.57.799,lingCatScenes,2020.1.3,Win32,60,"[1366,768]",,,"[""trial_left_box"",""trial_slight_left_box"",""trial_ahead_box"",""trial_slight_right_box"",""trial_right_box""]",,,,,,,,,,,,driveway8.jpg,space,7.930525,"[-0.3932291666666667,-0.16796875,-0.20963541666666666,0.013020833333333334,0.16796875,0.1953125,0.4166666666666667]","[-0.30078125,-0.29296875,-0.29296875,-0.2942708333333333,-0.2942708333333333,-0.2916666666666667,-0.3059895833333333]","[1,1,1,1,1,1,1]","[0,0,0,0,0,0,0]","[0,0,0,0,0,0,0]","[1.9634900000017979,3.0795099999995728,3.6128600000009783,4.779389999999694,5.512510000000475,6.162335000000894,7.279120000002877]","[""trial_left_box"",""trial_slight_left_box"",""trial_ahead_box"",""trial_slight_right_box"",""trial_right_box""]",0,57,57,38,1,dining_car2.jpg,elevatorOutside4.jpg,dock1.jpg,classroom1.jpg,,
Image_List_4,,,,,,,,,,,,,,,,44584,2020-11-19_17h53.57.799,lingCatScenes,2020.1.3,Win32,60,"[1366,768]",,,"[""trial_ahead_box"",""trial_slight_right_box""]",,,,,,,,,,,,diner10.jpg,space,4.241095,"[0.005208333333333333,0.1953125]","[-0.29296875,-0.3020833333333333]","[1,1]","[0,0]","[0,0]","[2.1950350000007575,3.2282350000025417]","[""trial_ahead_box"",""trial_slight_right_box""]",0,58,58,33,1,deck1.jpg,diningroom1.jpg,courthouse2.jpg,cabinIndoors5.jpg,,
Image_List_4,,,,,,,,,,,,,,,,44584,2020-11-19_17h53.57.799,lingCatScenes,2020.1.3,Win32,60,"[1366,768]",,,"[""trial_ahead_box"",""trial_slight_left_box"",""trial_slight_right_box""]",,,,,,,,,,,,park.jpg,space,5.32427,"[-0.014322916666666666,-0.23567708333333334,-0.2109375,0.18880208333333334]","[-0.30859375,-0.3072916666666667,-0.3072916666666667,-0.3138020833333333]","[1,1,1,1]","[0,0,0,0]","[0,0,0,0]","[1.7286149999999907,2.395410000000993,3.0285900000017136,3.994750000001659]","[""trial_ahead_box"",""trial_slight_left_box"",""trial_slight_right_box""]",0,59,59,75,1,pantry5.jpg,playground6.jpg,operatingroom4.jpg,lockerroom.jpg,,
Image_List_4,,,,,,,,,,,,,,,,44584,2020-11-19_17h53.57.799,lingCatScenes,2020.1.3,Win32,60,"[1366,768]",,,"[""trial_right_box""]",,,,,,,,,,,,hayfield4.jpg,space,3.66375,[0.3971354166666667],[-0.2942708333333333],[1],[0],[0],[2.928189999998608],"[""trial_right_box""]",0,60,60,51,1,gasstation6.jpg,hallway5.jpg,frontDoor5.jpg,firestation5.jpg,,
Image_List_4,,,,,,,,,,,,,,,,44584,2020-11-19_17h53.57.799,lingCatScenes,2020.1.3,Win32,60,"[1366,768]",,,"[""trial_right_box"",""trial_left_box""]",,,,,,,,,,,,kindergarten_classroom5.jpg,space,3.652685,"[0.39453125,-0.40625]","[-0.2877604166666667,-0.31640625]","[1,1]","[0,0]","[0,0]","[2.1299150000012332,3.3129599999991797]","[""trial_right_box"",""trial_left_box""]",0,61,61,59,1,homegarden7.jpg,library_aisle8.jpg,highway4.jpg,grocerystore3.jpg,,
Image_List_4,,,,,,,,,,,,,,,,44584,2020-11-19_17h53.57.799,lingCatScenes,2020.1.3,Win32,60,"[1366,768]",,,"[""trial_left_box"",""trial_right_box"",""trial_slight_right_box""]",,,,,,,,,,,,baggageClaim3.jpg,space,7.93015,"[-0.4010416666666667,-0.4010416666666667,0.3763020833333333,0.21354166666666666]","[-0.2708333333333333,-0.28515625,-0.2838541666666667,-0.3111979166666667]","[1,1,1,1]","[0,0,0,0]","[0,0,0,0]","[2.0780550000017683,2.844840000001568,3.928139999999985,6.894384999999602]","[""trial_left_box"",""trial_right_box"",""trial_slight_right_box""]",0,62,62,7,1,attic2.jpg,banquetHall4.jpg,backstage1.jpg,applestore2.jpg,,
Image_List_4,,,,,,,,,,,,,,,,44584,2020-11-19_17h53.57.799,lingCatScenes,2020.1.3,Win32,60,"[1366,768]",,,"[""trial_ahead_box"",""trial_sharp_right_box"",""trial_slight_right_box"",""trial_slight_left_box"",""trial_right_box""]",,,,,,,,,,,,driveway7.jpg,space,11.55721,"[-0.005208333333333333,-0.005208333333333333,0.5989583333333334,0.17447916666666666,0.18619791666666666,-0.17838541666666666,0.39453125]","[-0.2734375,-0.2981770833333333,-0.2955729166666667,-0.3203125,-0.296875,-0.3177083333333333,-0.3059895833333333]","[1,1,1,1,1,1,1]","[0,0,0,0,0,0,0]","[0,0,0,0,0,0,0]","[2.4120850000000473,3.211695000001896,5.494490000001065,6.694084999999291,7.411039999999161,8.777464999999324,11.226774999999293]","[""trial_ahead_box"",""trial_sharp_right_box"",""trial_slight_right_box"",""trial_slight_left_box"",""trial_right_box""]",0,63,63,37,1,dining_car.jpg,driveway4.jpg,dinosaur4.jpg,citystreet9.jpg,,
Image_List_4,,,,,,,,,,,,,,,,44584,2020-11-19_17h53.57.799,lingCatScenes,2020.1.3,Win32,60,"[1366,768]",,,"[""trial_right_box""]",,,,,,,,,,,,diner11.jpg,space,2.658865,[0.3971354166666667],[-0.3072916666666667],[1],[0],[0],[2.2120549999998502],"[""trial_right_box""]",0,64,64,34,1,deck4.jpg,diningroom5.jpg,courthouse4.jpg,campusquad1.jpg,,
Image_List_4,,,,,,,,,,,,,,,,44584,2020-11-19_17h53.57.799,lingCatScenes,2020.1.3,Win32,60,"[1366,768]",,,"[""trial_slight_left_box"",""trial_slight_right_box""]",,,,,,,,,,,,cemetery5.jpg,space,7.847025,"[-0.23177083333333334,-0.19140625,0.19270833333333334]","[-0.3151041666666667,-0.3020833333333333,-0.3046875]","[1,1,1]","[0,0,0]","[0,0,0]","[2.8781899999994494,3.827579999997397,5.293599999997241]","[""trial_slight_left_box"",""trial_slight_right_box""]",0,65,65,24,1,campsite.jpg,cliff3.jpg,cave6.jpg,boardwalk.jpg,,
Image_List_4,,,,,,,,,,,,,,,,44584,2020-11-19_17h53.57.799,lingCatScenes,2020.1.3,Win32,60,"[1366,768]",,,"[""trial_ahead_box""]",,,,,,,,,,,,courtroom2.jpg,space,1.883065,[-0.0013020833333333333],[-0.3151041666666667],[1],[0],[0],[1.430290000000241],"[""trial_ahead_box""]",0,66,66,31,1,cubicle4.jpg,desertvegetation6.jpg,conference4.jpg,cabin3.jpg,,
Image_List_4,,,,,,,,,,,,,,,,44584,2020-11-19_17h53.57.799,lingCatScenes,2020.1.3,Win32,60,"[1366,768]",,,"[""trial_left_box"",""trial_right_box""]",,,,,,,,,,,,apartmentBuilding4.jpg,space,7.479255,"[-0.21223958333333334,-0.3815104166666667,-0.16536458333333334,-0.20182291666666666,0.35546875,0.4244791666666667]","[-0.3072916666666667,-0.30078125,-0.2864583333333333,-0.2955729166666667,-0.3098958333333333,-0.3098958333333333]","[1,1,1,1,1,1]","[0,0,0,0,0,0]","[0,0,0,0,0,0]","[3.478804999998829,4.178799999997864,4.828655000001277,5.42815999999948,6.478305000000546,7.077969999998459]","[""trial_slight_left_box"",""trial_left_box"",""trial_slight_left_box"",""trial_right_box""]",0,67,67,2,1,alley1.jpg,arcade1.jpg,applestore6.jpg,airportTerminal6.jpg,,
Image_List_4,,,,,,,,,,,,,,,,44584,2020-11-19_17h53.57.799,lingCatScenes,2020.1.3,Win32,60,"[1366,768]",,,"[""trial_slight_right_box""]",,,,,,,,,,,,restaurant8.jpg,space,4.224595,"[0.4296875,0.2109375]","[-0.3059895833333333,-0.3020833333333333]","[1,1]","[0,0]","[0,0]","[1.9448900000026015,2.894834999999148]","[""trial_slight_right_box""]",0,68,68,83,1,readingroom1.jpg,sculpturegarden1.jpg,promenadeDeck6.jpg,readingroom2.jpg,,
Image_List_4,,,,,,,,,,,,,,,,44584,2020-11-19_17h53.57.799,lingCatScenes,2020.1.3,Win32,60,"[1366,768]",,,"[""trial_ahead_box""]",,,,,,,,,,,,winebarrel3.jpg,space,1.81921,[0.022135416666666668],[-0.3020833333333333],[1],[0],[0],[1.4451900000021851],"[""trial_ahead_box""]",0,69,69,97,1,warehouseoutside4.jpg,wineVineyard2.jpg,waitingroom4.jpg,warehouseoutside3.jpg,,
Image_List_4,,,,,,,,,,,,,,,,44584,2020-11-19_17h53.57.799,lingCatScenes,2020.1.3,Win32,60,"[1366,768]",,,"[""trial_right_box""]",,,,,,,,,,,,copyroom2.jpg,space,2.02514,[0.3763020833333333],[-0.3125],[1],[0],[0],[1.7611400000023423],"[""trial_right_box""]",0,70,70,30,1,courthouse1.jpg,desertvegetation3.jpg,clothingstore2.jpg,bus_shelter3.jpg,,
Image_List_4,,,,,,,,,,,,,,,,44584,2020-11-19_17h53.57.799,lingCatScenes,2020.1.3,Win32,60,"[1366,768]",,,"[""trial_left_box""]",,,,,,,,,,,,bar.jpg,space,2.394345,"[-0.4309895833333333,-0.4127604166666667]","[-0.2721354166666667,-0.2916666666666667]","[1,1]","[0,0]","[0,0]","[1.495550000003277,2.0952350000006845]","[""trial_left_box""]",0,71,71,8,1,attic3.jpg,banquetHall6.jpg,balconyIN.jpg,applestore4.jpg,,
Image_List_4,,,,,,,,,,,,,,,,44584,2020-11-19_17h53.57.799,lingCatScenes,2020.1.3,Win32,60,"[1366,768]",,,"[""trial_left_box""]",,,,,,,,,,,,ticket_counter6.jpg,space,2.176905,"[-0.375,-0.39453125]","[-0.296875,-0.296875]","[1,1]","[0,0]","[0,0]","[1.0798350000004575,1.8967950000005658]","[""trial_left_box""]",0,72,72,91,1,shoestore2.jpg,trainStation5.jpg,skatepark5.jpg,sidewalk3.jpg,,
Image_List_4,,,,,,,,,,,,,,,,44584,2020-11-19_17h53.57.799,lingCatScenes,2020.1.3,Win32,60,"[1366,768]",,,"[""trial_left_box"",""trial_sharp_left_box"",""trial_slight_left_box"",""trial_ahead_box"",""trial_slight_right_box"",""trial_right_box"",""trial_sharp_right_box""]",,,,,,,,,,,,sandDunes_desert_outdoor.jpg,space,7.96451,"[-0.38671875,-0.5963541666666666,-0.18098958333333334,0.006510416666666667,0.1875,0.4049479166666667,0.5729166666666666,0.5807291666666666]","[-0.3046875,-0.2825520833333333,-0.2994791666666667,-0.2994791666666667,-0.296875,-0.28515625,-0.2786458333333333,-0.2786458333333333]","[1,1,1,1,1,1,1,1]","[0,0,0,0,0,0,0,0]","[0,0,0,0,0,0,0,0]","[1.727630000001227,2.4611599999989267,3.544265000000564,4.660700000000361,5.494019999998272,6.193484999999782,6.910065000000145,7.593420000000947]","[""trial_left_box"",""trial_sharp_left_box"",""trial_slight_left_box"",""trial_ahead_box"",""trial_slight_right_box"",""trial_right_box"",""trial_sharp_right_box""]",0,73,73,84,1,readingroom5.jpg,sidewalk2.jpg,restaurant13.jpg,rooftop2.jpg,,
Image_List_4,,,,,,,,,,,,,,,,44584,2020-11-19_17h53.57.799,lingCatScenes,2020.1.3,Win32,60,"[1366,768]",,,"[""trial_right_box""]",,,,,,,,,,,,liquorstore.jpg,space,5.324005,[0.41796875],[-0.2981770833333333],[1],[0],[0],[3.1615250000031665],"[""trial_right_box""]",0,74,74,66,1,library_aisle10.jpg,office3.jpg,laundromat3.jpg,horsebarn9.jpg,,
Image_List_4,,,,,,,,,,,,,,,,44584,2020-11-19_17h53.57.799,lingCatScenes,2020.1.3,Win32,60,"[1366,768]",,,"[""trial_slight_right_box"",""trial_left_box"",""trial_ahead_box""]",,,,,,,,,,,,kindergarten_classroom6.jpg,space,8.43236,"[0.17317708333333334,0.19921875,-0.3723958333333333,-0.4075520833333333,0.0026041666666666665]","[-0.3033854166666667,-0.3072916666666667,-0.3307291666666667,-0.30078125,-0.2903645833333333]","[1,1,1,1,1]","[0,0,0,0,0]","[0,0,0,0,0]","[2.5620449999987613,3.4792400000005728,4.9946449999988545,5.695019999999204,8.144124999998894]","[""trial_slight_right_box"",""trial_left_box"",""trial_ahead_box""]",0,75,75,60,1,hometheater2.jpg,lightingstore3.jpg,homegarage.jpg,hallway.jpg,,
Image_List_4,,,,,,,,,,,,,,,,44584,2020-11-19_17h53.57.799,lingCatScenes,2020.1.3,Win32,60,"[1366,768]",,,"[""trial_right_box"",""trial_left_box"",""trial_ahead_box""]",,,,,,,,,,,,nursery4.jpg,space,8.99189,"[0.4114583333333333,-0.3684895833333333,-0.4049479166666667,0.0013020833333333333]","[-0.30859375,-0.2981770833333333,-0.296875,-0.3177083333333333]","[1,1,1,1]","[0,0,0,0]","[0,0,0,0]","[2.145515000000046,5.461380000000531,6.444480000001818,7.577755000001957]","[""trial_right_box"",""trial_left_box"",""trial_ahead_box""]",0,76,76,73,1,musicStore3.jpg,photographer_studio2.jpg,nursery.jpg,library_aisle9.jpg,,
Image_List_4,,,,,,,,,,,,,,,,44584,2020-11-19_17h53.57.799,lingCatScenes,2020.1.3,Win32,60,"[1366,768]",,,"[""trial_right_box"",""trial_left_box"",""trial_ahead_box""]",,,,,,,,,,,,stripmall3.jpg,space,6.37656,"[0.4114583333333333,-0.4140625,-0.015625]","[-0.3151041666666667,-0.3033854166666667,-0.3151041666666667]","[1,1,1]","[0,0,0]","[0,0,0]","[2.0460650000022724,4.562320000000909,5.945309999999154]","[""trial_right_box"",""trial_left_box"",""trial_ahead_box""]",0,77,77,90,1,savanna5.jpg,trainStation1.jpg,sidewalk1.jpg,shoestore4.jpg,,
Image_List_4,,,,,,,,,,,,,,,,44584,2020-11-19_17h53.57.799,lingCatScenes,2020.1.3,Win32,60,"[1366,768]",,,"[""trial_right_box"",""trial_left_box""]",,,,,,,,,,,,lab5.jpg,space,3.442495,"[0.3671875,0.3802083333333333,-0.4153645833333333]","[-0.296875,-0.2942708333333333,-0.2994791666666667]","[1,1,1]","[0,0,0]","[0,0,0]","[1.6449800000010555,2.2449049999995623,3.078095000000758]","[""trial_right_box"",""trial_left_box""]",0,78,78,64,1,igloo2.jpg,newsstand5.jpg,jewelrystore8.jpg,homegarage2.jpg,,
Image_List_4,,,,,,,,,,,,,,,,44584,2020-11-19_17h53.57.799,lingCatScenes,2020.1.3,Win32,60,"[1366,768]",,,"[""trial_ahead_box"",""trial_slight_right_box"",""trial_left_box""]",,,,,,,,,,,,staircase7.jpg,space,5.644635,"[0.0078125,0.21354166666666666,-0.4036458333333333]","[-0.30859375,-0.3203125,-0.3059895833333333]","[1,1,1]","[0,0,0]","[0,0,0]","[2.0113600000004226,3.9111599999996542,5.294125000000349]","[""trial_ahead_box"",""trial_slight_right_box"",""trial_left_box""]",0,79,79,89,1,ruralroad7.jpg,track5.jpg,ShowJumping7.jpg,sculpturegarden3.jpg,,
Image_List_4,,,,,,,,,,,,,,,,44584,2020-11-19_17h53.57.799,lingCatScenes,2020.1.3,Win32,60,"[1366,768]",,,"[""trial_right_box""]",,,,,,,,,,,,dentist4.jpg,space,3.293865,"[0.4088541666666667,0.4075520833333333]","[-0.3255208333333333,-0.3125]","[1,1]","[0,0]","[0,0]","[1.9278750000011087,2.61153499999989]","[""trial_right_box""]",0,80,80,32,1,dancestudio6.jpg,diner12.jpg,constructionSite2.jpg,cabin4.jpg,,
Image_List_4,,,,,,,,,,,,,,,,44584,2020-11-19_17h53.57.799,lingCatScenes,2020.1.3,Win32,60,"[1366,768]",,,"[""trial_ahead_box"",""trial_left_box"",""trial_right_box""]",,,,,,,,,,,,cemetery3.jpg,space,5.44777,"[-0.03125,-0.006510416666666667,-0.4036458333333333,-0.37890625,0.3971354166666667]","[-0.31640625,-0.296875,-0.3372395833333333,-0.3072916666666667,-0.31640625]","[1,1,1,1,1]","[0,0,0,0,0]","[0,0,0,0,0]","[1.2787199999984296,2.0453449999985196,2.861740000000168,3.5784699999967415,4.761419999998907]","[""trial_ahead_box"",""trial_left_box"",""trial_right_box""]",0,81,81,23,1,bus_shelter.jpg,church8.jpg,carmechanic4.jpeg,bleachers6.jpg,,
Image_List_4,,,,,,,,,,,,,,,,44584,2020-11-19_17h53.57.799,lingCatScenes,2020.1.3,Win32,60,"[1366,768]",,,"[""trial_slight_right_box"",""trial_left_box"",""trial_right_box""]",,,,,,,,,,,,tvstudio2.jpg,space,6.79133,"[0.16927083333333334,0.18229166666666666,-0.4049479166666667,0.390625]","[-0.3098958333333333,-0.3098958333333333,-0.3020833333333333,-0.28125]","[1,1,1,1]","[0,0,0,0]","[0,0,0,0]","[1.8615399999980582,2.7785399999993388,5.477745000000141,6.460864999997284]","[""trial_slight_right_box"",""trial_left_box"",""trial_right_box""]",0,82,82,92,1,staircase.jpg,volleyballcourt.jpg,skatepark7.jpg,soccerfield2.jpg,,
Image_List_4,,,,,,,,,,,,,,,,44584,2020-11-19_17h53.57.799,lingCatScenes,2020.1.3,Win32,60,"[1366,768]",,,"[""trial_slight_left_box""]",,,,,,,,,,,,labClass7.jpg,space,3.417245,[-0.20833333333333334],[-0.3203125],[1],[0],[0],[1.828639999999723],"[""trial_slight_left_box""]",0,83,83,65,1,igloo5.jpg,newsstand7.jpg,laundromat2.jpeg,homeoffice8.jpg,,
Image_List_4,,,,,,,,,,,,,,,,44584,2020-11-19_17h53.57.799,lingCatScenes,2020.1.3,Win32,60,"[1366,768]",,,"[""trial_left_box"",""trial_slight_right_box"",""trial_right_box""]",,,,,,,,,,,,museum4.jpg,space,6.790555,"[-0.4036458333333333,-0.4036458333333333,0.17317708333333334,0.20703125,0.4075520833333333,0.40625]","[-0.265625,-0.2786458333333333,-0.3111979166666667,-0.3020833333333333,-0.2734375,-0.2916666666666667]","[1,1,1,1,1,1]","[0,0,0,0,0,0]","[0,0,0,0,0,0]","[1.5112699999990582,2.21082000000024,3.4440799999974843,4.2934949999980745,5.343274999999267,6.226724999996804]","[""trial_left_box"",""trial_slight_right_box"",""trial_right_box""]",0,84,84,72,1,museum5.jpg,pharmacy4.jpg,musicStore1.jpg,kindergarten_classroom.jpg,,
Image_List_4,,,,,,,,,,,,,,,,44584,2020-11-19_17h53.57.799,lingCatScenes,2020.1.3,Win32,60,"[1366,768]",,,"[""trial_right_box""]",,,,,,,,,,,,closet.jpg,space,4.229565,[0.40625],[-0.2916666666666667],[1],[0],[0],[1.3272199999992154],"[""trial_right_box""]",0,85,85,27,1,castle3.jpg,courtroom3.jpg,churchInside4.jpg,brewery2.jpg,,
Image_List_4,,,,,,,,,,,,,,,,44584,2020-11-19_17h53.57.799,lingCatScenes,2020.1.3,Win32,60,"[1366,768]",,,"[""trial_slight_right_box""]",,,,,,,,,,,,appleorchard3.jpg,space,2.54326,[0.20833333333333334],[-0.30078125],[1],[0],[0],[1.7454050000014831],"[""trial_slight_right_box""]",0,86,86,4,1,artStudio1.jpg,baggageClaim2.jpg,auto_showroom1.jpg,alley4.jpg,,
Image_List_4,,,,,,,,,,,,,,,,44584,2020-11-19_17h53.57.799,lingCatScenes,2020.1.3,Win32,60,"[1366,768]",,,"[""trial_slight_right_box"",""trial_right_box""]",,,,,,,,,,,,clothingstore5.jpg,space,3.90917,"[0.20833333333333334,0.4140625]","[-0.30078125,-0.2864583333333333]","[1,1]","[0,0]","[0,0]","[1.4467499999992697,2.4963449999995646]","[""trial_slight_right_box"",""trial_right_box""]",0,87,87,28,1,churchInside1.jpg,dancestudio5.jpg,citystreet10.jpg,bridalboutique2.jpg,,
Image_List_4,,,,,,,,,,,,,,,,44584,2020-11-19_17h53.57.799,lingCatScenes,2020.1.3,Win32,60,"[1366,768]",,,"[""trial_left_box"",""trial_slight_left_box"",""trial_slight_right_box""]",,,,,,,,,,,,cave4.jpg,space,9.092225,"[-0.4244791666666667,-0.1875,0.20052083333333334,0.5065104166666666]","[-0.3033854166666667,-0.27734375,-0.2864583333333333,-0.1171875]","[1,1,1,1]","[0,0,0,0]","[0,0,0,0]","[4.378949999998213,5.1623650000000225,6.328829999998334,7.994950000000131]","[""trial_left_box"",""trial_slight_left_box"",""trial_slight_right_box""]",0,88,88,20,1,boardwalk6.jpg,cave.jpg,campsite3.jpg,basketballcourt7.jpg,,
Image_List_4,,,,,,,,,,,,,,,,44584,2020-11-19_17h53.57.799,lingCatScenes,2020.1.3,Win32,60,"[1366,768]",,,"[""trial_slight_left_box"",""trial_left_box"",""trial_right_box""]",,,,,,,,,,,,hut5.jpg,space,6.042485,"[-0.19401041666666666,-0.4088541666666667,0.3828125]","[-0.2890625,-0.30078125,-0.3033854166666667]","[1,1,1]","[0,0,0]","[0,0,0]","[2.913335000001098,4.594815000000381,5.694405000002007]","[""trial_slight_left_box"",""trial_left_box"",""trial_right_box""]",0,89,89,57,1,hayfield5.jpg,jail1.jpg,hallway4.jpg,gazebo.jpg,,
Image_List_4,,,,,,,,,,,,,,,,44584,2020-11-19_17h53.57.799,lingCatScenes,2020.1.3,Win32,60,"[1366,768]",,,"[""trial_slight_left_box""]",,,,,,,,,,,,basement5.jpg,space,5.134185,"[-0.23828125,-0.18229166666666666]","[-0.3111979166666667,-0.2916666666666667]","[1,1]","[0,0]","[0,0]","[3.693244999998683,4.393465000001015]","[""trial_slight_left_box""]",0,90,90,9,1,auto_showroom3.jpg,bar2.jpg,ballroom2.jpg,arcade2.jpg,,
Image_List_4,,,,,,,,,,,,,,,,44584,2020-11-19_17h53.57.799,lingCatScenes,2020.1.3,Win32,60,"[1366,768]",,,"[""trial_slight_left_box"",""trial_ahead_box""]",,,,,,,,,,,,boardwalk4.jpg,space,3.99256,"[-0.21354166666666666,0.009114583333333334]","[-0.3138020833333333,-0.2786458333333333]","[1,1]","[0,0]","[0,0]","[1.577499999999418,2.710755000000063]","[""trial_slight_left_box"",""trial_ahead_box""]",0,91,91,13,1,balconyIN2.jpg,bowlingalley3.jpg,beach2.jpg,backyard6.jpg,,
Image_List_4,,,,,,,,,,,,,,,,44584,2020-11-19_17h53.57.799,lingCatScenes,2020.1.3,Win32,60,"[1366,768]",,,"[""trial_right_box""]",,,,,,,,,,,,lockerroom2.jpg,space,3.195255,[0.39453125],[-0.2942708333333333],[1],[0],[0],[1.644495000000461],"[""trial_right_box""]",0,92,92,68,1,liquorstore7.jpg,parkinglot.jpg,lightingstore4.jpg,hospitalroom3.jpg,,
Image_List_4,,,,,,,,,,,,,,,,44584,2020-11-19_17h53.57.799,lingCatScenes,2020.1.3,Win32,60,"[1366,768]",,,"[""trial_slight_right_box"",""trial_slight_left_box"",""trial_right_box"",""trial_left_box""]",,,,,,,,,,,,pavilion3.jpg,space,7.040995,"[0.15885416666666666,0.18880208333333334,-0.18880208333333334,0.4114583333333333,-0.3828125]","[-0.296875,-0.296875,-0.29296875,-0.3033854166666667,-0.2864583333333333]","[1,1,1,1,1]","[0,0,0,0,0]","[0,0,0,0,0]","[2.4275199999974575,3.1111349999991944,4.043904999998631,5.427690000000439,6.6766999999999825]","[""trial_slight_right_box"",""trial_slight_left_box"",""trial_right_box"",""trial_left_box""]",0,93,93,78,1,parkinglot3.jpg,poolhall1.jpg,pier5.jpg,observatory1.jpg,,
Image_List_4,,,,,,,,,,,,,,,,44584,2020-11-19_17h53.57.799,lingCatScenes,2020.1.3,Win32,60,"[1366,768]",,,"[""trial_left_box"",""trial_right_box""]",,,,,,,,,,,,castle2.jpg,space,4.42037,"[-0.3723958333333333,-0.4153645833333333,0.3580729166666667,0.40625]","[-0.3046875,-0.2942708333333333,-0.2916666666666667,-0.2916666666666667]","[1,1,1,1]","[0,0,0,0]","[0,0,0,0]","[1.4615699999994831,2.1615099999980885,3.3278799999970943,3.994670000000042]","[""trial_left_box"",""trial_right_box""]",0,94,94,18,1,bleachers5.jpg,casino1.jpg,brewery4.jpg,basement6.jpg,,
Image_List_4,,,,,,,,,,,,,,,,44584,2020-11-19_17h53.57.799,lingCatScenes,2020.1.3,Win32,60,"[1366,768]",,,"[""trial_left_box""]",,,,,,,,,,,,botanicalGarden5.jpg,space,3.456715,[-0.4205729166666667],[-0.3216145833333333],[1],[0],[0],[2.9283900000009453],"[""trial_left_box""]",0,95,95,14,1,ballroom1.jpg,breakroom5.jpg,bistrooutdoor5.jpg,ballroom3.jpg,,
Image_List_4,,,,,,,,,,,,,,,,44584,2020-11-19_17h53.57.799,lingCatScenes,2020.1.3,Win32,60,"[1366,768]",,,[],,,,,,,,,,,,foodcourt6.jpg,space,5.697355,[0.07942708333333333],[-0.18098958333333334],[1],[0],[0],[3.2285550000013927],[],0,96,96,44,1,firestation2.jpg,frontFoyer4.jpg,elevatorOutside1.jpg,dock2.jpg,,
Image_List_4,,,,,,,,,,,,,,,,44584,2020-11-19_17h53.57.799,lingCatScenes,2020.1.3,Win32,60,"[1366,768]",,,"[""trial_right_box"",""trial_slight_right_box"",""trial_slight_left_box"",""trial_left_box""]",,,,,,,,,,,,airportTerminal3.jpg,space,7.748695,"[0.4166666666666667,0.19921875,-0.19270833333333334,-0.3359375,-0.37890625]","[-0.3033854166666667,-0.2877604166666667,-0.30859375,-0.2877604166666667,-0.296875]","[1,1,1,1,1]","[0,0,0,0,0]","[0,0,0,0,0]","[1.3301950000020497,3.296255000000997,5.262805000002004,6.479204999999524,7.161995000002207]","[""trial_right_box"",""trial_slight_right_box"",""trial_slight_left_box"",""trial_left_box""]",0,97,97,1,1,airportTerminal4.jpg,apartmentBuilding1.jpg,applestore1.jpg,airportTerminal2.jpg,,
Image_List_4,,,,,,,,,,,,,,,,44584,2020-11-19_17h53.57.799,lingCatScenes,2020.1.3,Win32,60,"[1366,768]",,,"[""trial_left_box"",""trial_right_box""]",,,,,,,,,,,,fountain4.jpg,space,3.326025,"[-0.4049479166666667,0.3776041666666667]","[-0.296875,-0.2942708333333333]","[1,1]","[0,0]","[0,0]","[1.8946350000004486,2.960969999999861]","[""trial_left_box"",""trial_right_box""]",0,98,98,46,1,flowershop.jpg,frontLawn5.jpg,farmersmarket4.jpg,dormroom6.jpg,,
Image_List_4,,,,,,,,,,,,,,,,44584,2020-11-19_17h53.57.799,lingCatScenes,2020.1.3,Win32,60,"[1366,768]",,,"[""trial_right_box"",""trial_left_box""]",,,,,,,,,,,,cabinIndoors.jpg,space,3.182095,"[0.3776041666666667,-0.3893229166666667]","[-0.2942708333333333,-0.2786458333333333]","[1,1]","[0,0]","[0,0]","[1.5289599999997563,2.894989999997165]","[""trial_right_box"",""trial_left_box""]",0,99,99,15,1,bambooforest4.jpg,cafeteria5.jpg,bleachers8.jpg,bar8.jpg,,
Image_List_4,,,,,,,,,,,,,,,,44584,2020-11-19_17h53.57.799,lingCatScenes,2020.1.3,Win32,60,,,,,,,,,,,,,,,,,,,,,,,,,,,,,,,,,,,space,2.90226
