image_list,key_resp_intructions.keys,key_resp_intructions.rt,key_resp_intructions_3.keys,key_resp_intructions_3.rt,PracticeComplete_2.keys,PracticeComplete_2.rt,PracticeComplete_3.keys,PracticeComplete_3.rt,demo_trials.thisRepN,demo_trials.thisTrialN,demo_trials.thisN,demo_trials.thisIndex,demo_trials.ran,demo_images,path_images,participant,date,expName,psychopyVersion,OS,frameRate,windowSize,practice_complete.keys,practice_complete.rt,boxes_checked,PracticeComplete.keys,PracticeComplete.rt,practice_trials.thisRepN,practice_trials.thisTrialN,practice_trials.thisN,practice_trials.thisIndex,practice_trials.ran,practice_images,feedback_images,key_resp_intructions_2.keys,key_resp_intructions_2.rt,Image_List_2,trial_complete.keys,trial_complete.rt,trial_mouse.x,trial_mouse.y,trial_mouse.leftButton,trial_mouse.midButton,trial_mouse.rightButton,trial_mouse.time,trial_mouse.clicked_name,trials.thisRepN,trials.thisTrialN,trials.thisN,trials.thisIndex,trials.ran,Image_List_1,Image_List_3,Image_List_4,Image_List_5,key_resp.keys,key_resp.rt
Image_List_2,space,26.381735,space,5.53823,space,13.54726,space,8.4983,0,0,0,5,1,right.jpg,right_path.jpg,44585,2020-11-25_14h45.14.168,lingCatScenes,2020.1.3,Win32,60,,,,,,,,,,,,,,,,,,,,,,,,,,,,,,,,,,,,
Image_List_2,,,,,space,5.50383,space,6.838135,0,1,1,4,1,left.jpg,left_path.jpg,44585,2020-11-25_14h45.14.168,lingCatScenes,2020.1.3,Win32,60,,,,,,,,,,,,,,,,,,,,,,,,,,,,,,,,,,,,
Image_List_2,,,,,space,3.94028,space,0.937625,0,2,2,0,1,ahead.jpg,ahead_path.jpg,44585,2020-11-25_14h45.14.168,lingCatScenes,2020.1.3,Win32,60,,,,,,,,,,,,,,,,,,,,,,,,,,,,,,,,,,,,
Image_List_2,,,,,space,6.92488,space,4.731925,0,3,3,3,1,ahead_right_left.jpg,ahead_right_left_path.jpg,44585,2020-11-25_14h45.14.168,lingCatScenes,2020.1.3,Win32,60,,,,,,,,,,,,,,,,,,,,,,,,,,,,,,,,,,,,
Image_List_2,,,,,space,3.33057,space,4.570285,0,4,4,6,1,right_left.jpg,right_left_path.jpg,44585,2020-11-25_14h45.14.168,lingCatScenes,2020.1.3,Win32,60,,,,,,,,,,,,,,,,,,,,,,,,,,,,,,,,,,,,
Image_List_2,,,,,space,13.18057,space,4.22369,0,5,5,2,1,ahead_right.jpg,ahead_right_path.jpg,44585,2020-11-25_14h45.14.168,lingCatScenes,2020.1.3,Win32,60,,,,,,,,,,,,,,,,,,,,,,,,,,,,,,,,,,,,
Image_List_2,,,,,space,11.60858,space,1.379325,0,6,6,1,1,ahead_left.jpg,ahead_left_path.jpg,44585,2020-11-25_14h45.14.168,lingCatScenes,2020.1.3,Win32,60,,,,,,,,,,,,,,,,,,,,,,,,,,,,,,,,,,,,
Image_List_2,,,,,,,,,,,,,,,,44585,2020-11-25_14h45.14.168,lingCatScenes,2020.1.3,Win32,60,"[1920,1080]",space,2.05506,[],space,6.12147,0,0,0,1,1,ahead_left_2.jpg,ahead_left_2_path.jpg,,,,,,,,,,,,,,,,,,,,,,,
Image_List_2,,,,,,,,,,,,,,,,44585,2020-11-25_14h45.14.168,lingCatScenes,2020.1.3,Win32,60,"[1920,1080]",space,8.59954,"[""left_box""]",space,5.720685,0,1,1,4,1,left_2.jpg,left_2_path.jpg,,,,,,,,,,,,,,,,,,,,,,,
Image_List_2,,,,,,,,,,,,,,,,44585,2020-11-25_14h45.14.168,lingCatScenes,2020.1.3,Win32,60,"[1920,1080]",space,4.776545,"[""sharp_right_box""]",space,0.91356,0,2,2,5,1,right_2.jpg,right_2_path.jpg,,,,,,,,,,,,,,,,,,,,,,,
Image_List_2,,,,,,,,,,,,,,,,44585,2020-11-25_14h45.14.168,lingCatScenes,2020.1.3,Win32,60,"[1920,1080]",space,3.17487,"[""ahead_box""]",space,0.717685,0,3,3,0,1,ahead_2.jpg,ahead_2_path.jpg,,,,,,,,,,,,,,,,,,,,,,,
Image_List_2,,,,,,,,,,,,,,,,44585,2020-11-25_14h45.14.168,lingCatScenes,2020.1.3,Win32,60,"[1920,1080]",space,14.422695,"[""ahead_box"",""slight_left_box"",""left_box"",""sharp_left_box"",""slight_right_box""]",space,3.86307,0,4,4,3,1,ahead_right_left_2.jpg,ahead_right_left_2_path.jpg,,,,,,,,,,,,,,,,,,,,,,,
Image_List_2,,,,,,,,,,,,,,,,44585,2020-11-25_14h45.14.168,lingCatScenes,2020.1.3,Win32,60,"[1920,1080]",space,12.34032,"[""ahead_box"",""sharp_right_box""]",space,2.041235,0,5,5,2,1,ahead_right_2.jpg,ahead_right_2_path.jpg,,,,,,,,,,,,,,,,,,,,,,,
Image_List_2,,,,,,,,,,,,,,,,44585,2020-11-25_14h45.14.168,lingCatScenes,2020.1.3,Win32,60,"[1920,1080]",space,9.60489,"[""right_box"",""left_box""]",space,2.34341,0,6,6,6,1,right_left_2.jpg,right_left_2_path.jpg,,,,,,,,,,,,,,,,,,,,,,,
Image_List_2,,,,,,,,,,,,,,,,44585,2020-11-25_14h45.14.168,lingCatScenes,2020.1.3,Win32,60,"[1920,1080]",,,"[""trial_slight_right_box"",""trial_slight_left_box""]",,,,,,,,,,space,5.07686,playroom4.jpg,space,11.588535,"[0.2,-0.18888888888888888,0.002777777777777778,0.002777777777777778]","[-0.3037037037037037,-0.2972222222222222,-0.2935185185185185,-0.2935185185185185]","[1,1,1,1]","[0,0,0,0]","[0,0,0,0]","[5.195669999986421,7.445709999999963,9.67925499996636,10.578954999975394]","[""trial_slight_right_box"",""trial_slight_left_box"",""trial_ahead_box"",""trial_ahead_box""]",0,0,0,76,1,parkinggarage.jpg,parkinggarage3.jpg,park2.jpg,lookout4.jpg,,
Image_List_2,,,,,,,,,,,,,,,,44585,2020-11-25_14h45.14.168,lingCatScenes,2020.1.3,Win32,60,"[1920,1080]",,,"[""trial_sharp_right_box"",""trial_sharp_left_box""]",,,,,,,,,,,,bar2.jpg,space,5.904615,"[0.6175925925925926,-0.5972222222222222]","[-0.2972222222222222,-0.29444444444444445]","[1,1]","[0,0]","[0,0]","[2.8770900000235997,3.9437350000371225]","[""trial_sharp_right_box"",""trial_sharp_left_box""]",0,1,1,9,1,auto_showroom3.jpg,ballroom2.jpg,basement5.jpg,arcade2.jpg,,
Image_List_2,,,,,,,,,,,,,,,,44585,2020-11-25_14h45.14.168,lingCatScenes,2020.1.3,Win32,60,"[1920,1080]",,,"[""trial_slight_left_box""]",,,,,,,,,,,,diner12.jpg,space,8.64948,[-0.20185185185185187],[-0.31666666666666665],[1],[0],[0],[2.609534999995958],"[""trial_slight_left_box""]",0,2,2,32,1,dancestudio6.jpg,constructionSite2.jpg,dentist4.jpg,cabin4.jpg,,
Image_List_2,,,,,,,,,,,,,,,,44585,2020-11-25_14h45.14.168,lingCatScenes,2020.1.3,Win32,60,"[1920,1080]",,,"[""trial_ahead_box"",""trial_slight_right_box"",""trial_right_box"",""trial_sharp_right_box"",""trial_slight_left_box"",""trial_left_box"",""trial_sharp_left_box""]",,,,,,,,,,,,stripmall.jpg,space,6.67542,"[0.005555555555555556,0.21296296296296297,0.38425925925925924,0.6046296296296296,-0.19537037037037036,-0.3962962962962963,-0.6]","[-0.31666666666666665,-0.28425925925925927,-0.3037037037037037,-0.30092592592592593,-0.2814814814814815,-0.30092592592592593,-0.29444444444444445]","[1,1,1,1,1,1,1]","[0,0,0,0,0,0,0]","[0,0,0,0,0,0,0]","[2.375075000047218,2.8416150000412017,3.307935000048019,3.6748249999945983,4.45828000002075,5.108635000011418,5.925060000037774]","[""trial_ahead_box"",""trial_slight_right_box"",""trial_right_box"",""trial_sharp_right_box"",""trial_slight_left_box"",""trial_left_box"",""trial_sharp_left_box""]",0,3,3,86,1,restaurant14.jpg,ruralroad3.jpg,sandDunes_desert_outdoor8.jpg,rooftop4.jpg,,
Image_List_2,,,,,,,,,,,,,,,,44585,2020-11-25_14h45.14.168,lingCatScenes,2020.1.3,Win32,60,"[1920,1080]",,,"[""trial_slight_right_box"",""trial_sharp_left_box""]",,,,,,,,,,,,waitingroom3.jpg,space,6.26582,"[0.2,-0.5972222222222222]","[-0.3101851851851852,-0.31666666666666665]","[1,1]","[0,0]","[0,0]","[2.3130349999992177,4.0297849999624304]","[""trial_slight_right_box"",""trial_sharp_left_box""]",0,4,4,94,1,treehouse.jpg,staircase6.jpg,weightroom.jpg,trainStation3.jpg,,
Image_List_2,,,,,,,,,,,,,,,,44585,2020-11-25_14h45.14.168,lingCatScenes,2020.1.3,Win32,60,"[1920,1080]",,,"[""trial_slight_left_box"",""trial_ahead_box"",""trial_slight_right_box"",""trial_right_box"",""trial_sharp_right_box""]",,,,,,,,,,,,dancestudio5.jpg,space,9.155345,"[-0.1824074074074074,0.021296296296296296,0.17685185185185184,0.37777777777777777,0.6083333333333333]","[-0.3037037037037037,-0.32037037037037036,-0.29444444444444445,-0.30648148148148147,-0.287962962962963]","[1,1,1,1,1]","[0,0,0,0,0]","[0,0,0,0,0]","[6.709745000000112,7.093685000028927,7.443300000042655,7.8433200000436045,8.226655000005849]","[""trial_slight_left_box"",""trial_ahead_box"",""trial_slight_right_box"",""trial_right_box"",""trial_sharp_right_box""]",0,5,5,28,1,churchInside1.jpg,citystreet10.jpg,clothingstore5.jpg,bridalboutique2.jpg,,
Image_List_2,,,,,,,,,,,,,,,,44585,2020-11-25_14h45.14.168,lingCatScenes,2020.1.3,Win32,60,"[1920,1080]",,,[],,,,,,,,,,,,bambooforest.jpg,space,12.56579,"[0.002777777777777778,0.20925925925925926,0.4203703703703704,0.6111111111111112,-0.21203703703703702,-0.37037037037037035,-0.4222222222222222,-0.4222222222222222,-0.21481481481481482,-0.013888888888888888,0.17407407407407408,0.2,0.3907407407407407,0.5851851851851851]","[-0.3,-0.30092592592592593,-0.30092592592592593,-0.287962962962963,-0.2935185185185185,-0.2777777777777778,-0.2777777777777778,-0.2777777777777778,-0.3037037037037037,-0.3074074074074074,-0.29074074074074074,-0.30648148148148147,-0.287962962962963,-0.2972222222222222]","[1,1,1,1,1,1,1,1,1,1,1,1,1,1]","[0,0,0,0,0,0,0,0,0,0,0,0,0,0]","[0,0,0,0,0,0,0,0,0,0,0,0,0,0]","[2.9302649999735877,3.5137099999701604,3.896710000000894,4.179854999994859,5.0137249999679625,5.597215000016149,6.347134999989066,7.397349999984726,8.447285000002012,8.963980000000447,9.46404499997152,10.197394999966491,10.747374999977183,11.313614999991842]","[""trial_ahead_box"",""trial_slight_right_box"",""trial_right_box"",""trial_sharp_right_box"",""trial_slight_left_box"",""trial_left_box"",""trial_left_box"",""trial_slight_left_box"",""trial_ahead_box"",""trial_slight_right_box"",""trial_right_box"",""trial_sharp_right_box""]",0,6,6,5,1,artStudio3.jpg,auto_showroom4.jpg,attic4.jpg,amusement3.jpg,,
Image_List_2,,,,,,,,,,,,,,,,44585,2020-11-25_14h45.14.168,lingCatScenes,2020.1.3,Win32,60,"[1920,1080]",,,"[""trial_slight_right_box""]",,,,,,,,,,,,racecarcourse2.jpg,space,12.83538,[0.20925925925925926],[-0.29074074074074074],[1],[0],[0],[11.175035000022035],"[""trial_slight_right_box""]",0,7,7,80,1,pavilion2.jpg,porch.jpg,poolhall5.jpg,parkinggarage4.jpg,,
Image_List_2,,,,,,,,,,,,,,,,44585,2020-11-25_14h45.14.168,lingCatScenes,2020.1.3,Win32,60,"[1920,1080]",,,"[""trial_ahead_box""]",,,,,,,,,,,,dock3.jpg,space,3.26608,[0.012037037037037037],[-0.29074074074074074],[1],[0],[0],[2.915889999945648],"[""trial_ahead_box""]",0,8,8,35,1,deck5.jpg,cubicle7.jpg,dining_car6.jpg,carmechanic2.jpg,,
Image_List_2,,,,,,,,,,,,,,,,44585,2020-11-25_14h45.14.168,lingCatScenes,2020.1.3,Win32,60,"[1920,1080]",,,"[""trial_ahead_box"",""trial_sharp_left_box"",""trial_sharp_right_box""]",,,,,,,,,,,,pharmacy4.jpg,space,5.321075,"[-0.007407407407407408,-0.5907407407407408,0.612037037037037]","[-0.3101851851851852,-0.3037037037037037,-0.29444444444444445]","[1,1,1]","[0,0,0]","[0,0,0]","[1.6093849999597296,3.809580000001006,4.809564999944996]","[""trial_ahead_box"",""trial_sharp_left_box"",""trial_sharp_right_box""]",0,9,9,72,1,museum5.jpg,musicStore1.jpg,museum4.jpg,kindergarten_classroom.jpg,,
Image_List_2,,,,,,,,,,,,,,,,44585,2020-11-25_14h45.14.168,lingCatScenes,2020.1.3,Win32,60,"[1920,1080]",,,"[""trial_ahead_box"",""trial_sharp_left_box""]",,,,,,,,,,,,driveway4.jpg,space,4.579445,"[0.001851851851851852,-0.5935185185185186]","[-0.29444444444444445,-0.3138888888888889]","[1,1]","[0,0]","[0,0]","[1.6627149999840185,4.1961499999742955]","[""trial_ahead_box"",""trial_sharp_left_box""]",0,10,10,37,1,dining_car.jpg,dinosaur4.jpg,driveway7.jpg,citystreet9.jpg,,
Image_List_2,,,,,,,,,,,,,,,,44585,2020-11-25_14h45.14.168,lingCatScenes,2020.1.3,Win32,60,"[1920,1080]",,,"[""trial_ahead_box"",""trial_slight_right_box"",""trial_right_box"",""trial_sharp_right_box"",""trial_slight_left_box"",""trial_left_box"",""trial_sharp_left_box""]",,,,,,,,,,,,parkinglot.jpg,space,10.613495,"[-0.011111111111111112,0.18981481481481483,0.3685185185185185,0.3907407407407407,0.6083333333333333,-0.19166666666666668,-0.3990740740740741,-0.5842592592592593]","[-0.30648148148148147,-0.30092592592592593,-0.29444444444444445,-0.29444444444444445,-0.287962962962963,-0.2814814814814815,-0.28425925925925927,-0.29074074074074074]","[1,1,1,1,1,1,1,1]","[0,0,0,0,0,0,0,0]","[0,0,0,0,0,0,0,0]","[5.70962999999756,6.792604999965988,7.2760249999701045,7.80943500000285,8.526420000009239,9.309469999978319,9.693220000015572,10.092889999970794]","[""trial_ahead_box"",""trial_slight_right_box"",""trial_right_box"",""trial_sharp_right_box"",""trial_slight_left_box"",""trial_left_box"",""trial_sharp_left_box""]",0,11,11,68,1,liquorstore7.jpg,lightingstore4.jpg,lockerroom2.jpg,hospitalroom3.jpg,,
Image_List_2,,,,,,,,,,,,,,,,44585,2020-11-25_14h45.14.168,lingCatScenes,2020.1.3,Win32,60,"[1920,1080]",,,"[""trial_slight_left_box"",""trial_left_box""]",,,,,,,,,,,,jail1.jpg,space,13.570215,"[-0.19537037037037036,-0.4027777777777778,-0.004629629629629629,-0.013888888888888888,0.5138888888888888]","[-0.32037037037037036,-0.2972222222222222,-0.3037037037037037,-0.2935185185185185,-0.09351851851851851]","[1,1,1,1,1]","[0,0,0,0,0]","[0,0,0,0,0]","[2.9774600000237115,6.193850000039674,7.694485000043642,10.294585000025108,11.06105000001844]","[""trial_slight_left_box"",""trial_left_box"",""trial_ahead_box"",""trial_ahead_box""]",0,12,12,57,1,hayfield5.jpg,hallway4.jpg,hut5.jpg,gazebo.jpg,,
Image_List_2,,,,,,,,,,,,,,,,44585,2020-11-25_14h45.14.168,lingCatScenes,2020.1.3,Win32,60,"[1920,1080]",,,"[""trial_ahead_box"",""trial_slight_left_box"",""trial_left_box""]",,,,,,,,,,,,track.jpg,space,5.85749,"[0.008333333333333333,-0.2175925925925926,-0.38333333333333336]","[-0.3101851851851852,-0.3037037037037037,-0.29444444444444445]","[1,1,1]","[0,0,0]","[0,0,0]","[3.4270050000050105,3.993415000033565,4.493799999996554]","[""trial_ahead_box"",""trial_slight_left_box"",""trial_left_box""]",0,13,13,88,1,rooftop1.jpg,sculpturegarden4.jpg,soccerfield.jpg,sandbox.jpg,,
Image_List_2,,,,,,,,,,,,,,,,44585,2020-11-25_14h45.14.168,lingCatScenes,2020.1.3,Win32,60,"[1920,1080]",,,"[""trial_ahead_box""]",,,,,,,,,,,,sidewalk2.jpg,space,3.806585,[0.012037037037037037],[-0.29074074074074074],[1],[0],[0],[1.8099150000489317],"[""trial_ahead_box""]",0,14,14,84,1,readingroom5.jpg,restaurant13.jpg,sandDunes_desert_outdoor.jpg,rooftop2.jpg,,
Image_List_2,,,,,,,,,,,,,,,,44585,2020-11-25_14h45.14.168,lingCatScenes,2020.1.3,Win32,60,"[1920,1080]",,,"[""trial_ahead_box"",""trial_slight_right_box"",""trial_slight_left_box"",""trial_left_box"",""trial_sharp_left_box"",""trial_right_box"",""trial_sharp_right_box""]",,,,,,,,,,,,homeoffice.jpg,space,11.635645,"[0.022222222222222223,0.17777777777777778,-0.20833333333333334,-0.41203703703703703,-0.6037037037037037,0.4009259259259259,0.6018518518518519]","[-0.3,-0.3101851851851852,-0.3037037037037037,-0.2972222222222222,-0.2972222222222222,-0.30092592592592593,-0.287962962962963]","[1,1,1,1,1,1,1]","[0,0,0,0,0,0,0]","[0,0,0,0,0,0,0]","[2.893564999976661,4.310269999958109,5.993335000006482,7.543729999975767,8.843744999961928,10.427254999987781,11.143999999971129]","[""trial_ahead_box"",""trial_slight_right_box"",""trial_slight_left_box"",""trial_left_box"",""trial_sharp_left_box"",""trial_right_box"",""trial_sharp_right_box""]",0,15,15,53,1,gazebo3.jpg,frontLawn3.jpg,homegarage3.jpg,fountain.jpg,,
Image_List_2,,,,,,,,,,,,,,,,44585,2020-11-25_14h45.14.168,lingCatScenes,2020.1.3,Win32,60,"[1920,1080]",,,"[""trial_slight_right_box"",""trial_right_box"",""trial_slight_left_box""]",,,,,,,,,,,,bedroom6.jpg,space,22.43441,"[0.1935185185185185,0.1935185185185185,0.38796296296296295,-0.18518518518518517,-0.5907407407407408,-0.5842592592592593,0.6175925925925926]","[-0.2712962962962963,-0.2935185185185185,-0.30092592592592593,-0.3138888888888889,-0.3101851851851852,-0.28425925925925927,-0.06111111111111111]","[1,1,1,1,1,1,1]","[0,0,0,0,0,0,0]","[0,0,0,0,0,0,0]","[4.258265000011306,4.925274999986868,8.392050000024028,12.208515000005718,15.625820000015665,18.392244999995455,19.359155000012834]","[""trial_slight_right_box"",""trial_right_box"",""trial_slight_left_box"",""trial_sharp_left_box"",""trial_sharp_left_box""]",0,16,16,12,1,baggageClaim4.jpg,bambooforest5.jpg,bleachers7.jpg,backyard5.jpg,,
Image_List_2,,,,,,,,,,,,,,,,44585,2020-11-25_14h45.14.168,lingCatScenes,2020.1.3,Win32,60,"[1920,1080]",,,"[""trial_slight_left_box"",""trial_slight_right_box"",""trial_right_box"",""trial_left_box"",""trial_sharp_right_box"",""trial_sharp_left_box""]",,,,,,,,,,,,deck2.jpg,space,16.97212,"[-0.20185185185185187,0.19722222222222222,0.4166666666666667,-0.38333333333333336,0.5990740740740741,-0.5712962962962963,-0.6129629629629629]","[-0.30648148148148147,-0.32037037037037036,-0.3101851851851852,-0.3037037037037037,-0.3037037037037037,-0.31666666666666665,-0.3074074074074074]","[1,1,1,1,1,1,1]","[0,0,0,0,0,0,0]","[0,0,0,0,0,0,0]","[4.525985000014771,5.759775000042282,6.726155000040308,7.843120000034105,14.743625000002794,15.74349500000244,16.343710000044666]","[""trial_slight_left_box"",""trial_slight_right_box"",""trial_right_box"",""trial_left_box"",""trial_sharp_right_box"",""trial_sharp_left_box""]",0,17,17,29,1,cornfield2.jpg,cliff2.jpg,constructionSite4.jpg,bridalboutique3.jpg,,
Image_List_2,,,,,,,,,,,,,,,,44585,2020-11-25_14h45.14.168,lingCatScenes,2020.1.3,Win32,60,"[1920,1080]",,,"[""trial_slight_left_box"",""trial_right_box"",""trial_left_box""]",,,,,,,,,,,,office3.jpg,space,15.45294,"[-0.20462962962962963,-0.38981481481481484,-0.40555555555555556,0.24166666666666667,0.4009259259259259,-0.4185185185185185]","[-0.3194444444444444,-0.3138888888888889,-0.30092592592592593,-0.3296296296296296,-0.2777777777777778,-0.2972222222222222]","[1,1,1,1,1,1]","[0,0,0,0,0,0]","[0,0,0,0,0,0]","[2.4439000000129454,3.5440400000079535,4.444045000011101,7.227635000017472,8.060969999991357,10.61081500002183]","[""trial_slight_left_box"",""trial_left_box"",""trial_left_box"",""trial_right_box"",""trial_left_box""]",0,18,18,66,1,library_aisle10.jpg,laundromat3.jpg,liquorstore.jpg,horsebarn9.jpg,,
Image_List_2,,,,,,,,,,,,,,,,44585,2020-11-25_14h45.14.168,lingCatScenes,2020.1.3,Win32,60,"[1920,1080]",,,"[""trial_slight_right_box"",""trial_sharp_left_box"",""trial_sharp_right_box""]",,,,,,,,,,,,cafeteria5.jpg,space,19.17096,"[0.1935185185185185,-0.5972222222222222,0.4009259259259259,0.3814814814814815,0.5953703703703703,0.5370370370370371]","[-0.2972222222222222,-0.3101851851851852,-0.3101851851851852,-0.2972222222222222,-0.3101851851851852,-0.14537037037037037]","[1,1,1,1,1,1]","[0,0,0,0,0,0]","[0,0,0,0,0,0]","[3.1421100000152364,8.059850000019651,14.109445000009146,15.793170000019018,16.759580000012647,17.759665000019595]","[""trial_slight_right_box"",""trial_sharp_left_box"",""trial_right_box"",""trial_right_box"",""trial_sharp_right_box""]",0,19,19,15,1,bambooforest4.jpg,bleachers8.jpg,cabinIndoors.jpg,bar8.jpg,,
Image_List_2,,,,,,,,,,,,,,,,44585,2020-11-25_14h45.14.168,lingCatScenes,2020.1.3,Win32,60,"[1920,1080]",,,"[""trial_slight_left_box"",""trial_slight_right_box"",""trial_right_box"",""trial_sharp_right_box""]",,,,,,,,,,,,eyeglassstore9.jpg,space,8.28049,"[-0.20462962962962963,0.1935185185185185,0.3814814814814815,0.5851851851851851]","[-0.31666666666666665,-0.3194444444444444,-0.3037037037037037,-0.28703703703703703]","[1,1,1,1]","[0,0,0,0]","[0,0,0,0]","[3.905780000030063,4.822470000013709,5.722524999990128,7.405964999983553]","[""trial_slight_left_box"",""trial_slight_right_box"",""trial_right_box"",""trial_sharp_right_box""]",0,20,20,39,1,driveway6.jpg,drycleaners6.jpg,drymountains5.jpg,cliff5.jpg,,
Image_List_2,,,,,,,,,,,,,,,,44585,2020-11-25_14h45.14.168,lingCatScenes,2020.1.3,Win32,60,"[1920,1080]",,,"[""trial_ahead_box""]",,,,,,,,,,,,hallway5.jpg,space,1.727805,[0.002777777777777778],[-0.28425925925925927],[1],[0],[0],[1.275690000038594],"[""trial_ahead_box""]",0,21,21,51,1,gasstation6.jpg,frontDoor5.jpg,hayfield4.jpg,firestation5.jpg,,
Image_List_2,,,,,,,,,,,,,,,,44585,2020-11-25_14h45.14.168,lingCatScenes,2020.1.3,Win32,60,"[1920,1080]",,,"[""trial_slight_left_box"",""trial_right_box""]",,,,,,,,,,,,museum6.jpg,space,2.8414,"[-0.19814814814814816,0.39444444444444443]","[-0.29074074074074074,-0.3]","[1,1]","[0,0]","[0,0]","[1.5633749999688007,2.4630550000001676]","[""trial_slight_left_box"",""trial_right_box""]",0,22,22,63,1,hut2.jpg,hotelRoom2.jpg,lab4.jpg,highway2.jpg,,
Image_List_2,,,,,,,,,,,,,,,,44585,2020-11-25_14h45.14.168,lingCatScenes,2020.1.3,Win32,60,"[1920,1080]",,,"[""trial_left_box"",""trial_right_box""]",,,,,,,,,,,,diningroom5.jpg,space,5.01013,"[-0.41203703703703703,0.4166666666666667]","[-0.3037037037037037,-0.28425925925925927]","[1,1]","[0,0]","[0,0]","[3.098345000005793,3.9483800000161864]","[""trial_left_box"",""trial_right_box""]",0,23,23,34,1,deck4.jpg,courthouse4.jpg,diner11.jpg,campusquad1.jpg,,
Image_List_2,,,,,,,,,,,,,,,,44585,2020-11-25_14h45.14.168,lingCatScenes,2020.1.3,Win32,60,"[1920,1080]",,,"[""trial_sharp_left_box"",""trial_left_box"",""trial_slight_left_box""]",,,,,,,,,,,,church8.jpg,space,10.205035,"[-0.6064814814814815,-0.3990740740740741,-0.19537037037037036]","[-0.29444444444444445,-0.30092592592592593,-0.30648148148148147]","[1,1,1]","[0,0,0]","[0,0,0]","[2.292475000023842,3.9260249999933876,5.609304999990854]","[""trial_sharp_left_box"",""trial_left_box"",""trial_slight_left_box""]",0,24,24,23,1,bus_shelter.jpg,carmechanic4.jpeg,cemetery3.jpg,bleachers6.jpg,,
Image_List_2,,,,,,,,,,,,,,,,44585,2020-11-25_14h45.14.168,lingCatScenes,2020.1.3,Win32,60,"[1920,1080]",,,"[""trial_slight_left_box"",""trial_left_box"",""trial_slight_right_box"",""trial_right_box""]",,,,,,,,,,,,pavilion5.jpg,space,10.506485,"[-0.21481481481481482,-0.4185185185185185,0.18703703703703703,0.4462962962962963,0.4111111111111111]","[-0.28055555555555556,-0.287962962962963,-0.3074074074074074,-0.3490740740740741,-0.3138888888888889]","[1,1,1,1,1]","[0,0,0,0,0]","[0,0,0,0,0]","[4.042509999999311,4.4922350000124425,6.875850000011269,7.192489999986719,7.675790000008419]","[""trial_slight_left_box"",""trial_left_box"",""trial_slight_right_box"",""trial_right_box""]",0,25,25,71,1,metroInside2.jpg,metroInside3.jpg,museum3.jpg,jewelrystore.jpg,,
Image_List_2,,,,,,,,,,,,,,,,44585,2020-11-25_14h45.14.168,lingCatScenes,2020.1.3,Win32,60,"[1920,1080]",,,[],,,,,,,,,,,,farm1.jpg,space,8.22079,"[0.009259259259259259,-0.26296296296296295,-0.2212962962962963,-0.21203703703703702,-0.024074074074074074]","[-0.28703703703703703,-0.3037037037037037,-0.3037037037037037,-0.30648148148148147,-0.2972222222222222]","[1,1,1,1,1]","[0,0,0,0,0]","[0,0,0,0,0]","[3.415930000017397,3.8989050000091083,4.33271499996772,5.149299999990035,5.732409999996889]","[""trial_ahead_box"",""trial_slight_left_box"",""trial_slight_left_box"",""trial_ahead_box""]",0,26,26,40,1,drycleaners4.jpg,drymountains.jpg,dugout1.jpg,clothingstore3.jpg,,
Image_List_2,,,,,,,,,,,,,,,,44585,2020-11-25_14h45.14.168,lingCatScenes,2020.1.3,Win32,60,"[1920,1080]",,,"[""trial_ahead_box"",""trial_slight_right_box"",""trial_slight_left_box""]",,,,,,,,,,,,playground10.jpg,space,9.444165,"[-0.03981481481481482,-0.013888888888888888,0.18425925925925926,-0.18888888888888888]","[-0.2935185185185185,-0.30648148148148147,-0.32314814814814813,-0.30648148148148147]","[1,1,1,1]","[0,0,0,0]","[0,0,0,0]","[4.892310000024736,5.442640000022948,6.692704999994021,8.992889999994077]","[""trial_ahead_box"",""trial_slight_right_box"",""trial_slight_left_box""]",0,27,27,74,1,newsstand2.jpg,observatory4.jpeg,operatingroom1.jpg,lightingstore2.jpg,,
Image_List_2,,,,,,,,,,,,,,,,44585,2020-11-25_14h45.14.168,lingCatScenes,2020.1.3,Win32,60,"[1920,1080]",,,"[""trial_ahead_box"",""trial_slight_left_box"",""trial_slight_right_box""]",,,,,,,,,,,,sandDunes_desert_outdoor9.jpg,space,7.599115,"[-0.003703703703703704,-0.24722222222222223,-0.20185185185185187,0.17685185185185184]","[-0.31296296296296294,-0.30648148148148147,-0.3074074074074074,-0.3194444444444444]","[1,1,1,1]","[0,0,0,0]","[0,0,0,0]","[2.247139999992214,3.163939999998547,3.647419999993872,6.247425000008661]","[""trial_ahead_box"",""trial_slight_left_box"",""trial_slight_right_box""]",0,28,28,82,1,publicrestroom2.jpg,promenadeDeck3.jpg,readingroom4.jpg,postoffice4.jpg,,
Image_List_2,,,,,,,,,,,,,,,,44585,2020-11-25_14h45.14.168,lingCatScenes,2020.1.3,Win32,60,"[1920,1080]",,,"[""trial_slight_left_box"",""trial_ahead_box"",""trial_slight_right_box""]",,,,,,,,,,,,pavilion.jpg,space,6.101435,"[-0.20833333333333334,0.008333333333333333,0.18055555555555555]","[-0.32314814814814813,-0.3074074074074074,-0.3101851851851852]","[1,1,1]","[0,0,0]","[0,0,0]","[3.4770450000069104,4.193845000001602,4.693390000029467]","[""trial_slight_left_box"",""trial_ahead_box"",""trial_slight_right_box""]",0,29,29,70,1,lockerroom4.jpg,lockerroom3.jpg,minigolf8.jpg,igloo.jpg,,
Image_List_2,,,,,,,,,,,,,,,,44585,2020-11-25_14h45.14.168,lingCatScenes,2020.1.3,Win32,60,"[1920,1080]",,,"[""trial_slight_left_box""]",,,,,,,,,,,,banquetHall4.jpg,space,2.888885,[-0.20833333333333334],[-0.3037037037037037],[1],[0],[0],[2.048725000000559],"[""trial_slight_left_box""]",0,30,30,7,1,attic2.jpg,backstage1.jpg,baggageClaim3.jpg,applestore2.jpg,,
Image_List_2,,,,,,,,,,,,,,,,44585,2020-11-25_14h45.14.168,lingCatScenes,2020.1.3,Win32,60,"[1920,1080]",,,"[""trial_slight_right_box""]",,,,,,,,,,,,volleyballcourt4.jpg,space,6.52951,[0.18333333333333332],[-0.30092592592592593],[1],[0],[0],[4.110519999987446],"[""trial_slight_right_box""]",0,31,31,93,1,tollbooth8.jpg,staircase4.jpg,warehouseoutside2.jpg,tenniscourt.jpg,,
Image_List_2,,,,,,,,,,,,,,,,44585,2020-11-25_14h45.14.168,lingCatScenes,2020.1.3,Win32,60,"[1920,1080]",,,"[""trial_slight_right_box"",""trial_sharp_left_box""]",,,,,,,,,,,,poolhall2.jpeg,space,4.79695,"[0.20925925925925926,-0.5611111111111111,-0.5777777777777777]","[-0.3,-0.3037037037037037,-0.3101851851851852]","[1,1,1]","[0,0,0]","[0,0,0]","[1.442899999965448,3.6428849999792874,4.376344999996945]","[""trial_slight_right_box"",""trial_sharp_left_box""]",0,32,32,79,1,pasture.jpg,playground9.jpg,pier2.jpg,observatory2.jpg,,
Image_List_2,,,,,,,,,,,,,,,,44585,2020-11-25_14h45.14.168,lingCatScenes,2020.1.3,Win32,60,"[1920,1080]",,,"[""trial_sharp_left_box"",""trial_right_box""]",,,,,,,,,,,,photographer_studio2.jpg,space,8.02662,"[0.21574074074074073,-0.6361111111111111,-0.5944444444444444,0.4101851851851852,0.2037037037037037]","[-0.3101851851851852,-0.287962962962963,-0.2814814814814815,-0.28425925925925927,-0.3037037037037037]","[1,1,1,1,1]","[0,0,0,0,0]","[0,0,0,0,0]","[2.7149499999941327,3.698290000029374,4.964910000038799,6.831515000027139,7.4149600000237115]","[""trial_slight_right_box"",""trial_sharp_left_box"",""trial_right_box"",""trial_slight_right_box""]",0,33,33,73,1,musicStore3.jpg,nursery.jpg,nursery4.jpg,library_aisle9.jpg,,
Image_List_2,,,,,,,,,,,,,,,,44585,2020-11-25_14h45.14.168,lingCatScenes,2020.1.3,Win32,60,"[1920,1080]",,,"[""trial_slight_right_box""]",,,,,,,,,,,,trainStation5.jpg,space,13.45843,"[0.3814814814814815,0.2101851851851852,0.4166666666666667,0.44907407407407407]","[-0.3037037037037037,-0.3074074074074074,-0.3037037037037037,-0.1648148148148148]","[1,1,1,1]","[0,0,0,0]","[0,0,0,0]","[8.546614999999292,9.463304999982938,11.363435000006575,12.846844999992754]","[""trial_right_box"",""trial_slight_right_box"",""trial_right_box""]",0,34,34,91,1,shoestore2.jpg,skatepark5.jpg,ticket_counter6.jpg,sidewalk3.jpg,,
Image_List_2,,,,,,,,,,,,,,,,44585,2020-11-25_14h45.14.168,lingCatScenes,2020.1.3,Win32,60,"[1920,1080]",,,"[""trial_left_box""]",,,,,,,,,,,,farm3.jpg,space,4.32266,[-0.3768518518518518],[-0.32037037037037036],[1],[0],[0],[3.660334999964107],"[""trial_left_box""]",0,35,35,41,1,dugout4.jpg,drymountains3.jpg,fabricstore1.jpg,dentist2.jpg,,
Image_List_2,,,,,,,,,,,,,,,,44585,2020-11-25_14h45.14.168,lingCatScenes,2020.1.3,Win32,60,"[1920,1080]",,,"[""trial_ahead_box""]",,,,,,,,,,,,wineVineyard8.jpg,space,1.863265,[0.009259259259259259],[-0.2935185185185185],[1],[0],[0],[1.4793300000019372],"[""trial_ahead_box""]",0,36,36,98,1,weightroom5.jpg,warehouse3.jpg,winebarrel4.jpg,winebarrel2.jpg,,
Image_List_2,,,,,,,,,,,,,,,,44585,2020-11-25_14h45.14.168,lingCatScenes,2020.1.3,Win32,60,"[1920,1080]",,,"[""trial_left_box"",""trial_right_box""]",,,,,,,,,,,,diningroom1.jpg,space,6.638355,"[0.18703703703703703,-0.19166666666666668,-0.40925925925925927,-0.20833333333333334,0.21944444444444444,0.42314814814814816]","[-0.28055555555555556,-0.29444444444444445,-0.29074074074074074,-0.29074074074074074,-0.3194444444444444,-0.3194444444444444]","[1,1,1,1,1,1]","[0,0,0,0,0,0]","[0,0,0,0,0,0]","[1.849099999992177,2.498905000044033,3.3322749999933876,3.9989449999993667,5.682420000026468,6.265610000002198]","[""trial_slight_right_box"",""trial_slight_left_box"",""trial_left_box"",""trial_slight_left_box"",""trial_slight_right_box"",""trial_right_box""]",0,37,37,33,1,deck1.jpg,courthouse2.jpg,diner10.jpg,cabinIndoors5.jpg,,
Image_List_2,,,,,,,,,,,,,,,,44585,2020-11-25_14h45.14.168,lingCatScenes,2020.1.3,Win32,60,"[1920,1080]",,,"[""trial_right_box"",""trial_sharp_left_box""]",,,,,,,,,,,,baggageClaim2.jpg,space,7.36934,"[0.36203703703703705,0.42314814814814816,-0.5972222222222222]","[-0.3101851851851852,-0.28425925925925927,-0.2814814814814815]","[1,1,1]","[0,0,0]","[0,0,0]","[4.688064999994822,5.9712799999979325,6.937979999987874]","[""trial_right_box"",""trial_sharp_left_box""]",0,38,38,4,1,artStudio1.jpg,auto_showroom1.jpg,appleorchard3.jpg,alley4.jpg,,
Image_List_2,,,,,,,,,,,,,,,,44585,2020-11-25_14h45.14.168,lingCatScenes,2020.1.3,Win32,60,"[1920,1080]",,,"[""trial_slight_right_box"",""trial_sharp_left_box""]",,,,,,,,,,,,lab1.jpg,space,6.20729,"[0.2,-0.6259259259259259,-0.6]","[-0.2935185185185185,-0.3138888888888889,-0.28703703703703703]","[1,1,1]","[0,0,0]","[0,0,0]","[2.946799999976065,4.696500000020023,5.746689999999944]","[""trial_slight_right_box"",""trial_sharp_left_box""]",0,39,39,58,1,highway7.jpg,hedgemaze1.jpg,igloo4.jpg,grocerystore2.jpg,,
Image_List_2,,,,,,,,,,,,,,,,44585,2020-11-25_14h45.14.168,lingCatScenes,2020.1.3,Win32,60,"[1920,1080]",,,"[""trial_ahead_box"",""trial_left_box""]",,,,,,,,,,,,desertvegetation6.jpg,space,5.758945,"[0.001851851851851852,-0.3990740740740741]","[-0.3101851851851852,-0.2972222222222222]","[1,1]","[0,0]","[0,0]","[2.0135599999921396,4.9472200000309385]","[""trial_ahead_box"",""trial_left_box""]",0,40,40,31,1,cubicle4.jpg,conference4.jpg,courtroom2.jpg,cabin3.jpg,,
Image_List_2,,,,,,,,,,,,,,,,44585,2020-11-25_14h45.14.168,lingCatScenes,2020.1.3,Win32,60,"[1920,1080]",,,[],,,,,,,,,,,,poolhall1.jpg,space,0.20005,[],[],[],[],[],[],[],0,41,41,78,1,parkinglot3.jpg,pier5.jpg,pavilion3.jpg,observatory1.jpg,,
Image_List_2,,,,,,,,,,,,,,,,44585,2020-11-25_14h45.14.168,lingCatScenes,2020.1.3,Win32,60,"[1920,1080]",,,"[""trial_slight_right_box"",""trial_right_box"",""trial_left_box""]",,,,,,,,,,,,warehouseoutside1.jpg,space,9.800235,"[0.2,0.4074074074074074,0.4074074074074074,-0.41574074074074074]","[-0.30648148148148147,-0.2675925925925926,-0.28703703703703703,-0.30092592592592593]","[1,1,1,1]","[0,0,0,0]","[0,0,0,0]","[3.593634999997448,5.543799999984913,5.993529999977909,7.527284999960102]","[""trial_slight_right_box"",""trial_right_box"",""trial_left_box""]",0,42,42,96,1,warehouse4.jpg,tenniscourt3.jpg,windmill1.jpg,warehouse1.jpg,,
Image_List_2,,,,,,,,,,,,,,,,44585,2020-11-25_14h45.14.168,lingCatScenes,2020.1.3,Win32,60,"[1920,1080]",,,"[""trial_sharp_right_box"",""trial_sharp_left_box"",""trial_left_box"",""trial_right_box""]",,,,,,,,,,,,yogastudio4.jpg,space,8.46711,"[0.5981481481481481,-0.6231481481481481,-0.38333333333333336,0.39166666666666666]","[-0.3,-0.29074074074074074,-0.2814814814814815,-0.3]","[1,1,1,1]","[0,0,0,0]","[0,0,0,0]","[2.2591499999980442,3.358940000005532,4.276175000006333,6.81025000003865]","[""trial_sharp_right_box"",""trial_sharp_left_box"",""trial_left_box"",""trial_right_box""]",0,43,43,99,1,wineVineyard9.jpg,windmill2.jpg,wrestlingring7.jpg,yogastudio1.jpg,,
Image_List_2,,,,,,,,,,,,,,,,44585,2020-11-25_14h45.14.168,lingCatScenes,2020.1.3,Win32,60,"[1920,1080]",,,"[""trial_slight_right_box"",""trial_sharp_left_box""]",,,,,,,,,,,,hotelRoom3.jpg,space,9.12389,"[0.1935185185185185,-0.5842592592592593]","[-0.32314814814814813,-0.2935185185185185]","[1,1]","[0,0]","[0,0]","[2.6062050000182353,8.290009999996983]","[""trial_slight_right_box"",""trial_sharp_left_box""]",0,44,44,55,1,greenmountains.jpg,gazebo5.jpg,hotelRoom7.jpg,frontLawn2.jpg,,
Image_List_2,,,,,,,,,,,,,,,,44585,2020-11-25_14h45.14.168,lingCatScenes,2020.1.3,Win32,60,"[1920,1080]",,,"[""trial_sharp_right_box"",""trial_left_box""]",,,,,,,,,,,,grocerystore6.jpg,space,6.759885,"[0.5916666666666667,-0.37962962962962965]","[-0.2777777777777778,-0.3037037037037037]","[1,1]","[0,0]","[0,0]","[3.726525000005495,5.792920000036247]","[""trial_sharp_right_box"",""trial_left_box""]",0,45,45,50,1,frontLawn4.jpg,forestpath6.jpg,hallway2.jpg,fireplace4.jpg,,
Image_List_2,,,,,,,,,,,,,,,,44585,2020-11-25_14h45.14.168,lingCatScenes,2020.1.3,Win32,60,"[1920,1080]",,,"[""trial_slight_left_box"",""trial_sharp_right_box""]",,,,,,,,,,,,ruralroad5.jpg,space,6.751025,"[-0.2212962962962963,0.6083333333333333]","[-0.287962962962963,-0.2777777777777778]","[1,1]","[0,0]","[0,0]","[4.9960250000003725,6.346130000019912]","[""trial_slight_left_box"",""trial_sharp_right_box""]",0,46,46,81,1,promenadeDeck.jpg,promenadeDeck2.jpg,rainforest5.jpg,pasture8.jpg,,
Image_List_2,,,,,,,,,,,,,,,,44585,2020-11-25_14h45.14.168,lingCatScenes,2020.1.3,Win32,60,"[1920,1080]",,,"[""trial_right_box"",""trial_sharp_left_box""]",,,,,,,,,,,,newsstand7.jpg,space,6.3743,"[0.3712962962962963,0.375,-0.5675925925925925,-0.5907407407407408]","[-0.3037037037037037,-0.30648148148148147,-0.28055555555555556,-0.3]","[1,1,1,1]","[0,0,0,0]","[0,0,0,0]","[3.979029999987688,4.678889999981038,5.512199999997392,5.912294999987353]","[""trial_right_box"",""trial_sharp_left_box""]",0,47,47,65,1,igloo5.jpg,laundromat2.jpeg,labClass7.jpg,homeoffice8.jpg,,
Image_List_2,,,,,,,,,,,,,,,,44585,2020-11-25_14h45.14.168,lingCatScenes,2020.1.3,Win32,60,"[1920,1080]",,,"[""trial_left_box"",""trial_sharp_right_box""]",,,,,,,,,,,,casino3.jpg,space,9.36644,"[-0.3990740740740741,0.5925925925925926]","[-0.3138888888888889,-0.30648148148148147]","[1,1]","[0,0]","[0,0]","[7.110045000037644,8.426890000002459]","[""trial_left_box"",""trial_sharp_right_box""]",0,48,48,19,1,boardwalk2.jpg,cafeteria1.jpg,castle4.jpg,basketballcourt.jpg,,
Image_List_2,,,,,,,,,,,,,,,,44585,2020-11-25_14h45.14.168,lingCatScenes,2020.1.3,Win32,60,"[1920,1080]",,,"[""trial_ahead_box""]",,,,,,,,,,,,lightingstore3.jpg,space,4.156385,[0.018518518518518517],[-0.2777777777777778],[1],[0],[0],[2.0085199999739416],"[""trial_ahead_box""]",0,49,49,60,1,hometheater2.jpg,homegarage.jpg,kindergarten_classroom6.jpg,hallway.jpg,,
Image_List_2,,,,,,,,,,,,,,,,44585,2020-11-25_14h45.14.168,lingCatScenes,2020.1.3,Win32,60,"[1920,1080]",,,"[""trial_ahead_box""]",,,,,,,,,,,,trainStation1.jpg,space,3.24059,"[-0.003703703703703704,0.009259259259259259]","[-0.2740740740740741,-0.3]","[1,1]","[0,0]","[0,0]","[1.7595600000349805,2.342579999996815]","[""trial_ahead_box""]",0,50,50,90,1,savanna5.jpg,sidewalk1.jpg,stripmall3.jpg,shoestore4.jpg,,
Image_List_2,,,,,,,,,,,,,,,,44585,2020-11-25_14h45.14.168,lingCatScenes,2020.1.3,Win32,60,"[1920,1080]",,,"[""trial_slight_left_box""]",,,,,,,,,,,,breakroom5.jpg,space,2.078315,[-0.19537037037037036],[-0.3],[1],[0],[0],[1.2936399999889545],"[""trial_slight_left_box""]",0,51,51,14,1,ballroom1.jpg,bistrooutdoor5.jpg,botanicalGarden5.jpg,ballroom3.jpg,,
Image_List_2,,,,,,,,,,,,,,,,44585,2020-11-25_14h45.14.168,lingCatScenes,2020.1.3,Win32,60,"[1920,1080]",,,"[""trial_slight_left_box"",""trial_right_box""]",,,,,,,,,,,,newsstand5.jpg,space,3.30187,"[-0.20462962962962963,0.39444444444444443]","[-0.2972222222222222,-0.28055555555555556]","[1,1]","[0,0]","[0,0]","[1.5768750000279397,2.5935450000106357]","[""trial_slight_left_box"",""trial_right_box""]",0,52,52,64,1,igloo2.jpg,jewelrystore8.jpg,lab5.jpg,homegarage2.jpg,,
Image_List_2,,,,,,,,,,,,,,,,44585,2020-11-25_14h45.14.168,lingCatScenes,2020.1.3,Win32,60,"[1920,1080]",,,[],,,,,,,,,,,,apartmentBuilding1.jpg,space,0.186975,[],[],[],[],[],[],[],0,53,53,1,1,airportTerminal4.jpg,applestore1.jpg,airportTerminal3.jpg,airportTerminal2.jpg,,
Image_List_2,,,,,,,,,,,,,,,,44585,2020-11-25_14h45.14.168,lingCatScenes,2020.1.3,Win32,60,"[1920,1080]",,,"[""trial_ahead_box""]",,,,,,,,,,,,barbershop3.jpg,space,3.12832,[0.002777777777777778],[-0.31296296296296294],[1],[0],[0],[2.5768999999854714],"[""trial_ahead_box""]",0,54,54,10,1,backstage2.jpg,ballroom4.jpg,basketballcourt3.jpg,ATM4.jpg,,
Image_List_2,,,,,,,,,,,,,,,,44585,2020-11-25_14h45.14.168,lingCatScenes,2020.1.3,Win32,60,"[1920,1080]",,,"[""trial_slight_left_box""]",,,,,,,,,,,,cafeteria6.jpg,space,1.865255,[-0.21481481481481482],[-0.3037037037037037],[1],[0],[0],[1.3744600000209175],"[""trial_slight_left_box""]",0,55,55,16,1,basement.jpg,breakroom2.jpg,campusquad4.jpg,barbershop2.jpg,,
Image_List_2,,,,,,,,,,,,,,,,44585,2020-11-25_14h45.14.168,lingCatScenes,2020.1.3,Win32,60,"[1920,1080]",,,"[""trial_slight_left_box""]",,,,,,,,,,,,wineVineyard2.jpg,space,4.589825,[-0.18611111111111112],[-0.32314814814814813],[1],[0],[0],[4.294235000037588],"[""trial_slight_left_box""]",0,56,56,97,1,warehouseoutside4.jpg,waitingroom4.jpg,winebarrel3.jpg,warehouseoutside3.jpg,,
Image_List_2,,,,,,,,,,,,,,,,44585,2020-11-25_14h45.14.168,lingCatScenes,2020.1.3,Win32,60,"[1920,1080]",,,"[""trial_slight_left_box""]",,,,,,,,,,,,forestpath10.jpg,space,4.785005,"[-0.007407407407407408,0.001851851851851852,-0.22777777777777777,-0.19166666666666668]","[-0.31666666666666665,-0.32314814814814813,-0.31666666666666665,-0.3037037037037037]","[1,1,1,1]","[0,0,0,0]","[0,0,0,0]","[1.4488199999905191,3.4128899999777786,3.929535000002943,4.495959999971092]","[""trial_ahead_box"",""trial_ahead_box"",""trial_slight_left_box""]",0,57,57,43,1,exerciseequipment5.jpg,dugout2.jpg,foodcourt.jpg,diningroom3.jpg,,
Image_List_2,,,,,,,,,,,,,,,,44585,2020-11-25_14h45.14.168,lingCatScenes,2020.1.3,Win32,60,"[1920,1080]",,,"[""trial_left_box"",""trial_sharp_left_box"",""trial_slight_left_box"",""trial_ahead_box""]",,,,,,,,,,,,track5.jpg,space,18.344625,"[-0.03611111111111111,-0.013888888888888888,-0.1787037037037037,-0.007407407407407408,-0.19537037037037036,-0.4027777777777778,-0.6231481481481481,-0.20833333333333334,-0.1925925925925926,0.005555555555555556]","[-0.31666666666666665,-0.32037037037037036,-0.31666666666666665,-0.3074074074074074,-0.30092592592592593,-0.3101851851851852,-0.3074074074074074,-0.32592592592592595,-0.32037037037037036,-0.2972222222222222]","[1,1,1,1,1,1,1,1,1,1]","[0,0,0,0,0,0,0,0,0,0]","[0,0,0,0,0,0,0,0,0,0]","[1.7384799999999814,3.8219950000056997,5.007165000017267,7.155460000038147,8.088350000034552,13.589165000012144,14.955435000010766,15.555665000050794,15.955470000044443,16.488820000027772]","[""trial_ahead_box"",""trial_slight_left_box"",""trial_ahead_box"",""trial_slight_left_box"",""trial_left_box"",""trial_sharp_left_box"",""trial_slight_left_box"",""trial_ahead_box""]",0,58,58,89,1,ruralroad7.jpg,ShowJumping7.jpg,staircase7.jpg,sculpturegarden3.jpg,,
Image_List_2,,,,,,,,,,,,,,,,44585,2020-11-25_14h45.14.168,lingCatScenes,2020.1.3,Win32,60,"[1920,1080]",,,"[""trial_ahead_box""]",,,,,,,,,,,,elevatorOutside4.jpg,space,3.049555,[-0.003703703703703704],[-0.3],[1],[0],[0],[1.2592699999804609],"[""trial_ahead_box""]",0,59,59,38,1,dining_car2.jpg,dock1.jpg,driveway8.jpg,classroom1.jpg,,
Image_List_2,,,,,,,,,,,,,,,,44585,2020-11-25_14h45.14.168,lingCatScenes,2020.1.3,Win32,60,"[1920,1080]",,,"[""trial_ahead_box"",""trial_sharp_left_box""]",,,,,,,,,,,,playroom6.jpg,space,5.959725,"[0.009259259259259259,-0.6037037037037037]","[-0.3037037037037037,-0.3037037037037037]","[1,1]","[0,0]","[0,0]","[1.4487150000059046,3.448709999967832]","[""trial_ahead_box"",""trial_sharp_left_box""]",0,60,60,77,1,parkinggarage2.jpg,pasture9.jpg,park8.jpg,mallindoor6.jpg,,
Image_List_2,,,,,,,,,,,,,,,,44585,2020-11-25_14h45.14.168,lingCatScenes,2020.1.3,Win32,60,"[1920,1080]",,,"[""trial_left_box"",""trial_sharp_left_box"",""trial_sharp_right_box""]",,,,,,,,,,,,sculpturegarden1.jpg,space,12.987415,"[-0.41203703703703703,-0.6453703703703704,-0.6203703703703703,-0.6101851851851852,0.5537037037037037,0.5722222222222222,0.5824074074074074]","[-0.2935185185185185,-0.3425925925925926,-0.3296296296296296,-0.32037037037037036,-0.31296296296296294,-0.29444444444444445,-0.3037037037037037]","[1,1,1,1,1,1,1]","[0,0,0,0,0,0,0]","[0,0,0,0,0,0,0]","[3.8436149999615736,5.910279999952763,6.34320000000298,8.443854999961331,9.893924999982119,11.14348999998765,11.910745000001043]","[""trial_left_box"",""trial_sharp_left_box"",""trial_sharp_right_box""]",0,61,61,83,1,readingroom1.jpg,promenadeDeck6.jpg,restaurant8.jpg,readingroom2.jpg,,
Image_List_2,,,,,,,,,,,,,,,,44585,2020-11-25_14h45.14.168,lingCatScenes,2020.1.3,Win32,60,"[1920,1080]",,,"[""trial_sharp_left_box"",""trial_sharp_right_box""]",,,,,,,,,,,,courtroom3.jpg,space,5.44384,"[-0.6064814814814815,0.5981481481481481]","[-0.3037037037037037,-0.3037037037037037]","[1,1]","[0,0]","[0,0]","[2.8934250000165775,3.943825000023935]","[""trial_sharp_left_box"",""trial_sharp_right_box""]",0,62,62,27,1,castle3.jpg,churchInside4.jpg,closet.jpg,brewery2.jpg,,
Image_List_2,,,,,,,,,,,,,,,,44585,2020-11-25_14h45.14.168,lingCatScenes,2020.1.3,Win32,60,"[1920,1080]",,,"[""trial_slight_left_box"",""trial_sharp_right_box""]",,,,,,,,,,,,parkinglot2.jpg,space,12.78638,"[-0.19166666666666668,0.6148148148148148]","[-0.3138888888888889,-0.29074074074074074]","[1,1]","[0,0]","[0,0]","[9.712274999998044,10.709260000032373]","[""trial_slight_left_box"",""trial_sharp_right_box""]",0,63,63,69,1,liquorstore8.jpg,livingroom.jpg,metroInside1.jpg,icecream2.jpg,,
Image_List_2,,,,,,,,,,,,,,,,44585,2020-11-25_14h45.14.168,lingCatScenes,2020.1.3,Win32,60,"[1920,1080]",,,"[""trial_ahead_box"",""trial_slight_left_box"",""trial_slight_right_box"",""trial_right_box""]",,,,,,,,,,,,playground6.jpg,space,10.684965,"[0.009259259259259259,-0.18888888888888888,0.2101851851851852,0.4203703703703704]","[-0.2935185185185185,-0.30648148148148147,-0.3,-0.287962962962963]","[1,1,1,1]","[0,0,0,0]","[0,0,0,0]","[4.194855000008829,6.261074999987613,7.228034999978263,7.627894999983255]","[""trial_ahead_box"",""trial_slight_left_box"",""trial_slight_right_box"",""trial_right_box""]",0,64,64,75,1,pantry5.jpg,operatingroom4.jpg,park.jpg,lockerroom.jpg,,
Image_List_2,,,,,,,,,,,,,,,,44585,2020-11-25_14h45.14.168,lingCatScenes,2020.1.3,Win32,60,"[1920,1080]",,,"[""trial_slight_right_box""]",,,,,,,,,,,,alley2.jpg,space,2.18199,[0.20277777777777778],[-0.2935185185185185],[1],[0],[0],[1.8640899999882095],"[""trial_slight_right_box""]",0,65,65,0,1,airplanecabin1.jpg,appleorchard4.jpg,airplanecabin5.jpg,airplanecabin3.jpg,,
Image_List_2,,,,,,,,,,,,,,,,44585,2020-11-25_14h45.14.168,lingCatScenes,2020.1.3,Win32,60,"[1920,1080]",,,"[""trial_slight_right_box"",""trial_slight_left_box"",""trial_sharp_right_box""]",,,,,,,,,,,,banquetHall6.jpg,space,6.951735,"[0.20277777777777778,0.20925925925925926,-0.21481481481481482,0.5824074074074074]","[-0.33611111111111114,-0.3101851851851852,-0.287962962962963,-0.2972222222222222]","[1,1,1,1]","[0,0,0,0]","[0,0,0,0]","[1.7448849999927916,2.230969999975059,3.128035000001546,5.995254999957979]","[""trial_slight_right_box"",""trial_slight_left_box"",""trial_sharp_right_box""]",0,66,66,8,1,attic3.jpg,balconyIN.jpg,bar.jpg,applestore4.jpg,,
Image_List_2,,,,,,,,,,,,,,,,44585,2020-11-25_14h45.14.168,lingCatScenes,2020.1.3,Win32,60,"[1920,1080]",,,"[""trial_slight_right_box""]",,,,,,,,,,,,attic1.jpg,space,25.318475,[0.21944444444444444],[-0.31666666666666665],[1],[0],[0],[16.493114999961108],"[""trial_slight_right_box""]",0,67,67,3,1,apartmentBuilding2.jpg,aquarium1.jpg,appleorchard2.jpg,alley3.jpg,,
Image_List_2,,,,,,,,,,,,,,,,44585,2020-11-25_14h45.14.168,lingCatScenes,2020.1.3,Win32,60,"[1920,1080]",,,"[""trial_slight_left_box"",""trial_right_box""]",,,,,,,,,,,,casino1.jpg,space,3.31796,"[-0.19537037037037036,0.4009259259259259]","[-0.2935185185185185,-0.30648148148148147]","[1,1]","[0,0]","[0,0]","[1.4751500000129454,3.0090949999867007]","[""trial_slight_left_box"",""trial_right_box""]",0,68,68,18,1,bleachers5.jpg,brewery4.jpg,castle2.jpg,basement6.jpg,,
Image_List_2,,,,,,,,,,,,,,,,44585,2020-11-25_14h45.14.168,lingCatScenes,2020.1.3,Win32,60,"[1920,1080]",,,"[""trial_left_box"",""trial_ahead_box"",""trial_slight_right_box"",""trial_right_box"",""trial_sharp_right_box""]",,,,,,,,,,,,conference3.jpg,space,22.11006,"[-0.5935185185185186,-0.6425925925925926,-0.6194444444444445,-0.44814814814814813,-0.412962962962963,0.01574074074074074,0.21944444444444444,0.3685185185185185,0.42685185185185187,0.41388888888888886,0.6407407407407407,0.6148148148148148]","[-0.2935185185185185,-0.30092592592592593,-0.2935185185185185,-0.31666666666666665,-0.3101851851851852,-0.3101851851851852,-0.3037037037037037,-0.30092592592592593,-0.30092592592592593,-0.32314814814814813,-0.32037037037037036,-0.3074074074074074]","[1,1,1,1,1,1,1,1,1,1,1,1]","[0,0,0,0,0,0,0,0,0,0,0,0]","[0,0,0,0,0,0,0,0,0,0,0,0]","[7.624560000025667,9.474214999994729,10.141300000017509,10.641285000019707,11.107920000038575,15.792865000024904,16.19286499998998,16.592980000015814,17.008060000021942,17.791405000025406,18.69171500002267,19.42535500001395]","[""trial_sharp_left_box"",""trial_sharp_left_box"",""trial_left_box"",""trial_ahead_box"",""trial_slight_right_box"",""trial_right_box"",""trial_sharp_right_box""]",0,69,69,25,1,campsite7.jpg,church3.jpg,checkoutcounter2.jpg,botanicalGarden4.jpg,,
Image_List_2,,,,,,,,,,,,,,,,44585,2020-11-25_14h45.14.168,lingCatScenes,2020.1.3,Win32,60,"[1920,1080]",,,"[""trial_ahead_box""]",,,,,,,,,,,,frontLawn5.jpg,space,5.594845,[0.018518518518518517],[-0.2972222222222222],[1],[0],[0],[5.258269999991171],"[""trial_ahead_box""]",0,70,70,46,1,flowershop.jpg,farmersmarket4.jpg,fountain4.jpg,dormroom6.jpg,,
Image_List_2,,,,,,,,,,,,,,,,44585,2020-11-25_14h45.14.168,lingCatScenes,2020.1.3,Win32,60,"[1920,1080]",,,"[""trial_ahead_box"",""trial_slight_right_box"",""trial_left_box"",""trial_sharp_left_box"",""trial_right_box"",""trial_sharp_right_box""]",,,,,,,,,,,,basketballcourt4.jpg,space,7.750425,"[0.002777777777777778,0.18703703703703703,-0.3925925925925926,-0.5675925925925925,-0.5935185185185186,0.4074074074074074,0.6212962962962963]","[-0.3037037037037037,-0.29074074074074074,-0.2935185185185185,-0.3037037037037037,-0.3037037037037037,-0.3037037037037037,-0.31296296296296294]","[1,1,1,1,1,1,1]","[0,0,0,0,0,0,0]","[0,0,0,0,0,0,0]","[1.5272600000025705,2.261144999996759,3.694649999961257,4.927484999992885,6.028144999989308,6.994284999964293,7.329119999951217]","[""trial_ahead_box"",""trial_slight_right_box"",""trial_left_box"",""trial_sharp_left_box"",""trial_right_box"",""trial_sharp_right_box""]",0,71,71,11,1,backyard2.jpg,bambooforest3.jpg,baywindow5.jpg,backyard1.jpg,,
Image_List_2,,,,,,,,,,,,,,,,44585,2020-11-25_14h45.14.168,lingCatScenes,2020.1.3,Win32,60,"[1920,1080]",,,"[""trial_ahead_box"",""trial_sharp_right_box"",""trial_sharp_left_box""]",,,,,,,,,,,,firestation3.jpg,space,11.29758,"[0.002777777777777778,0.6064814814814815,-0.625]","[-0.3101851851851852,-0.30092592592592593,-0.3037037037037037]","[1,1,1]","[0,0,0]","[0,0,0]","[2.3132150000310503,9.813750000030268,10.547495000006165]","[""trial_ahead_box"",""trial_sharp_right_box"",""trial_sharp_left_box""]",0,72,72,42,1,exerciseequipment3.jpg,drymountains6.jpg,farm4.jpg,desertvegetation2.jpg,,
Image_List_2,,,,,,,,,,,,,,,,44585,2020-11-25_14h45.14.168,lingCatScenes,2020.1.3,Win32,60,"[1920,1080]",,,"[""trial_sharp_right_box"",""trial_sharp_left_box""]",,,,,,,,,,,,church6.jpg,space,4.448335,"[0.6129629629629629,-0.5962962962962963]","[-0.3,-0.3074074074074074]","[1,1]","[0,0]","[0,0]","[2.244059999997262,3.2112750000087544]","[""trial_sharp_right_box"",""trial_sharp_left_box""]",0,73,73,22,1,bowlingalley5.jpg,cargo5.jpg,cemetery.jpg,bistrooutdoor6.jpg,,
Image_List_2,,,,,,,,,,,,,,,,44585,2020-11-25_14h45.14.168,lingCatScenes,2020.1.3,Win32,60,"[1920,1080]",,,"[""trial_ahead_box""]",,,,,,,,,,,,warehouse2.jpg,space,3.22134,[0],[-0.28703703703703703],[1],[0],[0],[2.995924999995623],"[""trial_ahead_box""]",0,74,74,95,1,waitingroom2.jpg,stripmall6.jpg,weightroom4.jpg,tvstudio3.jpg,,
Image_List_2,,,,,,,,,,,,,,,,44585,2020-11-25_14h45.14.168,lingCatScenes,2020.1.3,Win32,60,"[1920,1080]",,,"[""trial_slight_left_box"",""trial_ahead_box""]",,,,,,,,,,,,minigolf.jpg,space,15.069235,"[-0.18518518518518517,0.009259259259259259]","[-0.3212962962962963,-0.3212962962962963]","[1,1]","[0,0]","[0,0]","[10.628395000007004,13.412385000032373]","[""trial_slight_left_box"",""trial_ahead_box""]",0,75,75,62,1,hotellobby2.jpg,horsebarn8.jpg,lab3.jpg,hayfield7.jpg,,
Image_List_2,,,,,,,,,,,,,,,,44585,2020-11-25_14h45.14.168,lingCatScenes,2020.1.3,Win32,60,"[1920,1080]",,,"[""trial_sharp_left_box"",""trial_left_box"",""trial_slight_left_box"",""trial_ahead_box"",""trial_slight_right_box"",""trial_right_box"",""trial_sharp_right_box""]",,,,,,,,,,,,volleyballcourt.jpg,space,10.31548,"[-0.5861111111111111,-0.39814814814814814,-0.19444444444444445,0.022222222222222223,0.1685185185185185,0.19166666666666668,0.45,0.40555555555555556,0.5925925925925926]","[-0.28888888888888886,-0.2953703703703704,-0.2861111111111111,-0.2861111111111111,-0.28888888888888886,-0.3212962962962963,-0.2824074074074074,-0.3148148148148148,-0.30185185185185187]","[1,1,1,1,1,1,1,1,1]","[0,0,0,0,0,0,0,0,0]","[0,0,0,0,0,0,0,0,0]","[6.195155000023078,6.893640000023879,7.195480000053067,7.561895000049844,7.94537000003038,8.561960000020918,8.977110000036191,9.410785000014585,9.994025000021793]","[""trial_sharp_left_box"",""trial_left_box"",""trial_slight_left_box"",""trial_ahead_box"",""trial_slight_right_box"",""trial_right_box"",""trial_sharp_right_box""]",0,76,76,92,1,staircase.jpg,skatepark7.jpg,tvstudio2.jpg,soccerfield2.jpg,,
Image_List_2,,,,,,,,,,,,,,,,44585,2020-11-25_14h45.14.168,lingCatScenes,2020.1.3,Win32,60,"[1920,1080]",,,"[""trial_right_box"",""trial_sharp_left_box""]",,,,,,,,,,,,cemetery6.jpg,space,6.973715,"[0.39814814814814814,-0.6055555555555555]","[-0.31203703703703706,-0.2851851851851852]","[1,1]","[0,0]","[0,0]","[4.856245000031777,6.55581000004895]","[""trial_right_box"",""trial_sharp_left_box""]",0,77,77,21,1,botanicalGarden6.jpg,campusquad3.jpg,cave5.jpg,beach1.jpeg,,
Image_List_2,,,,,,,,,,,,,,,,44585,2020-11-25_14h45.14.168,lingCatScenes,2020.1.3,Win32,60,"[1920,1080]",,,"[""trial_ahead_box"",""trial_slight_right_box"",""trial_sharp_left_box""]",,,,,,,,,,,,frontFoyer7.jpg,space,11.21098,"[0.002777777777777778,0.1814814814814815,-0.5990740740740741]","[-0.2953703703703704,-0.2953703703703704,-0.325]","[1,1,1]","[0,0,0]","[0,0,0]","[6.081160000001546,7.5476699999999255,10.380910000007134]","[""trial_ahead_box"",""trial_slight_right_box"",""trial_sharp_left_box""]",0,78,78,45,1,fittingroom2.jpg,factory1.jpg,forestpath4.jpg,dock4.jpg,,
Image_List_2,,,,,,,,,,,,,,,,44585,2020-11-25_14h45.14.168,lingCatScenes,2020.1.3,Win32,60,"[1920,1080]",,,"[""trial_slight_right_box"",""trial_left_box""]",,,,,,,,,,,,gasstation8.jpg,space,7.313725,"[0.21388888888888888,-0.4148148148148148]","[-0.29814814814814816,-0.32407407407407407]","[1,1]","[0,0]","[0,0]","[4.026699999987613,6.510455000039656]","[""trial_slight_right_box"",""trial_left_box""]",0,79,79,47,1,frontDoor.jpg,firestation4.jpg,fountain7.jpg,elevatorOutside2.jpg,,
Image_List_2,,,,,,,,,,,,,,,,44585,2020-11-25_14h45.14.168,lingCatScenes,2020.1.3,Win32,60,"[1920,1080]",,,"[""trial_ahead_box""]",,,,,,,,,,,,cornfield4.jpg,space,1.750595,[0],[-0.3055555555555556],[1],[0],[0],[1.2784349999856204],"[""trial_ahead_box""]",0,80,80,26,1,campusquad2.jpg,church4.jpg,churchInside3.jpg,botanicalGarden7.jpg,,
Image_List_2,,,,,,,,,,,,,,,,44585,2020-11-25_14h45.14.168,lingCatScenes,2020.1.3,Win32,60,"[1920,1080]",,,"[""trial_left_box"",""trial_slight_right_box""]",,,,,,,,,,,,desertvegetation3.jpg,space,5.34548,"[-0.37592592592592594,0.18518518518518517]","[-0.30185185185185187,-0.3148148148148148]","[1,1]","[0,0]","[0,0]","[3.908805000013672,4.892330000002403]","[""trial_left_box"",""trial_slight_right_box""]",0,81,81,30,1,courthouse1.jpg,clothingstore2.jpg,copyroom2.jpg,bus_shelter3.jpg,,
Image_List_2,,,,,,,,,,,,,,,,44585,2020-11-25_14h45.14.168,lingCatScenes,2020.1.3,Win32,60,"[1920,1080]",,,"[""trial_sharp_left_box"",""trial_sharp_right_box""]",,,,,,,,,,,,greenhouse5.jpg,space,7.25103,"[-0.5638888888888889,-0.5833333333333334,-0.5990740740740741,0.5898148148148148]","[-0.30185185185185187,-0.26944444444444443,-0.30462962962962964,-0.30185185185185187]","[1,1,1,1]","[0,0,0,0]","[0,0,0,0]","[3.5293599999858998,5.599054999998771,5.946110000018962,6.764154999982566]","[""trial_sharp_left_box"",""trial_sharp_right_box""]",0,82,82,49,1,frontDoor3.jpg,flowershop3.jpg,greenhouse.jpg,farm2.jpg,,
Image_List_2,,,,,,,,,,,,,,,,44585,2020-11-25_14h45.14.168,lingCatScenes,2020.1.3,Win32,60,"[1920,1080]",,,"[""trial_sharp_left_box"",""trial_slight_right_box"",""trial_slight_left_box""]",,,,,,,,,,,,campsite6.jpg,space,12.052635,"[-0.6055555555555555,-0.6092592592592593,-0.6055555555555555,0.20092592592592592,-0.18796296296296297]","[-0.29907407407407405,-0.29814814814814816,-0.28888888888888886,-0.28888888888888886,-0.28888888888888886]","[1,1,1,1,1]","[0,0,0,0,0]","[0,0,0,0,0]","[2.746704999997746,4.110749999992549,5.46127000002889,9.596175000013318,10.927825000020675]","[""trial_sharp_left_box"",""trial_sharp_left_box"",""trial_sharp_left_box"",""trial_slight_right_box"",""trial_slight_left_box""]",0,83,83,17,1,bikerack1.jpg,breakroom4.jpg,carmechanic.jpg,baseball6.jpg,,
Image_List_2,,,,,,,,,,,,,,,,44585,2020-11-25_14h45.14.168,lingCatScenes,2020.1.3,Win32,60,"[1920,1080]",,,[],,,,,,,,,,,,cliff3.jpg,space,4.598335,[],[],[],[],[],[],[],0,84,84,24,1,campsite.jpg,cave6.jpg,cemetery5.jpg,boardwalk.jpg,,
Image_List_2,,,,,,,,,,,,,,,,44585,2020-11-25_14h45.14.168,lingCatScenes,2020.1.3,Win32,60,"[1920,1080]",,,"[""trial_ahead_box"",""trial_slight_right_box"",""trial_right_box"",""trial_sharp_right_box"",""trial_slight_left_box"",""trial_left_box"",""trial_sharp_left_box""]",,,,,,,,,,,,golfcourse6.jpg,space,11.43978,"[-0.002777777777777778,0.2111111111111111,0.3787037037037037,0.4046296296296296,0.40185185185185185,0.6416666666666667,0.6157407407407407,-0.18425925925925926,-0.39537037037037037,-0.6351851851851852,-0.6157407407407407]","[-0.2851851851851852,-0.28888888888888886,-0.26296296296296295,-0.26944444444444443,-0.30833333333333335,-0.2824074074074074,-0.30185185185185187,-0.3212962962962963,-0.2953703703703704,-0.30185185185185187,-0.29907407407407405]","[1,1,1,1,1,1,1,1,1,1,1]","[0,0,0,0,0,0,0,0,0,0,0]","[0,0,0,0,0,0,0,0,0,0,0]","[2.9398199999704957,6.556674999999814,6.906689999974333,7.407709999999497,7.906749999965541,8.340120000008028,8.740649999992456,9.607299999974202,10.123819999978878,10.591944999992847,11.090849999978673]","[""trial_ahead_box"",""trial_slight_right_box"",""trial_right_box"",""trial_sharp_right_box"",""trial_slight_left_box"",""trial_left_box"",""trial_sharp_left_box""]",0,85,85,48,1,frontDoor2.jpg,fittingroom5.jpg,golfcourse7.jpg,fabricstore2.jpg,,
Image_List_2,,,,,,,,,,,,,,,,44585,2020-11-25_14h45.14.168,lingCatScenes,2020.1.3,Win32,60,"[1920,1080]",,,"[""trial_ahead_box""]",,,,,,,,,,,,theater2.jpg,space,1.646805,[-0.016666666666666666],[-0.3148148148148148],[1],[0],[0],[1.364319999993313],"[""trial_ahead_box""]",0,86,86,87,1,restaurantkitchen2.jpg,savanna.jpg,sculpturegarden2.jpg,RVinside2.jpg,,
Image_List_2,,,,,,,,,,,,,,,,44585,2020-11-25_14h45.14.168,lingCatScenes,2020.1.3,Win32,60,"[1920,1080]",,,"[""trial_ahead_box""]",,,,,,,,,,,,sidewalk5.jpg,space,1.157725,[-0.009259259259259259],[-0.32407407407407407],[1],[0],[0],[0.8407799999695271],"[""trial_ahead_box""]",0,87,87,85,1,recordingstudio4.jpg,ruralroad2.jpg,sandDunes_desert_outdoor3.jpg,rooftop3.jpg,,
Image_List_2,,,,,,,,,,,,,,,,44585,2020-11-25_14h45.14.168,lingCatScenes,2020.1.3,Win32,60,"[1920,1080]",,,"[""trial_left_box"",""trial_sharp_right_box""]",,,,,,,,,,,,bowlingalley3.jpg,space,4.35198,"[-0.40185185185185185,0.5861111111111111]","[-0.29907407407407405,-0.2861111111111111]","[1,1]","[0,0]","[0,0]","[1.899039999989327,4.065844999975525]","[""trial_left_box"",""trial_sharp_right_box""]",0,88,88,13,1,balconyIN2.jpg,beach2.jpg,boardwalk4.jpg,backyard6.jpg,,
Image_List_2,,,,,,,,,,,,,,,,44585,2020-11-25_14h45.14.168,lingCatScenes,2020.1.3,Win32,60,"[1920,1080]",,,"[""trial_ahead_box"",""trial_sharp_right_box"",""trial_right_box""]",,,,,,,,,,,,library_aisle8.jpg,space,6.937525,"[0.006481481481481481,0.6027777777777777,0.40185185185185185]","[-0.28888888888888886,-0.3111111111111111,-0.2759259259259259]","[1,1,1]","[0,0,0]","[0,0,0]","[1.706545000022743,4.939624999999069,5.9734649999882095]","[""trial_ahead_box"",""trial_sharp_right_box"",""trial_right_box""]",0,89,89,59,1,homegarden7.jpg,highway4.jpg,kindergarten_classroom5.jpg,grocerystore3.jpg,,
Image_List_2,,,,,,,,,,,,,,,,44585,2020-11-25_14h45.14.168,lingCatScenes,2020.1.3,Win32,60,"[1920,1080]",,,"[""trial_ahead_box""]",,,,,,,,,,,,dormroom9.jpg,space,6.321155,[0.006481481481481481],[-0.2796296296296296],[1],[0],[0],[3.760325000039302],"[""trial_ahead_box""]",0,90,90,36,1,diner14.jpg,dining_car3.jpg,doctor1.jpg,checkoutcounter9.jpg,,
Image_List_2,,,,,,,,,,,,,,,,44585,2020-11-25_14h45.14.168,lingCatScenes,2020.1.3,Win32,60,"[1920,1080]",,,"[""trial_slight_left_box"",""trial_ahead_box"",""trial_slight_right_box""]",,,,,,,,,,,,cave.jpg,space,12.131605,"[-0.2175925925925926,0.006481481481481481,0.21388888888888888]","[-0.2916666666666667,-0.2824074074074074,-0.2851851851851852]","[1,1,1]","[0,0,0]","[0,0,0]","[6.918089999991935,8.715359999972861,9.365724999981467]","[""trial_slight_left_box"",""trial_ahead_box"",""trial_slight_right_box""]",0,91,91,20,1,boardwalk6.jpg,campsite3.jpg,cave4.jpg,basketballcourt7.jpg,,
Image_List_2,,,,,,,,,,,,,,,,44585,2020-11-25_14h45.14.168,lingCatScenes,2020.1.3,Win32,60,"[1920,1080]",,,"[""trial_slight_right_box""]",,,,,,,,,,,,hardwarestore1.jpg,space,2.01685,[0.21666666666666667],[-0.29907407407407405],[1],[0],[0],[1.6792800000403076],"[""trial_slight_right_box""]",0,92,92,52,1,gasstation7.jpg,frontFoyer6.jpg,highway.jpg,forestpath2.jpg,,
Image_List_2,,,,,,,,,,,,,,,,44585,2020-11-25_14h45.14.168,lingCatScenes,2020.1.3,Win32,60,"[1920,1080]",,,"[""trial_left_box"",""trial_sharp_right_box""]",,,,,,,,,,,,park7.jpg,space,4.65026,"[-0.4083333333333333,0.612037037037037]","[-0.3175925925925926,-0.2861111111111111]","[1,1]","[0,0]","[0,0]","[3.4463600000017323,4.26282500004163]","[""trial_left_box"",""trial_sharp_right_box""]",0,93,93,67,1,library_aisle3.jpg,laundromat4.jpg,liquorstore2.jpg,hospitalroom2.jpg,,
Image_List_2,,,,,,,,,,,,,,,,44585,2020-11-25_14h45.14.168,lingCatScenes,2020.1.3,Win32,60,"[1920,1080]",,,"[""trial_slight_right_box""]",,,,,,,,,,,,hut3.jpg,space,4.74948,"[0.17777777777777778,0.175]","[-0.26944444444444443,-0.2916666666666667]","[1,1]","[0,0]","[0,0]","[1.9976699999533594,2.6823699999949895]","[""trial_slight_right_box""]",0,94,94,56,1,grocerystore5.jpg,golfcourse10.jpg,hut1.jpg,gasstation2.jpg,,
Image_List_2,,,,,,,,,,,,,,,,44585,2020-11-25_14h45.14.168,lingCatScenes,2020.1.3,Win32,60,"[1920,1080]",,,"[""trial_left_box"",""trial_right_box""]",,,,,,,,,,,,banquetHall2.jpg,space,2.92896,"[-0.4111111111111111,0.3851851851851852]","[-0.30833333333333335,-0.2916666666666667]","[1,1]","[0,0]","[0,0]","[1.541849999979604,2.6272599999792874]","[""trial_left_box"",""trial_right_box""]",0,95,95,6,1,ATM1.jpg,auto_showroom5.jpg,baggageClaim1.jpg,apartmentBuilding3.jpg,,
Image_List_2,,,,,,,,,,,,,,,,44585,2020-11-25_14h45.14.168,lingCatScenes,2020.1.3,Win32,60,"[1920,1080]",,,"[""trial_ahead_box""]",,,,,,,,,,,,metroInside4.jpg,space,1.51805,[-0.022222222222222223],[-0.2953703703703704],[1],[0],[0],[1.2249099999899045],"[""trial_ahead_box""]",0,96,96,61,1,HorseRaceTrack.jpg,homegarden6.jpg,kindergarten_classroom7.jpg,hayfield6.jpg,,
Image_List_2,,,,,,,,,,,,,,,,44585,2020-11-25_14h45.14.168,lingCatScenes,2020.1.3,Win32,60,"[1920,1080]",,,"[""trial_slight_right_box""]",,,,,,,,,,,,frontFoyer4.jpg,space,1.885875,"[0.19074074074074074,0.18796296296296297]","[-0.26296296296296295,-0.28888888888888886]","[1,1]","[0,0]","[0,0]","[1.279999999969732,1.6302099999738857]","[""trial_slight_right_box""]",0,97,97,44,1,firestation2.jpg,elevatorOutside1.jpg,foodcourt6.jpg,dock2.jpg,,
Image_List_2,,,,,,,,,,,,,,,,44585,2020-11-25_14h45.14.168,lingCatScenes,2020.1.3,Win32,60,"[1920,1080]",,,"[""trial_left_box""]",,,,,,,,,,,,horsebarn11.jpg,space,1.666685,[-0.39537037037037037],[-0.2851851851851852],[1],[0],[0],[1.428200000023935],"[""trial_left_box""]",0,98,98,54,1,greenhouse2.jpg,gazebo2.jpg,homegarage4.jpg,frontFoyer.jpg,,
Image_List_2,,,,,,,,,,,,,,,,44585,2020-11-25_14h45.14.168,lingCatScenes,2020.1.3,Win32,60,"[1920,1080]",,,"[""trial_right_box"",""trial_sharp_left_box""]",,,,,,,,,,,,arcade1.jpg,space,5.33371,"[0.37592592592592594,0.4148148148148148,-0.6287037037037037,-0.5796296296296296]","[-0.26944444444444443,-0.29907407407407405,-0.29259259259259257,-0.29814814814814816]","[1,1,1,1]","[0,0,0,0]","[0,0,0,0]","[1.513199999986682,2.4796799999894574,3.363070000021253,4.8147400000016205]","[""trial_right_box"",""trial_sharp_left_box""]",0,99,99,2,1,alley1.jpg,applestore6.jpg,apartmentBuilding4.jpg,airportTerminal6.jpg,,
Image_List_2,,,,,,,,,,,,,,,,44585,2020-11-25_14h45.14.168,lingCatScenes,2020.1.3,Win32,60,,,,,,,,,,,,,,,,,,,,,,,,,,,,,,,,,,,space,16.636115
