image_list,key_resp_intructions.keys,key_resp_intructions.rt,key_resp_intructions_3.keys,key_resp_intructions_3.rt,PracticeComplete_2.keys,PracticeComplete_2.rt,PracticeComplete_3.keys,PracticeComplete_3.rt,demo_trials.thisRepN,demo_trials.thisTrialN,demo_trials.thisN,demo_trials.thisIndex,demo_trials.ran,demo_images,path_images,participant,date,expName,psychopyVersion,OS,frameRate,windowSize,practice_complete.keys,practice_complete.rt,boxes_checked,PracticeComplete.keys,PracticeComplete.rt,practice_trials.thisRepN,practice_trials.thisTrialN,practice_trials.thisN,practice_trials.thisIndex,practice_trials.ran,practice_images,feedback_images,key_resp_intructions_2.keys,key_resp_intructions_2.rt,Image_List_3,trial_complete.keys,trial_complete.rt,trial_mouse.x,trial_mouse.y,trial_mouse.leftButton,trial_mouse.midButton,trial_mouse.rightButton,trial_mouse.time,trial_mouse.clicked_name,trials.thisRepN,trials.thisTrialN,trials.thisN,trials.thisIndex,trials.ran,Image_List_1,Image_List_2,Image_List_4,Image_List_5,key_resp.keys,key_resp.rt
Image_List_3,space,17.212465,space,2.611565,space,0.262705,space,0.28512,0,0,0,5,1,right.jpg,right_path.jpg,44584,2020-11-19_18h07.26.873,lingCatScenes,2020.1.3,Win32,60,,,,,,,,,,,,,,,,,,,,,,,,,,,,,,,,,,,,
Image_List_3,,,,,space,0.00105,space,0.00066,0,1,1,1,1,ahead_left.jpg,ahead_left_path.jpg,44584,2020-11-19_18h07.26.873,lingCatScenes,2020.1.3,Win32,60,,,,,,,,,,,,,,,,,,,,,,,,,,,,,,,,,,,,
Image_List_3,,,,,space,0.37824,space,0.335825,0,2,2,6,1,right_left.jpg,right_left_path.jpg,44584,2020-11-19_18h07.26.873,lingCatScenes,2020.1.3,Win32,60,,,,,,,,,,,,,,,,,,,,,,,,,,,,,,,,,,,,
Image_List_3,,,,,space,0.34338,space,0.22742,0,3,3,4,1,left.jpg,left_path.jpg,44584,2020-11-19_18h07.26.873,lingCatScenes,2020.1.3,Win32,60,,,,,,,,,,,,,,,,,,,,,,,,,,,,,,,,,,,,
Image_List_3,,,,,space,0.284105,space,0.27936,0,4,4,2,1,ahead_right.jpg,ahead_right_path.jpg,44584,2020-11-19_18h07.26.873,lingCatScenes,2020.1.3,Win32,60,,,,,,,,,,,,,,,,,,,,,,,,,,,,,,,,,,,,
Image_List_3,,,,,space,0.2546,space,0.23492,0,5,5,0,1,ahead.jpg,ahead_path.jpg,44584,2020-11-19_18h07.26.873,lingCatScenes,2020.1.3,Win32,60,,,,,,,,,,,,,,,,,,,,,,,,,,,,,,,,,,,,
Image_List_3,,,,,space,0.189395,space,0.190575,0,6,6,3,1,ahead_right_left.jpg,ahead_right_left_path.jpg,44584,2020-11-19_18h07.26.873,lingCatScenes,2020.1.3,Win32,60,,,,,,,,,,,,,,,,,,,,,,,,,,,,,,,,,,,,
Image_List_3,,,,,,,,,,,,,,,,44584,2020-11-19_18h07.26.873,lingCatScenes,2020.1.3,Win32,60,"[1366,625]",space,0.23524,[],space,0.486365,0,0,0,2,1,ahead_right_2.jpg,ahead_right_2_path.jpg,,,,,,,,,,,,,,,,,,,,,,,
Image_List_3,,,,,,,,,,,,,,,,44584,2020-11-19_18h07.26.873,lingCatScenes,2020.1.3,Win32,60,"[1366,625]",space,0.389585,[],space,0.463685,0,1,1,1,1,ahead_left_2.jpg,ahead_left_2_path.jpg,,,,,,,,,,,,,,,,,,,,,,,
Image_List_3,,,,,,,,,,,,,,,,44584,2020-11-19_18h07.26.873,lingCatScenes,2020.1.3,Win32,60,"[1366,625]",space,3.32618,[],space,0.56474,0,2,2,4,1,left_2.jpg,left_2_path.jpg,,,,,,,,,,,,,,,,,,,,,,,
Image_List_3,,,,,,,,,,,,,,,,44584,2020-11-19_18h07.26.873,lingCatScenes,2020.1.3,Win32,60,"[1366,625]",space,0.64524,[],space,0.44398,0,3,3,3,1,ahead_right_left_2.jpg,ahead_right_left_2_path.jpg,,,,,,,,,,,,,,,,,,,,,,,
Image_List_3,,,,,,,,,,,,,,,,44584,2020-11-19_18h07.26.873,lingCatScenes,2020.1.3,Win32,60,"[1366,625]",space,0.65614,[],space,0.712845,0,4,4,0,1,ahead_2.jpg,ahead_2_path.jpg,,,,,,,,,,,,,,,,,,,,,,,
Image_List_3,,,,,,,,,,,,,,,,44584,2020-11-19_18h07.26.873,lingCatScenes,2020.1.3,Win32,60,"[1366,625]",space,1.19325,[],space,3.17861,0,5,5,5,1,right_2.jpg,right_2_path.jpg,,,,,,,,,,,,,,,,,,,,,,,
Image_List_3,,,,,,,,,,,,,,,,44584,2020-11-19_18h07.26.873,lingCatScenes,2020.1.3,Win32,60,"[1366,625]",space,0.47637,[],space,0.52342,0,6,6,6,1,right_left_2.jpg,right_left_2_path.jpg,,,,,,,,,,,,,,,,,,,,,,,
Image_List_3,,,,,,,,,,,,,,,,44584,2020-11-19_18h07.26.873,lingCatScenes,2020.1.3,Win32,60,"[1366,625]",,,"[""trial_right_box""]",,,,,,,,,,space,1.462455,citystreet10.jpg,space,4.267355,[0.4192],[-0.3048],[1],[0],[0],[3.273044999998092],"[""trial_right_box""]",0,0,0,28,1,churchInside1.jpg,dancestudio5.jpg,clothingstore5.jpg,bridalboutique2.jpg,,
Image_List_3,,,,,,,,,,,,,,,,44584,2020-11-19_18h07.26.873,lingCatScenes,2020.1.3,Win32,60,"[1366,625]",,,"[""trial_right_box"",""trial_left_box""]",,,,,,,,,,,,auto_showroom1.jpg,space,3.7933,"[0.4144,-0.3568,-0.4064]","[-0.2936,-0.3064,-0.3]","[1,1,1]","[0,0,0]","[0,0,0]","[1.4274499999992258,2.5612849999997707,3.1438149999994494]","[""trial_right_box"",""trial_left_box""]",0,1,1,4,1,artStudio1.jpg,baggageClaim2.jpg,appleorchard3.jpg,alley4.jpg,,
Image_List_3,,,,,,,,,,,,,,,,44584,2020-11-19_18h07.26.873,lingCatScenes,2020.1.3,Win32,60,"[1366,625]",,,"[""trial_slight_right_box""]",,,,,,,,,,,,flowershop3.jpg,space,2.74221,[0.1952],[-0.2888],[1],[0],[0],[2.1445049999965704],"[""trial_slight_right_box""]",0,2,2,49,1,frontDoor3.jpg,greenhouse5.jpg,greenhouse.jpg,farm2.jpg,,
Image_List_3,,,,,,,,,,,,,,,,44584,2020-11-19_18h07.26.873,lingCatScenes,2020.1.3,Win32,60,"[1366,625]",,,"[""trial_ahead_box"",""trial_left_box"",""trial_right_box""]",,,,,,,,,,,,highway4.jpg,space,4.82847,"[0.0208,-0.376,0.4048]","[-0.2984,-0.2872,-0.3192]","[1,1,1]","[0,0,0]","[0,0,0]","[1.5629249999983585,3.312385000001086,4.295659999999771]","[""trial_ahead_box"",""trial_left_box"",""trial_right_box""]",0,3,3,59,1,homegarden7.jpg,library_aisle8.jpg,kindergarten_classroom5.jpg,grocerystore3.jpg,,
Image_List_3,,,,,,,,,,,,,,,,44584,2020-11-19_18h07.26.873,lingCatScenes,2020.1.3,Win32,60,"[1366,625]",,,"[""trial_left_box"",""trial_right_box""]",,,,,,,,,,,,playground9.jpg,space,5.070125,"[-0.4096,0.4,0.4176]","[-0.3048,-0.332,-0.2936]","[1,1,1]","[0,0,0]","[0,0,0]","[3.0779750000001513,4.0946249999979045,4.761145000000397]","[""trial_left_box"",""trial_right_box""]",0,4,4,79,1,pasture.jpg,poolhall2.jpeg,pier2.jpg,observatory2.jpg,,
Image_List_3,,,,,,,,,,,,,,,,44584,2020-11-19_18h07.26.873,lingCatScenes,2020.1.3,Win32,60,"[1366,625]",,,"[""trial_right_box"",""trial_left_box""]",,,,,,,,,,,,clothingstore2.jpg,space,2.73367,"[0.4176,-0.408]","[-0.2936,-0.2952]","[1,1]","[0,0]","[0,0]","[0.8282399999989138,2.4446250000000873]","[""trial_right_box"",""trial_left_box""]",0,5,5,30,1,courthouse1.jpg,desertvegetation3.jpg,copyroom2.jpg,bus_shelter3.jpg,,
Image_List_3,,,,,,,,,,,,,,,,44584,2020-11-19_18h07.26.873,lingCatScenes,2020.1.3,Win32,60,"[1366,625]",,,"[""trial_right_box""]",,,,,,,,,,,,homegarage.jpg,space,2.226865,"[0.3648,0.3904]","[-0.2808,-0.2904]","[1,1]","[0,0]","[0,0]","[1.3118200000026263,1.9278900000026624]","[""trial_right_box""]",0,6,6,60,1,hometheater2.jpg,lightingstore3.jpg,kindergarten_classroom6.jpg,hallway.jpg,,
Image_List_3,,,,,,,,,,,,,,,,44584,2020-11-19_18h07.26.873,lingCatScenes,2020.1.3,Win32,60,"[1366,625]",,,"[""trial_right_box"",""trial_left_box""]",,,,,,,,,,,,firestation4.jpg,space,3.449055,"[0.3904,-0.3808]","[-0.2904,-0.2968]","[1,1]","[0,0]","[0,0]","[1.194565000001603,3.09516000000076]","[""trial_right_box"",""trial_left_box""]",0,7,7,47,1,frontDoor.jpg,gasstation8.jpg,fountain7.jpg,elevatorOutside2.jpg,,
Image_List_3,,,,,,,,,,,,,,,,44584,2020-11-19_18h07.26.873,lingCatScenes,2020.1.3,Win32,60,"[1366,625]",,,"[""trial_left_box"",""trial_right_box""]",,,,,,,,,,,,church3.jpg,space,3.91444,"[-0.3888,-0.416,0.3776]","[-0.3288,-0.3064,-0.2888]","[1,1,1]","[0,0,0]","[0,0,0]","[1.8283550000014657,2.5446049999991374,3.6112800000009884]","[""trial_left_box"",""trial_right_box""]",0,8,8,25,1,campsite7.jpg,conference3.jpg,checkoutcounter2.jpg,botanicalGarden4.jpg,,
Image_List_3,,,,,,,,,,,,,,,,44584,2020-11-19_18h07.26.873,lingCatScenes,2020.1.3,Win32,60,"[1366,625]",,,"[""trial_slight_right_box"",""trial_ahead_box""]",,,,,,,,,,,,ruralroad2.jpg,space,8.04416,"[0.1648,0.1776,0.4224,0.4224,0.0064]","[-0.3,-0.3016,-0.3016,-0.3016,-0.3112]","[1,1,1,1,1]","[0,0,0,0,0]","[0,0,0,0,0]","[1.99635500000295,2.8294700000005832,5.779115000001184,6.395720000000438,7.5284000000028755]","[""trial_slight_right_box"",""trial_right_box"",""trial_right_box"",""trial_ahead_box""]",0,9,9,85,1,recordingstudio4.jpg,sidewalk5.jpg,sandDunes_desert_outdoor3.jpg,rooftop3.jpg,,
Image_List_3,,,,,,,,,,,,,,,,44584,2020-11-19_18h07.26.873,lingCatScenes,2020.1.3,Win32,60,"[1366,625]",,,"[""trial_left_box"",""trial_right_box""]",,,,,,,,,,,,gazebo5.jpg,space,4.358395,"[-0.2112,-0.3872,0.376,0.3952]","[-0.3304,-0.2936,-0.2744,-0.2904]","[1,1,1,1]","[0,0,0,0]","[0,0,0,0]","[1.2441149999976915,2.2106949999979406,3.2773099999976694,4.043649999999616]","[""trial_left_box"",""trial_right_box""]",0,10,10,55,1,greenmountains.jpg,hotelRoom3.jpg,hotelRoom7.jpg,frontLawn2.jpg,,
Image_List_3,,,,,,,,,,,,,,,,44584,2020-11-19_18h07.26.873,lingCatScenes,2020.1.3,Win32,60,"[1366,625]",,,"[""trial_right_box"",""trial_left_box""]",,,,,,,,,,,,courthouse2.jpg,space,3.30258,"[0.3952,-0.3872]","[-0.2904,-0.276]","[1,1]","[0,0]","[0,0]","[0.9953549999991083,3.011449999998149]","[""trial_right_box"",""trial_left_box""]",0,11,11,33,1,deck1.jpg,diningroom1.jpg,diner10.jpg,cabinIndoors5.jpg,,
Image_List_3,,,,,,,,,,,,,,,,44584,2020-11-19_18h07.26.873,lingCatScenes,2020.1.3,Win32,60,"[1366,625]",,,"[""trial_left_box"",""trial_right_box""]",,,,,,,,,,,,gazebo2.jpg,space,2.426415,"[-0.3872,0.424]","[-0.276,-0.308]","[1,1]","[0,0]","[0,0]","[1.0277999999998428,2.144094999999652]","[""trial_left_box"",""trial_right_box""]",0,12,12,54,1,greenhouse2.jpg,horsebarn11.jpg,homegarage4.jpg,frontFoyer.jpg,,
Image_List_3,,,,,,,,,,,,,,,,44584,2020-11-19_18h07.26.873,lingCatScenes,2020.1.3,Win32,60,"[1366,625]",,,"[""trial_right_box""]",,,,,,,,,,,,aquarium1.jpg,space,3.986155,[0.424],[-0.308],[1],[0],[0],[3.5445550000004005],"[""trial_right_box""]",0,13,13,3,1,apartmentBuilding2.jpg,attic1.jpg,appleorchard2.jpg,alley3.jpg,,
Image_List_3,,,,,,,,,,,,,,,,44584,2020-11-19_18h07.26.873,lingCatScenes,2020.1.3,Win32,60,"[1366,625]",,,"[""trial_right_box"",""trial_slight_left_box""]",,,,,,,,,,,,staircase6.jpg,space,4.878945,"[0.424,-0.192]","[-0.308,-0.3128]","[1,1]","[0,0]","[0,0]","[1.5767349999987346,4.543289999997796]","[""trial_right_box"",""trial_slight_left_box""]",0,14,14,94,1,treehouse.jpg,waitingroom3.jpg,weightroom.jpg,trainStation3.jpg,,
Image_List_3,,,,,,,,,,,,,,,,44584,2020-11-19_18h07.26.873,lingCatScenes,2020.1.3,Win32,60,"[1366,625]",,,"[""trial_left_box""]",,,,,,,,,,,,windmill2.jpg,space,7.725365,"[-0.4016,0.4,0.4016,0.4016]","[-0.3016,-0.268,-0.2792,-0.2792]","[1,1,1,1]","[0,0,0,0]","[0,0,0,0]","[1.9112900000000081,4.977165000000241,5.627274999998917,6.727455000000191]","[""trial_left_box"",""trial_right_box"",""trial_right_box""]",0,15,15,99,1,wineVineyard9.jpg,yogastudio4.jpg,wrestlingring7.jpg,yogastudio1.jpg,,
Image_List_3,,,,,,,,,,,,,,,,44584,2020-11-19_18h07.26.873,lingCatScenes,2020.1.3,Win32,60,"[1366,625]",,,"[""trial_ahead_box""]",,,,,,,,,,,,appleorchard4.jpg,space,7.17404,"[0.1648,0.1728,-0.032,-0.0112,0.1792,0.1792]","[-0.2968,-0.2968,-0.2936,-0.2936,-0.2872,-0.2872]","[1,1,1,1,1,1]","[0,0,0,0,0,0]","[0,0,0,0,0,0]","[1.744634999999107,2.4611100000001898,3.261435000000347,3.8278449999997974,4.810944999997446,6.177284999997937]","[""trial_ahead_box"",""trial_slight_right_box"",""trial_slight_right_box""]",0,16,16,0,1,airplanecabin1.jpg,alley2.jpg,airplanecabin5.jpg,airplanecabin3.jpg,,
Image_List_3,,,,,,,,,,,,,,,,44584,2020-11-19_18h07.26.873,lingCatScenes,2020.1.3,Win32,60,"[1366,625]",,,"[""trial_slight_right_box"",""trial_left_box""]",,,,,,,,,,,,sculpturegarden4.jpg,space,7.058655,"[0.2192,-0.3552,-0.3952,0.4352]","[-0.2872,-0.3032,-0.2968,-0.292]","[1,1,1,1]","[0,0,0,0]","[0,0,0,0]","[1.7779000000009546,3.511109999999462,4.044259999998758,5.993965000001481]","[""trial_slight_right_box"",""trial_left_box""]",0,17,17,88,1,rooftop1.jpg,track.jpg,soccerfield.jpg,sandbox.jpg,,
Image_List_3,,,,,,,,,,,,,,,,44584,2020-11-19_18h07.26.873,lingCatScenes,2020.1.3,Win32,60,"[1366,625]",,,"[""trial_left_box"",""trial_right_box""]",,,,,,,,,,,,campsite3.jpg,space,3.535035,"[-0.392,0.3776]","[-0.2968,-0.3208]","[1,1]","[0,0]","[0,0]","[1.8629949999995006,2.9462450000028184]","[""trial_left_box"",""trial_right_box""]",0,18,18,20,1,boardwalk6.jpg,cave.jpg,cave4.jpg,basketballcourt7.jpg,,
Image_List_3,,,,,,,,,,,,,,,,44584,2020-11-19_18h07.26.873,lingCatScenes,2020.1.3,Win32,60,"[1366,625]",,,"[""trial_right_box""]",,,,,,,,,,,,farmersmarket4.jpg,space,2.03129,[0.416],[-0.2904],[1],[0],[0],[1.5620049999997718],"[""trial_right_box""]",0,19,19,46,1,flowershop.jpg,frontLawn5.jpg,fountain4.jpg,dormroom6.jpg,,
Image_List_3,,,,,,,,,,,,,,,,44584,2020-11-19_18h07.26.873,lingCatScenes,2020.1.3,Win32,60,"[1366,625]",,,"[""trial_ahead_box""]",,,,,,,,,,,,backstage1.jpg,space,2.265005,[0],[-0.316],[1],[0],[0],[1.9446349999998347],"[""trial_ahead_box""]",0,20,20,7,1,attic2.jpg,banquetHall4.jpg,baggageClaim3.jpg,applestore2.jpg,,
Image_List_3,,,,,,,,,,,,,,,,44584,2020-11-19_18h07.26.873,lingCatScenes,2020.1.3,Win32,60,"[1366,625]",,,"[""trial_ahead_box""]",,,,,,,,,,,,porch.jpg,space,1.35986,[0],[-0.316],[1],[0],[0],[1.0299599999998463],"[""trial_ahead_box""]",0,21,21,80,1,pavilion2.jpg,racecarcourse2.jpg,poolhall5.jpg,parkinggarage4.jpg,,
Image_List_3,,,,,,,,,,,,,,,,44584,2020-11-19_18h07.26.873,lingCatScenes,2020.1.3,Win32,60,"[1366,625]",,,"[""trial_left_box""]",,,,,,,,,,,,conference4.jpg,space,4.16841,"[-0.424,0.408,0.408]","[-0.2872,-0.3112,-0.3112]","[1,1,1]","[0,0,0]","[0,0,0]","[1.7462649999979476,3.11274499999854,3.7129800000002433]","[""trial_left_box"",""trial_right_box"",""trial_right_box""]",0,22,22,31,1,cubicle4.jpg,desertvegetation6.jpg,courtroom2.jpg,cabin3.jpg,,
Image_List_3,,,,,,,,,,,,,,,,44584,2020-11-19_18h07.26.873,lingCatScenes,2020.1.3,Win32,60,"[1366,625]",,,"[""trial_ahead_box""]",,,,,,,,,,,,pasture9.jpg,space,3.38476,[0.0048],[-0.3],[1],[0],[0],[1.8613599999989674],"[""trial_ahead_box""]",0,23,23,77,1,parkinggarage2.jpg,playroom6.jpg,park8.jpg,mallindoor6.jpg,,
Image_List_3,,,,,,,,,,,,,,,,44584,2020-11-19_18h07.26.873,lingCatScenes,2020.1.3,Win32,60,"[1366,625]",,,"[""trial_slight_left_box"",""trial_slight_right_box"",""trial_right_box"",""trial_sharp_left_box""]",,,,,,,,,,,,campusquad3.jpg,space,11.63833,"[-0.2224,0.2128,0.5248,0.44,0.44,0.4208,-0.5888]","[-0.2904,-0.3192,-0.308,-0.3096,-0.3096,-0.3096,-0.3208]","[1,1,1,1,1,1,1]","[0,0,0,0,0,0,0]","[0,0,0,0,0,0,0]","[5.776514999997744,7.509479999996984,8.109574999998586,8.809324999998353,9.575684999999794,10.008889999997336,11.04211999999825]","[""trial_slight_left_box"",""trial_slight_right_box"",""trial_right_box"",""trial_sharp_left_box""]",0,24,24,21,1,botanicalGarden6.jpg,cemetery6.jpg,cave5.jpg,beach1.jpeg,,
Image_List_3,,,,,,,,,,,,,,,,44584,2020-11-19_18h07.26.873,lingCatScenes,2020.1.3,Win32,60,"[1366,625]",,,"[""trial_sharp_left_box"",""trial_ahead_box"",""trial_sharp_right_box""]",,,,,,,,,,,,frontDoor5.jpg,space,6.79815,"[-0.6544,-0.5872,-0.0032,0.6064]","[-0.3144,-0.3176,-0.3144,-0.2984]","[1,1,1,1]","[0,0,0,0]","[0,0,0,0]","[2.8290650000017195,4.628704999999172,5.495210000000952,6.561775000001944]","[""trial_sharp_left_box"",""trial_ahead_box"",""trial_sharp_right_box""]",0,25,25,51,1,gasstation6.jpg,hallway5.jpg,hayfield4.jpg,firestation5.jpg,,
Image_List_3,,,,,,,,,,,,,,,,44584,2020-11-19_18h07.26.873,lingCatScenes,2020.1.3,Win32,60,"[1366,625]",,,"[""trial_sharp_right_box"",""trial_left_box"",""trial_slight_left_box""]",,,,,,,,,,,,skatepark5.jpg,space,5.570755,"[0.6064,-0.3824,-0.1888]","[-0.2984,-0.3096,-0.3224]","[1,1,1]","[0,0,0]","[0,0,0]","[1.8279249999977765,3.5608349999965867,4.92727499999819]","[""trial_sharp_right_box"",""trial_left_box"",""trial_slight_left_box""]",0,26,26,91,1,shoestore2.jpg,trainStation5.jpg,ticket_counter6.jpg,sidewalk3.jpg,,
Image_List_3,,,,,,,,,,,,,,,,44584,2020-11-19_18h07.26.873,lingCatScenes,2020.1.3,Win32,60,"[1366,625]",,,"[""trial_slight_left_box"",""trial_slight_right_box"",""trial_ahead_box""]",,,,,,,,,,,,parkinggarage3.jpg,space,6.813535,"[-0.1888,0.216,0.0032]","[-0.3224,-0.3144,-0.3064]","[1,1,1]","[0,0,0]","[0,0,0]","[1.7617099999988568,3.627730000000156,5.560449999997218]","[""trial_slight_left_box"",""trial_slight_right_box"",""trial_ahead_box""]",0,27,27,76,1,parkinggarage.jpg,playroom4.jpg,park2.jpg,lookout4.jpg,,
Image_List_3,,,,,,,,,,,,,,,,44584,2020-11-19_18h07.26.873,lingCatScenes,2020.1.3,Win32,60,"[1366,625]",,,[],,,,,,,,,,,,hedgemaze1.jpg,space,5.789845,[],[],[],[],[],[],[],0,28,28,58,1,highway7.jpg,lab1.jpg,igloo4.jpg,grocerystore2.jpg,,
Image_List_3,,,,,,,,,,,,,,,,44584,2020-11-19_18h07.26.873,lingCatScenes,2020.1.3,Win32,60,"[1366,625]",,,"[""trial_right_box""]",,,,,,,,,,,,lockerroom3.jpg,space,4.588565,[0.4064],[-0.3128],[1],[0],[0],[2.2128149999989546],"[""trial_right_box""]",0,29,29,70,1,lockerroom4.jpg,pavilion.jpg,minigolf8.jpg,igloo.jpg,,
Image_List_3,,,,,,,,,,,,,,,,44584,2020-11-19_18h07.26.873,lingCatScenes,2020.1.3,Win32,60,"[1366,625]",,,"[""trial_left_box"",""trial_right_box""]",,,,,,,,,,,,metroInside3.jpg,space,6.566365,"[-0.4032,0.3728,0.3792]","[-0.2936,-0.2904,-0.2904]","[1,1,1]","[0,0,0]","[0,0,0]","[4.4439800000000105,5.560245000000577,6.293670000002749]","[""trial_left_box"",""trial_right_box""]",0,30,30,71,1,metroInside2.jpg,pavilion5.jpg,museum3.jpg,jewelrystore.jpg,,
Image_List_3,,,,,,,,,,,,,,,,44584,2020-11-19_18h07.26.873,lingCatScenes,2020.1.3,Win32,60,"[1366,625]",,,"[""trial_left_box""]",,,,,,,,,,,,constructionSite2.jpg,space,3.981725,"[-0.3632,-0.4032]","[-0.2872,-0.2952]","[1,1]","[0,0]","[0,0]","[2.1298900000001595,2.8465849999993225]","[""trial_left_box""]",0,31,31,32,1,dancestudio6.jpg,diner12.jpg,dentist4.jpg,cabin4.jpg,,
Image_List_3,,,,,,,,,,,,,,,,44584,2020-11-19_18h07.26.873,lingCatScenes,2020.1.3,Win32,60,"[1366,625]",,,"[""trial_ahead_box""]",,,,,,,,,,,,hallway4.jpg,space,2.518975,"[-0.0528,-0.008]","[-0.3144,-0.3048]","[1,1]","[0,0]","[0,0]","[1.628790000002482,2.212054999999964]","[""trial_ahead_box""]",0,32,32,57,1,hayfield5.jpg,jail1.jpg,hut5.jpg,gazebo.jpg,,
Image_List_3,,,,,,,,,,,,,,,,44584,2020-11-19_18h07.26.873,lingCatScenes,2020.1.3,Win32,60,"[1366,625]",,,"[""trial_ahead_box""]",,,,,,,,,,,,bambooforest3.jpg,space,1.36087,[-0.008],[-0.3048],[1],[0],[0],[1.0280300000013085],"[""trial_ahead_box""]",0,33,33,11,1,backyard2.jpg,basketballcourt4.jpg,baywindow5.jpg,backyard1.jpg,,
Image_List_3,,,,,,,,,,,,,,,,44584,2020-11-19_18h07.26.873,lingCatScenes,2020.1.3,Win32,60,"[1366,625]",,,"[""trial_right_box""]",,,,,,,,,,,,lightingstore4.jpg,space,2.74986,"[0.3648,0.416]","[-0.3096,-0.3064]","[1,1]","[0,0]","[0,0]","[1.8442399999985355,2.427079999997659]","[""trial_right_box""]",0,34,34,68,1,liquorstore7.jpg,parkinglot.jpg,lockerroom2.jpg,hospitalroom3.jpg,,
Image_List_3,,,,,,,,,,,,,,,,44584,2020-11-19_18h07.26.873,lingCatScenes,2020.1.3,Win32,60,"[1366,625]",,,"[""trial_left_box"",""trial_sharp_right_box""]",,,,,,,,,,,,observatory4.jpeg,space,4.77557,"[-0.408,0.6288,0.608]","[-0.2904,-0.3112,-0.3]","[1,1,1]","[0,0,0]","[0,0,0]","[1.5940950000003795,3.210960000000341,4.327414999999746]","[""trial_left_box"",""trial_sharp_right_box""]",0,35,35,74,1,newsstand2.jpg,playground10.jpg,operatingroom1.jpg,lightingstore2.jpg,,
Image_List_3,,,,,,,,,,,,,,,,44584,2020-11-19_18h07.26.873,lingCatScenes,2020.1.3,Win32,60,"[1366,625]",,,"[""trial_left_box"",""trial_slight_left_box"",""trial_ahead_box"",""trial_slight_right_box""]",,,,,,,,,,,,cave6.jpg,space,13.66574,"[-0.4032,-0.2272,-0.1968,0.0016,0.192,0.2016]","[-0.292,-0.3128,-0.3032,-0.3,-0.2744,-0.308]","[1,1,1,1,1,1]","[0,0,0,0,0,0]","[0,0,0,0,0,0]","[8.276734999999462,9.709599999998318,10.509769999996934,11.526364999997895,12.225749999997788,12.875824999999168]","[""trial_left_box"",""trial_slight_left_box"",""trial_ahead_box"",""trial_slight_right_box""]",0,36,36,24,1,campsite.jpg,cliff3.jpg,cemetery5.jpg,boardwalk.jpg,,
Image_List_3,,,,,,,,,,,,,,,,44584,2020-11-19_18h07.26.873,lingCatScenes,2020.1.3,Win32,60,"[1366,625]",,,"[""trial_ahead_box""]",,,,,,,,,,,,restaurant13.jpg,space,2.66647,[0.0144],[-0.2904],[1],[0],[0],[2.194405000002007],"[""trial_ahead_box""]",0,37,37,84,1,readingroom5.jpg,sidewalk2.jpg,sandDunes_desert_outdoor.jpg,rooftop2.jpg,,
Image_List_3,,,,,,,,,,,,,,,,44584,2020-11-19_18h07.26.873,lingCatScenes,2020.1.3,Win32,60,"[1366,625]",,,"[""trial_ahead_box""]",,,,,,,,,,,,breakroom4.jpg,space,2.396655,[0.0144],[-0.2904],[1],[0],[0],[1.080760000000737],"[""trial_ahead_box""]",0,38,38,17,1,bikerack1.jpg,campsite6.jpg,carmechanic.jpg,baseball6.jpg,,
Image_List_3,,,,,,,,,,,,,,,,44584,2020-11-19_18h07.26.873,lingCatScenes,2020.1.3,Win32,60,"[1366,625]",,,"[""trial_slight_left_box"",""trial_right_box""]",,,,,,,,,,,,factory1.jpg,space,5.780595,"[-0.2272,-0.2064,0.4272,0.4112]","[-0.3256,-0.3096,-0.2744,-0.3032]","[1,1,1,1]","[0,0,0,0]","[0,0,0,0]","[1.8117850000016915,2.6614900000022317,4.511190000001079,5.32725500000015]","[""trial_slight_left_box"",""trial_right_box""]",0,39,39,45,1,fittingroom2.jpg,frontFoyer7.jpg,forestpath4.jpg,dock4.jpg,,
Image_List_3,,,,,,,,,,,,,,,,44584,2020-11-19_18h07.26.873,lingCatScenes,2020.1.3,Win32,60,"[1366,625]",,,"[""trial_ahead_box"",""trial_left_box""]",,,,,,,,,,,,ShowJumping7.jpg,space,5.54543,"[0.0128,-0.3952]","[-0.292,-0.2984]","[1,1]","[0,0]","[0,0]","[3.0281599999980244,4.161254999999073]","[""trial_ahead_box"",""trial_left_box""]",0,40,40,89,1,ruralroad7.jpg,track5.jpg,staircase7.jpg,sculpturegarden3.jpg,,
Image_List_3,,,,,,,,,,,,,,,,44584,2020-11-19_18h07.26.873,lingCatScenes,2020.1.3,Win32,60,"[1366,625]",,,"[""trial_ahead_box"",""trial_left_box"",""trial_right_box""]",,,,,,,,,,,,staircase4.jpg,space,4.976155,"[0.0096,-0.416,0.4336,0.424]","[-0.3096,-0.2904,-0.3016,-0.3016]","[1,1,1,1]","[0,0,0,0]","[0,0,0,0]","[1.7457949999989069,3.028490000000602,3.9946749999980966,4.611649999998917]","[""trial_ahead_box"",""trial_left_box"",""trial_right_box""]",0,41,41,93,1,tollbooth8.jpg,volleyballcourt4.jpg,warehouseoutside2.jpg,tenniscourt.jpg,,
Image_List_3,,,,,,,,,,,,,,,,44584,2020-11-19_18h07.26.873,lingCatScenes,2020.1.3,Win32,60,"[1366,625]",,,"[""trial_left_box""]",,,,,,,,,,,,laundromat4.jpg,space,3.525395,"[-0.408,-0.408,-0.4032]","[-0.2728,-0.2744,-0.2904]","[1,1,1]","[0,0,0]","[0,0,0]","[1.5450999999993655,2.361604999998235,3.1613649999999325]","[""trial_left_box""]",0,42,42,67,1,library_aisle3.jpg,park7.jpg,liquorstore2.jpg,hospitalroom2.jpg,,
Image_List_3,,,,,,,,,,,,,,,,44584,2020-11-19_18h07.26.873,lingCatScenes,2020.1.3,Win32,60,"[1366,625]",,,"[""trial_ahead_box"",""trial_left_box"",""trial_slight_left_box"",""trial_slight_right_box"",""trial_right_box""]",,,,,,,,,,,,ballroom2.jpg,space,8.00944,"[0.0336,0.0112,-0.4224,-0.2208,-0.1968,0.2224,0.4128]","[-0.3032,-0.2952,-0.2904,-0.2744,-0.2904,-0.3,-0.2792]","[1,1,1,1,1,1,1]","[0,0,0,0,0,0,0]","[0,0,0,0,0,0,0]","[2.1779199999982666,2.8944750000009662,4.360820000001695,5.393964999999298,6.044060000000172,6.993590000001859,7.693344999999681]","[""trial_ahead_box"",""trial_left_box"",""trial_slight_left_box"",""trial_slight_right_box"",""trial_right_box""]",0,43,43,9,1,auto_showroom3.jpg,bar2.jpg,basement5.jpg,arcade2.jpg,,
Image_List_3,,,,,,,,,,,,,,,,44584,2020-11-19_18h07.26.873,lingCatScenes,2020.1.3,Win32,60,"[1366,625]",,,"[""trial_ahead_box"",""trial_slight_right_box"",""trial_left_box""]",,,,,,,,,,,,frontFoyer6.jpg,space,4.615605,"[0.0144,0.1712,0.176,-0.4144]","[-0.3144,-0.308,-0.308,-0.2984]","[1,1,1,1]","[0,0,0,0]","[0,0,0,0]","[1.5440999999991618,2.643964999999241,3.4771099999998114,4.26020000000068]","[""trial_ahead_box"",""trial_slight_right_box"",""trial_left_box""]",0,44,44,52,1,gasstation7.jpg,hardwarestore1.jpg,highway.jpg,forestpath2.jpg,,
Image_List_3,,,,,,,,,,,,,,,,44584,2020-11-19_18h07.26.873,lingCatScenes,2020.1.3,Win32,60,"[1366,625]",,,"[""trial_left_box""]",,,,,,,,,,,,drycleaners6.jpg,space,8.46281,"[-0.4016,-0.4016]","[-0.3352,-0.3224]","[1,1]","[0,0]","[0,0]","[6.660605000000885,7.5099349999981655]","[""trial_left_box""]",0,45,45,39,1,driveway6.jpg,eyeglassstore9.jpg,drymountains5.jpg,cliff5.jpg,,
Image_List_3,,,,,,,,,,,,,,,,44584,2020-11-19_18h07.26.873,lingCatScenes,2020.1.3,Win32,60,"[1366,625]",,,"[""trial_left_box"",""trial_right_box""]",,,,,,,,,,,,applestore6.jpg,space,13.089295,"[-0.4032,-0.0032,-0.0032,-0.0032,-0.0032,0.4112,0.4112,0.3856]","[-0.308,-0.292,-0.292,-0.292,-0.292,-0.3464,-0.3256,-0.292]","[1,1,1,1,1,1,1,1]","[0,0,0,0,0,0,0,0]","[0,0,0,0,0,0,0,0]","[1.9112449999993828,5.360444999998435,6.510135000000503,7.493374999998309,8.893314999997585,11.176344999999856,11.776050000000396,12.508934999998132]","[""trial_left_box"",""trial_ahead_box"",""trial_ahead_box"",""trial_ahead_box"",""trial_ahead_box"",""trial_right_box""]",0,46,46,2,1,alley1.jpg,arcade1.jpg,apartmentBuilding4.jpg,airportTerminal6.jpg,,
Image_List_3,,,,,,,,,,,,,,,,44584,2020-11-19_18h07.26.873,lingCatScenes,2020.1.3,Win32,60,"[1366,625]",,,"[""trial_left_box"",""trial_slight_right_box""]",,,,,,,,,,,,skatepark7.jpg,space,6.26874,"[-0.384,0.1808]","[-0.2968,-0.3064]","[1,1]","[0,0]","[0,0]","[1.5969250000015904,5.896029999999826]","[""trial_left_box"",""trial_slight_right_box""]",0,47,47,92,1,staircase.jpg,volleyballcourt.jpg,tvstudio2.jpg,soccerfield2.jpg,,
Image_List_3,,,,,,,,,,,,,,,,44584,2020-11-19_18h07.26.873,lingCatScenes,2020.1.3,Win32,60,"[1366,625]",,,"[""trial_slight_right_box""]",,,,,,,,,,,,operatingroom4.jpg,space,5.09731,[0.1808],[-0.3064],[1],[0],[0],[1.3962500000016576],"[""trial_slight_right_box""]",0,48,48,75,1,pantry5.jpg,playground6.jpg,park.jpg,lockerroom.jpg,,
Image_List_3,,,,,,,,,,,,,,,,44584,2020-11-19_18h07.26.873,lingCatScenes,2020.1.3,Win32,60,"[1366,625]",,,"[""trial_right_box"",""trial_sharp_left_box""]",,,,,,,,,,,,dinosaur4.jpg,space,5.04979,"[0.3888,0.4016,-0.5952,-0.5968]","[-0.2712,-0.2936,-0.332,-0.308]","[1,1,1,1]","[0,0,0,0]","[0,0,0,0]","[1.5777850000013132,2.344345000001397,3.6441300000005867,4.377250000001425]","[""trial_right_box"",""trial_sharp_left_box""]",0,49,49,37,1,dining_car.jpg,driveway4.jpg,driveway7.jpg,citystreet9.jpg,,
Image_List_3,,,,,,,,,,,,,,,,44584,2020-11-19_18h07.26.873,lingCatScenes,2020.1.3,Win32,60,"[1366,625]",,,"[""trial_slight_left_box"",""trial_left_box"",""trial_sharp_right_box""]",,,,,,,,,,,,ruralroad3.jpg,space,7.67688,"[-0.224,-0.3504,-0.3824,0.6144]","[-0.2872,-0.2904,-0.2952,-0.2872]","[1,1,1,1]","[0,0,0,0]","[0,0,0,0]","[2.846509999999455,3.6294049999996787,4.595825000000389,7.062099999999248]","[""trial_slight_left_box"",""trial_left_box"",""trial_sharp_right_box""]",0,50,50,86,1,restaurant14.jpg,stripmall.jpg,sandDunes_desert_outdoor8.jpg,rooftop4.jpg,,
Image_List_3,,,,,,,,,,,,,,,,44584,2020-11-19_18h07.26.873,lingCatScenes,2020.1.3,Win32,60,"[1366,625]",,,"[""trial_left_box""]",,,,,,,,,,,,tenniscourt3.jpg,space,3.745805,"[-0.3808,-0.4016]","[-0.3288,-0.3208]","[1,1]","[0,0]","[0,0]","[1.9949349999988613,2.72783999999956]","[""trial_left_box""]",0,51,51,96,1,warehouse4.jpg,warehouseoutside1.jpg,windmill1.jpg,warehouse1.jpg,,
Image_List_3,,,,,,,,,,,,,,,,44584,2020-11-19_18h07.26.873,lingCatScenes,2020.1.3,Win32,60,"[1366,625]",,,"[""trial_left_box"",""trial_right_box""]",,,,,,,,,,,,homegarden6.jpg,space,8.956945,"[0.0048,-0.008,-0.0352,-0.0192,-0.4048,0.416,0.008]","[-0.3464,-0.3272,-0.3,-0.3,-0.2856,-0.3176,-0.3192]","[1,1,1,1,1,1,1]","[0,0,0,0,0,0,0]","[0,0,0,0,0,0,0]","[2.2614700000013386,2.9278400000002307,3.7942650000003937,4.411120000000608,5.277679999999236,6.52726999999868,8.410100000000966]","[""trial_ahead_box"",""trial_left_box"",""trial_right_box"",""trial_ahead_box""]",0,52,52,61,1,HorseRaceTrack.jpg,metroInside4.jpg,kindergarten_classroom7.jpg,hayfield6.jpg,,
Image_List_3,,,,,,,,,,,,,,,,44584,2020-11-19_18h07.26.873,lingCatScenes,2020.1.3,Win32,60,"[1366,625]",,,"[""trial_slight_right_box""]",,,,,,,,,,,,promenadeDeck3.jpg,space,6.25996,"[0.2128,0.2144]","[-0.3336,-0.308]","[1,1]","[0,0]","[0,0]","[1.662485000000629,2.512415000000999]","[""trial_slight_right_box""]",0,53,53,82,1,publicrestroom2.jpg,sandDunes_desert_outdoor9.jpg,readingroom4.jpg,postoffice4.jpg,,
Image_List_3,,,,,,,,,,,,,,,,44584,2020-11-19_18h07.26.873,lingCatScenes,2020.1.3,Win32,60,"[1366,625]",,,"[""trial_ahead_box"",""trial_slight_left_box""]",,,,,,,,,,,,waitingroom4.jpg,space,4.309155,"[0,-0.176]","[-0.2984,-0.2952]","[1,1]","[0,0]","[0,0]","[2.193715000001248,3.693550000000016]","[""trial_ahead_box"",""trial_slight_left_box""]",0,54,54,97,1,warehouseoutside4.jpg,wineVineyard2.jpg,winebarrel3.jpg,warehouseoutside3.jpg,,
Image_List_3,,,,,,,,,,,,,,,,44584,2020-11-19_18h07.26.873,lingCatScenes,2020.1.3,Win32,60,"[1366,625]",,,"[""trial_slight_left_box"",""trial_ahead_box""]",,,,,,,,,,,,promenadeDeck2.jpg,space,3.934065,"[-0.0272,-0.1888,0.0064]","[-0.2936,-0.2984,-0.2968]","[1,1,1]","[0,0,0]","[0,0,0]","[1.5777949999974226,2.5270149999996647,3.543549999998447]","[""trial_slight_left_box"",""trial_ahead_box""]",0,55,55,81,1,promenadeDeck.jpg,ruralroad5.jpg,rainforest5.jpg,pasture8.jpg,,
Image_List_3,,,,,,,,,,,,,,,,44584,2020-11-19_18h07.26.873,lingCatScenes,2020.1.3,Win32,60,"[1366,625]",,,"[""trial_ahead_box"",""trial_slight_left_box"",""trial_left_box"",""trial_slight_right_box"",""trial_right_box""]",,,,,,,,,,,,ballroom4.jpg,space,6.919595,"[0.008,-0.2032,-0.3872,0.2176,0.4]","[-0.292,-0.2952,-0.2968,-0.2888,-0.316]","[1,1,1,1,1]","[0,0,0,0,0]","[0,0,0,0,0]","[1.5782949999993434,3.0115750000003914,4.494559999999183,5.710914999999716,6.510845000000643]","[""trial_ahead_box"",""trial_slight_left_box"",""trial_left_box"",""trial_slight_right_box"",""trial_right_box""]",0,56,56,10,1,backstage2.jpg,barbershop3.jpg,basketballcourt3.jpg,ATM4.jpg,,
Image_List_3,,,,,,,,,,,,,,,,44584,2020-11-19_18h07.26.873,lingCatScenes,2020.1.3,Win32,60,"[1366,625]",,,"[""trial_right_box""]",,,,,,,,,,,,brewery4.jpg,space,2.11634,[0.4],[-0.316],[1],[0],[0],[1.4122549999992202],"[""trial_right_box""]",0,57,57,18,1,bleachers5.jpg,casino1.jpg,castle2.jpg,basement6.jpg,,
Image_List_3,,,,,,,,,,,,,,,,44584,2020-11-19_18h07.26.873,lingCatScenes,2020.1.3,Win32,60,"[1366,625]",,,"[""trial_right_box"",""trial_slight_right_box"",""trial_ahead_box"",""trial_slight_left_box"",""trial_left_box""]",,,,,,,,,,,,drymountains6.jpg,space,7.84144,"[0.4,0.2496,0.2048,0.032,0.0176,-0.2336,-0.2208,-0.3872]","[-0.316,-0.3176,-0.2936,-0.3112,-0.308,-0.2872,-0.2872,-0.3048]","[1,1,1,1,1,1,1,1]","[0,0,0,0,0,0,0,0]","[0,0,0,0,0,0,0,0]","[1.8263049999986265,2.8263350000015066,3.34286499999871,3.9593700000004333,4.510344999998722,5.542030000000466,6.209330000001444,7.325375000000349]","[""trial_right_box"",""trial_slight_right_box"",""trial_ahead_box"",""trial_slight_left_box"",""trial_left_box""]",0,58,58,42,1,exerciseequipment3.jpg,firestation3.jpg,farm4.jpg,desertvegetation2.jpg,,
Image_List_3,,,,,,,,,,,,,,,,44584,2020-11-19_18h07.26.873,lingCatScenes,2020.1.3,Win32,60,"[1366,625]",,,"[""trial_slight_left_box"",""trial_sharp_right_box"",""trial_sharp_left_box""]",,,,,,,,,,,,cubicle7.jpg,space,6.15845,"[-0.1824,0.5952,-0.5728,-0.5952]","[-0.3112,-0.2984,-0.3112,-0.308]","[1,1,1,1]","[0,0,0,0]","[0,0,0,0]","[1.9947749999992084,3.2446750000017346,5.161080000001618,5.777474999999015]","[""trial_slight_left_box"",""trial_sharp_right_box"",""trial_sharp_left_box""]",0,59,59,35,1,deck5.jpg,dock3.jpg,dining_car6.jpg,carmechanic2.jpg,,
Image_List_3,,,,,,,,,,,,,,,,44584,2020-11-19_18h07.26.873,lingCatScenes,2020.1.3,Win32,60,"[1366,625]",,,"[""trial_slight_right_box""]",,,,,,,,,,,,hotelRoom2.jpg,space,2.026105,[0.224],[-0.3016],[1],[0],[0],[1.5624750000023937],"[""trial_slight_right_box""]",0,60,60,63,1,hut2.jpg,museum6.jpg,lab4.jpg,highway2.jpg,,
Image_List_3,,,,,,,,,,,,,,,,44584,2020-11-19_18h07.26.873,lingCatScenes,2020.1.3,Win32,60,"[1366,625]",,,"[""trial_ahead_box""]",,,,,,,,,,,,churchInside4.jpg,space,1.60813,[0.0208],[-0.3048],[1],[0],[0],[1.3116499999997018],"[""trial_ahead_box""]",0,61,61,27,1,castle3.jpg,courtroom3.jpg,closet.jpg,brewery2.jpg,,
Image_List_3,,,,,,,,,,,,,,,,44584,2020-11-19_18h07.26.873,lingCatScenes,2020.1.3,Win32,60,"[1366,625]",,,"[""trial_slight_right_box"",""trial_sharp_left_box"",""trial_sharp_right_box""]",,,,,,,,,,,,cargo5.jpg,space,4.954055,"[0.2224,0.2144,-0.6032,0.5968]","[-0.3256,-0.3096,-0.2984,-0.2984]","[1,1,1,1]","[0,0,0,0]","[0,0,0,0]","[1.429854999998554,2.080150000001595,3.0628649999998743,4.379225000000645]","[""trial_slight_right_box"",""trial_sharp_left_box"",""trial_sharp_right_box""]",0,62,62,22,1,bowlingalley5.jpg,church6.jpg,cemetery.jpg,bistrooutdoor6.jpg,,
Image_List_3,,,,,,,,,,,,,,,,44584,2020-11-19_18h07.26.873,lingCatScenes,2020.1.3,Win32,60,"[1366,625]",,,"[""trial_ahead_box""]",,,,,,,,,,,,dock1.jpg,space,2.59658,"[-0.0336,0.0192]","[-0.3256,-0.3144]","[1,1]","[0,0]","[0,0]","[1.6622400000014181,2.2121299999998882]","[""trial_ahead_box""]",0,63,63,38,1,dining_car2.jpg,elevatorOutside4.jpg,driveway8.jpg,classroom1.jpg,,
Image_List_3,,,,,,,,,,,,,,,,44584,2020-11-19_18h07.26.873,lingCatScenes,2020.1.3,Win32,60,"[1366,625]",,,"[""trial_slight_right_box"",""trial_right_box""]",,,,,,,,,,,,beach2.jpg,space,6.551125,"[0.192,0.384]","[-0.3112,-0.2984]","[1,1]","[0,0]","[0,0]","[1.6790399999991337,6.211639999997658]","[""trial_slight_right_box"",""trial_right_box""]",0,64,64,13,1,balconyIN2.jpg,bowlingalley3.jpg,boardwalk4.jpg,backyard6.jpg,,
Image_List_3,,,,,,,,,,,,,,,,44584,2020-11-19_18h07.26.873,lingCatScenes,2020.1.3,Win32,60,"[1366,625]",,,"[""trial_right_box"",""trial_left_box""]",,,,,,,,,,,,courthouse4.jpg,space,3.64192,"[0.3936,-0.4032]","[-0.2984,-0.2856]","[1,1]","[0,0]","[0,0]","[2.312565000000177,3.345594999998866]","[""trial_right_box"",""trial_left_box""]",0,65,65,34,1,deck4.jpg,diningroom5.jpg,diner11.jpg,campusquad1.jpg,,
Image_List_3,,,,,,,,,,,,,,,,44584,2020-11-19_18h07.26.873,lingCatScenes,2020.1.3,Win32,60,"[1366,625]",,,"[""trial_right_box"",""trial_ahead_box""]",,,,,,,,,,,,laundromat3.jpg,space,5.861075,"[0.4336,0.3872,-0.0128]","[-0.2904,-0.3144,-0.2936]","[1,1,1]","[0,0,0]","[0,0,0]","[2.011510000000328,2.861424999999201,5.377809999998249]","[""trial_right_box"",""trial_ahead_box""]",0,66,66,66,1,library_aisle10.jpg,office3.jpg,liquorstore.jpg,horsebarn9.jpg,,
Image_List_3,,,,,,,,,,,,,,,,44584,2020-11-19_18h07.26.873,lingCatScenes,2020.1.3,Win32,60,"[1366,625]",,,"[""trial_left_box"",""trial_sharp_left_box"",""trial_sharp_right_box""]",,,,,,,,,,,,savanna.jpg,space,29.61988,"[-0.0128,0.1936,0.4144,-0.3632,-0.392,-0.2064,-0.5888,0.6288,0.5968,0.4224,0.2048,0.0256,0.0176,-0.1984]","[-0.2936,-0.3032,-0.3192,-0.2872,-0.2968,-0.3096,-0.284,-0.3112,-0.3112,-0.2856,-0.2904,-0.2952,-0.3144,-0.2888]","[1,1,1,1,1,1,1,1,1,1,1,1,1,1]","[0,0,0,0,0,0,0,0,0,0,0,0,0,0]","[0,0,0,0,0,0,0,0,0,0,0,0,0,0]","[1.0612199999995369,2.5276350000021353,3.326980000001697,8.759509999999807,9.358930000002147,10.559040000000095,13.741840000002412,14.791310000000522,15.557984999999462,21.673435000000552,22.9227649999994,23.656390000000044,24.722949999999457,25.722639999999956]","[""trial_ahead_box"",""trial_slight_right_box"",""trial_right_box"",""trial_left_box"",""trial_slight_left_box"",""trial_sharp_left_box"",""trial_sharp_right_box"",""trial_right_box"",""trial_slight_right_box"",""trial_ahead_box"",""trial_slight_left_box""]",0,67,67,87,1,restaurantkitchen2.jpg,theater2.jpg,sculpturegarden2.jpg,RVinside2.jpg,,
Image_List_3,,,,,,,,,,,,,,,,44584,2020-11-19_18h07.26.873,lingCatScenes,2020.1.3,Win32,60,"[1366,625]",,,"[""trial_slight_left_box""]",,,,,,,,,,,,forestpath6.jpg,space,5.239595,"[-0.2128,-0.2256,-0.16,-0.2112]","[-0.3448,-0.3144,-0.292,-0.2936]","[1,1,1,1]","[0,0,0,0]","[0,0,0,0]","[2.460885000000303,3.2772899999981746,4.127205000000629,4.660179999998832]","[""trial_slight_left_box""]",0,68,68,50,1,frontLawn4.jpg,grocerystore6.jpg,hallway2.jpg,fireplace4.jpg,,
Image_List_3,,,,,,,,,,,,,,,,44584,2020-11-19_18h07.26.873,lingCatScenes,2020.1.3,Win32,60,"[1366,625]",,,"[""trial_left_box""]",,,,,,,,,,,,cliff2.jpg,space,4.043925,"[-0.3856,0.5824,0.5824]","[-0.2904,-0.308,-0.308]","[1,1,1]","[0,0,0]","[0,0,0]","[1.530524999998363,2.713574999998002,3.696039999998959]","[""trial_left_box"",""trial_sharp_right_box"",""trial_sharp_right_box""]",0,69,69,29,1,cornfield2.jpg,deck2.jpg,constructionSite4.jpg,bridalboutique3.jpg,,
Image_List_3,,,,,,,,,,,,,,,,44584,2020-11-19_18h07.26.873,lingCatScenes,2020.1.3,Win32,60,"[1366,625]",,,"[""trial_ahead_box""]",,,,,,,,,,,,dining_car3.jpg,space,2.09057,[-0.0128],[-0.3224],[1],[0],[0],[1.7269149999991669],"[""trial_ahead_box""]",0,70,70,36,1,diner14.jpg,dormroom9.jpg,doctor1.jpg,checkoutcounter9.jpg,,
Image_List_3,,,,,,,,,,,,,,,,44584,2020-11-19_18h07.26.873,lingCatScenes,2020.1.3,Win32,60,"[1366,625]",,,"[""trial_slight_left_box""]",,,,,,,,,,,,nursery.jpg,space,3.619215,"[-0.1744,-0.1936]","[-0.2952,-0.2952]","[1,1]","[0,0]","[0,0]","[2.411975000002599,3.294855000000098]","[""trial_slight_left_box""]",0,71,71,73,1,musicStore3.jpg,photographer_studio2.jpg,nursery4.jpg,library_aisle9.jpg,,
Image_List_3,,,,,,,,,,,,,,,,44584,2020-11-19_18h07.26.873,lingCatScenes,2020.1.3,Win32,60,"[1366,625]",,,"[""trial_ahead_box"",""trial_slight_right_box"",""trial_right_box"",""trial_slight_left_box"",""trial_left_box""]",,,,,,,,,,,,frontLawn3.jpg,space,7.226815,"[-0.0016,0.2336,0.2128,0.4144,-0.2336,-0.2224,-0.4032]","[-0.292,-0.2872,-0.2872,-0.3,-0.2856,-0.2888,-0.3112]","[1,1,1,1,1,1,1]","[0,0,0,0,0,0,0]","[0,0,0,0,0,0,0]","[1.5783799999991288,2.478364999999087,3.1281499999969355,4.544575000000009,5.427754999996978,5.99407999999687,6.977374999998631]","[""trial_ahead_box"",""trial_slight_right_box"",""trial_right_box"",""trial_slight_left_box"",""trial_left_box""]",0,72,72,53,1,gazebo3.jpg,homeoffice.jpg,homegarage3.jpg,fountain.jpg,,
Image_List_3,,,,,,,,,,,,,,,,44584,2020-11-19_18h07.26.873,lingCatScenes,2020.1.3,Win32,60,"[1366,625]",,,"[""trial_slight_right_box""]",,,,,,,,,,,,promenadeDeck6.jpg,space,1.759775,[0.2064],[-0.3144],[1],[0],[0],[1.4454550000009476],"[""trial_slight_right_box""]",0,73,73,83,1,readingroom1.jpg,sculpturegarden1.jpg,restaurant8.jpg,readingroom2.jpg,,
Image_List_3,,,,,,,,,,,,,,,,44584,2020-11-19_18h07.26.873,lingCatScenes,2020.1.3,Win32,60,"[1366,625]",,,"[""trial_right_box""]",,,,,,,,,,,,applestore1.jpg,space,1.98627,[0.3968],[-0.3208],[1],[0],[0],[1.361779999999385],"[""trial_right_box""]",0,74,74,1,1,airportTerminal4.jpg,apartmentBuilding1.jpg,airportTerminal3.jpg,airportTerminal2.jpg,,
Image_List_3,,,,,,,,,,,,,,,,44584,2020-11-19_18h07.26.873,lingCatScenes,2020.1.3,Win32,60,"[1366,625]",,,"[""trial_right_box"",""trial_slight_right_box"",""trial_ahead_box"",""trial_slight_left_box"",""trial_left_box""]",,,,,,,,,,,,stripmall6.jpg,space,7.648425,"[0.3968,0.2,0.032,0.0048,-0.1664,-0.1856,-0.3968]","[-0.3208,-0.3048,-0.2888,-0.2888,-0.3112,-0.3112,-0.2984]","[1,1,1,1,1,1,1]","[0,0,0,0,0,0,0]","[0,0,0,0,0,0,0]","[1.6116499999988037,2.5617600000004472,3.3945549999988316,3.9945349999978816,4.744469999997705,5.394134999998585,6.527324999999053]","[""trial_right_box"",""trial_slight_right_box"",""trial_ahead_box"",""trial_slight_left_box"",""trial_left_box""]",0,75,75,95,1,waitingroom2.jpg,warehouse2.jpg,weightroom4.jpg,tvstudio3.jpg,,
Image_List_3,,,,,,,,,,,,,,,,44584,2020-11-19_18h07.26.873,lingCatScenes,2020.1.3,Win32,60,"[1366,625]",,,"[""trial_left_box"",""trial_slight_left_box"",""trial_ahead_box"",""trial_slight_right_box""]",,,,,,,,,,,,elevatorOutside1.jpg,space,7.70849,"[-0.3824,-0.1664,-0.2288,-0.1696,-0.1824,0.016,0.1744,0.2144]","[-0.3096,-0.2984,-0.3032,-0.3032,-0.3048,-0.3016,-0.3032,-0.2984]","[1,1,1,1,1,1,1,1]","[0,0,0,0,0,0,0,0]","[0,0,0,0,0,0,0,0]","[1.811829999998622,2.5283199999976205,3.228289999999106,3.8115699999979142,4.59500999999716,5.294399999998859,6.41113499999841,7.1276049999978]","[""trial_left_box"",""trial_slight_left_box"",""trial_ahead_box"",""trial_slight_right_box""]",0,76,76,44,1,firestation2.jpg,frontFoyer4.jpg,foodcourt6.jpg,dock2.jpg,,
Image_List_3,,,,,,,,,,,,,,,,44584,2020-11-19_18h07.26.873,lingCatScenes,2020.1.3,Win32,60,"[1366,625]",,,"[""trial_ahead_box"",""trial_right_box""]",,,,,,,,,,,,dugout2.jpg,space,4.13649,"[0.0208,0.4112]","[-0.3,-0.3208]","[1,1]","[0,0]","[0,0]","[2.0119249999988824,3.1450650000006704]","[""trial_ahead_box"",""trial_right_box""]",0,77,77,43,1,exerciseequipment5.jpg,forestpath10.jpg,foodcourt.jpg,diningroom3.jpg,,
Image_List_3,,,,,,,,,,,,,,,,44584,2020-11-19_18h07.26.873,lingCatScenes,2020.1.3,Win32,60,"[1366,625]",,,"[""trial_ahead_box"",""trial_slight_right_box"",""trial_left_box""]",,,,,,,,,,,,auto_showroom5.jpg,space,5.399965,"[0.0144,0.224,-0.3696,-0.3824]","[-0.2968,-0.3208,-0.276,-0.2792]","[1,1,1,1]","[0,0,0,0]","[0,0,0,0]","[1.596540000002335,2.9297700000024633,4.54617499999955,5.06241000000233]","[""trial_ahead_box"",""trial_slight_right_box"",""trial_left_box""]",0,78,78,6,1,ATM1.jpg,banquetHall2.jpg,baggageClaim1.jpg,apartmentBuilding3.jpg,,
Image_List_3,,,,,,,,,,,,,,,,44584,2020-11-19_18h07.26.873,lingCatScenes,2020.1.3,Win32,60,"[1366,625]",,,"[""trial_ahead_box"",""trial_slight_left_box"",""trial_slight_right_box""]",,,,,,,,,,,,sidewalk1.jpg,space,5.804235,"[0.0144,-0.2256,-0.2032,0.1952]","[-0.2808,-0.3064,-0.3032,-0.3064]","[1,1,1,1]","[0,0,0,0]","[0,0,0,0]","[1.678875000001483,2.495440000002475,3.2620050000005563,4.277900000000955]","[""trial_ahead_box"",""trial_slight_left_box"",""trial_slight_right_box""]",0,79,79,90,1,savanna5.jpg,trainStation1.jpg,stripmall3.jpg,shoestore4.jpg,,
Image_List_3,,,,,,,,,,,,,,,,44584,2020-11-19_18h07.26.873,lingCatScenes,2020.1.3,Win32,60,"[1366,625]",,,"[""trial_slight_left_box"",""trial_sharp_right_box""]",,,,,,,,,,,,church4.jpg,space,3.88443,"[-0.2016,0.6144]","[-0.3064,-0.3016]","[1,1]","[0,0]","[0,0]","[1.6445349999994505,3.460934999999097]","[""trial_slight_left_box"",""trial_sharp_right_box""]",0,80,80,26,1,campusquad2.jpg,cornfield4.jpg,churchInside3.jpg,botanicalGarden7.jpg,,
Image_List_3,,,,,,,,,,,,,,,,44584,2020-11-19_18h07.26.873,lingCatScenes,2020.1.3,Win32,60,"[1366,625]",,,"[""trial_right_box""]",,,,,,,,,,,,fittingroom5.jpg,space,2.094855,[0.3824],[-0.2984],[1],[0],[0],[1.5461350000004472],"[""trial_right_box""]",0,81,81,48,1,frontDoor2.jpg,golfcourse6.jpg,golfcourse7.jpg,fabricstore2.jpg,,
Image_List_3,,,,,,,,,,,,,,,,44584,2020-11-19_18h07.26.873,lingCatScenes,2020.1.3,Win32,60,"[1366,625]",,,"[""trial_ahead_box"",""trial_slight_right_box"",""trial_right_box"",""trial_sharp_right_box"",""trial_slight_left_box"",""trial_left_box"",""trial_sharp_left_box""]",,,,,,,,,,,,golfcourse10.jpg,space,8.36085,"[-0.0016,0.2112,0.432,0.392,0.5888,-0.2368,-0.2256,-0.2096,-0.3904,-0.5808]","[-0.292,-0.316,-0.3,-0.2952,-0.2952,-0.292,-0.2936,-0.2936,-0.2904,-0.2904]","[1,1,1,1,1,1,1,1,1,1]","[0,0,0,0,0,0,0,0,0,0]","[0,0,0,0,0,0,0,0,0,0]","[1.6783350000005726,2.3451450000029013,2.9943899999998393,3.6112300000022515,4.510775000002468,5.344165000002249,5.8941850000009595,6.443680000000256,7.227315000000033,8.010190000000875]","[""trial_ahead_box"",""trial_slight_right_box"",""trial_right_box"",""trial_sharp_right_box"",""trial_slight_left_box"",""trial_left_box"",""trial_sharp_left_box""]",0,82,82,56,1,grocerystore5.jpg,hut3.jpg,hut1.jpg,gasstation2.jpg,,
Image_List_3,,,,,,,,,,,,,,,,44584,2020-11-19_18h07.26.873,lingCatScenes,2020.1.3,Win32,60,"[1366,625]",,,"[""trial_slight_left_box"",""trial_slight_right_box""]",,,,,,,,,,,,livingroom.jpg,space,4.625345,"[-0.2208,0.2]","[-0.3048,-0.3064]","[1,1]","[0,0]","[0,0]","[2.244529999999884,4.277364999998042]","[""trial_slight_left_box"",""trial_slight_right_box""]",0,83,83,69,1,liquorstore8.jpg,parkinglot2.jpg,metroInside1.jpg,icecream2.jpg,,
Image_List_3,,,,,,,,,,,,,,,,44584,2020-11-19_18h07.26.873,lingCatScenes,2020.1.3,Win32,60,"[1366,625]",,,"[""trial_slight_left_box"",""trial_right_box""]",,,,,,,,,,,,auto_showroom4.jpg,space,4.81078,"[0.2,-0.1904,0.2128,0.432,0.4]","[-0.3064,-0.3128,-0.308,-0.308,-0.3144]","[1,1,1,1,1]","[0,0,0,0,0]","[0,0,0,0,0]","[0.979605000000447,2.1463000000004513,3.0958449999998834,3.79589000000135,4.329300000001297]","[""trial_slight_right_box"",""trial_slight_left_box"",""trial_slight_right_box"",""trial_right_box""]",0,84,84,5,1,artStudio3.jpg,bambooforest.jpg,attic4.jpg,amusement3.jpg,,
Image_List_3,,,,,,,,,,,,,,,,44584,2020-11-19_18h07.26.873,lingCatScenes,2020.1.3,Win32,60,"[1366,625]",,,"[""trial_right_box"",""trial_slight_right_box""]",,,,,,,,,,,,bistrooutdoor5.jpg,space,3.35905,"[0.4,0.2128]","[-0.3144,-0.308]","[1,1]","[0,0]","[0,0]","[1.5293449999989548,2.678284999998084]","[""trial_right_box"",""trial_slight_right_box""]",0,85,85,14,1,ballroom1.jpg,breakroom5.jpg,botanicalGarden5.jpg,ballroom3.jpg,,
Image_List_3,,,,,,,,,,,,,,,,44584,2020-11-19_18h07.26.873,lingCatScenes,2020.1.3,Win32,60,"[1366,625]",,,"[""trial_slight_left_box"",""trial_ahead_box""]",,,,,,,,,,,,balconyIN.jpg,space,3.594,"[-0.2208,0.0112]","[-0.3144,-0.3064]","[1,1]","[0,0]","[0,0]","[2.1115350000000603,3.1112099999991756]","[""trial_slight_left_box"",""trial_ahead_box""]",0,86,86,8,1,attic3.jpg,banquetHall6.jpg,bar.jpg,applestore4.jpg,,
Image_List_3,,,,,,,,,,,,,,,,44584,2020-11-19_18h07.26.873,lingCatScenes,2020.1.3,Win32,60,"[1366,625]",,,"[""trial_slight_right_box"",""trial_left_box""]",,,,,,,,,,,,musicStore1.jpg,space,5.48931,"[0.2048,-0.3984]","[-0.324,-0.292]","[1,1]","[0,0]","[0,0]","[2.8599749999993946,4.709555000001274]","[""trial_slight_right_box"",""trial_left_box""]",0,87,87,72,1,museum5.jpg,pharmacy4.jpg,museum4.jpg,kindergarten_classroom.jpg,,
Image_List_3,,,,,,,,,,,,,,,,44584,2020-11-19_18h07.26.873,lingCatScenes,2020.1.3,Win32,60,"[1366,625]",,,"[""trial_right_box"",""trial_slight_right_box"",""trial_slight_left_box"",""trial_left_box""]",,,,,,,,,,,,warehouse3.jpg,space,8.115445,"[0.3696,0.392,0.2224,0.0128,-0.008,-0.2064,-0.4016]","[-0.284,-0.2952,-0.3,-0.2936,-0.292,-0.2888,-0.2776]","[1,1,1,1,1,1,1]","[0,0,0,0,0,0,0]","[0,0,0,0,0,0,0]","[1.82739000000214,2.294375000001253,3.044340000000318,4.21036000000089,5.860120000001132,6.626785000000325,7.593010000000447]","[""trial_right_box"",""trial_slight_right_box"",""trial_ahead_box"",""trial_ahead_box"",""trial_slight_left_box"",""trial_left_box""]",0,88,88,98,1,weightroom5.jpg,wineVineyard8.jpg,winebarrel4.jpg,winebarrel2.jpg,,
Image_List_3,,,,,,,,,,,,,,,,44584,2020-11-19_18h07.26.873,lingCatScenes,2020.1.3,Win32,60,"[1366,625]",,,"[""trial_slight_left_box"",""trial_left_box""]",,,,,,,,,,,,jewelrystore8.jpg,space,4.88005,"[-0.2192,-0.3792]","[-0.3224,-0.2824]","[1,1]","[0,0]","[0,0]","[2.628340000002936,3.9114150000023074]","[""trial_slight_left_box"",""trial_left_box""]",0,89,89,64,1,igloo2.jpg,newsstand5.jpg,lab5.jpg,homegarage2.jpg,,
Image_List_3,,,,,,,,,,,,,,,,44584,2020-11-19_18h07.26.873,lingCatScenes,2020.1.3,Win32,60,"[1366,625]",,,"[""trial_slight_left_box"",""trial_left_box"",""trial_right_box""]",,,,,,,,,,,,breakroom2.jpg,space,6.77992,"[-0.1904,-0.3968,0.3552,0.4048]","[-0.2952,-0.308,-0.2824,-0.3016]","[1,1,1,1]","[0,0,0,0]","[0,0,0,0]","[2.9284499999994296,4.511510000000271,5.744794999998703,6.327659999999014]","[""trial_slight_left_box"",""trial_left_box"",""trial_right_box""]",0,90,90,16,1,basement.jpg,cafeteria6.jpg,campusquad4.jpg,barbershop2.jpg,,
Image_List_3,,,,,,,,,,,,,,,,44584,2020-11-19_18h07.26.873,lingCatScenes,2020.1.3,Win32,60,"[1366,625]",,,"[""trial_right_box"",""trial_slight_right_box"",""trial_ahead_box"",""trial_slight_left_box"",""trial_left_box"",""trial_sharp_left_box"",""trial_sharp_right_box""]",,,,,,,,,,,,drymountains3.jpg,space,9.593515,"[0.4048,0.1856,-0.0064,-0.184,-0.3744,-0.3952,-0.5792,0.5728,0.624]","[-0.3016,-0.3192,-0.308,-0.2984,-0.2872,-0.2872,-0.2936,-0.3192,-0.3224]","[1,1,1,1,1,1,1,1,1]","[0,0,0,0,0,0,0,0,0]","[0,0,0,0,0,0,0,0,0]","[1.0616899999986344,3.0113149999997404,4.027699999998845,4.7108850000005305,5.860294999998473,6.543839999998454,7.510249999999246,8.509900000000926,9.076990000001388]","[""trial_right_box"",""trial_slight_right_box"",""trial_ahead_box"",""trial_slight_left_box"",""trial_left_box"",""trial_sharp_left_box"",""trial_sharp_right_box""]",0,91,91,41,1,dugout4.jpg,farm3.jpg,fabricstore1.jpg,dentist2.jpg,,
Image_List_3,,,,,,,,,,,,,,,,44584,2020-11-19_18h07.26.873,lingCatScenes,2020.1.3,Win32,60,"[1366,625]",,,"[""trial_sharp_right_box"",""trial_right_box"",""trial_slight_right_box"",""trial_ahead_box"",""trial_slight_left_box"",""trial_left_box"",""trial_sharp_left_box""]",,,,,,,,,,,,drymountains.jpg,space,10.142195,"[0.624,0.3856,0.2,0.0032,-0.2016,-0.4208,-0.5728,-0.6032]","[-0.3224,-0.308,-0.2856,-0.292,-0.308,-0.3128,-0.2984,-0.2984]","[1,1,1,1,1,1,1,1]","[0,0,0,0,0,0,0,0]","[0,0,0,0,0,0,0,0]","[1.8623100000004342,3.8117149999999356,4.761324999999488,5.761470000001282,6.711100000000442,8.277659999999742,8.926995000001625,9.643944999999917]","[""trial_sharp_right_box"",""trial_right_box"",""trial_slight_right_box"",""trial_ahead_box"",""trial_slight_left_box"",""trial_left_box"",""trial_sharp_left_box""]",0,92,92,40,1,drycleaners4.jpg,farm1.jpg,dugout1.jpg,clothingstore3.jpg,,
Image_List_3,,,,,,,,,,,,,,,,44584,2020-11-19_18h07.26.873,lingCatScenes,2020.1.3,Win32,60,"[1366,625]",,,"[""trial_right_box"",""trial_left_box""]",,,,,,,,,,,,laundromat2.jpeg,space,3.57627,"[0.424,-0.4016]","[-0.3192,-0.2968]","[1,1]","[0,0]","[0,0]","[1.6288399999974672,2.878749999999741]","[""trial_right_box"",""trial_left_box""]",0,93,93,65,1,igloo5.jpg,newsstand7.jpg,labClass7.jpg,homeoffice8.jpg,,
Image_List_3,,,,,,,,,,,,,,,,44584,2020-11-19_18h07.26.873,lingCatScenes,2020.1.3,Win32,60,"[1366,625]",,,"[""trial_slight_right_box"",""trial_slight_left_box"",""trial_ahead_box""]",,,,,,,,,,,,carmechanic4.jpeg,space,4.835525,"[0.192,-0.208,0.016]","[-0.3064,-0.3,-0.2952]","[1,1,1]","[0,0,0]","[0,0,0]","[1.5944300000010116,3.860964999999851,4.494070000000647]","[""trial_slight_right_box"",""trial_slight_left_box"",""trial_ahead_box""]",0,94,94,23,1,bus_shelter.jpg,church8.jpg,cemetery3.jpg,bleachers6.jpg,,
Image_List_3,,,,,,,,,,,,,,,,44584,2020-11-19_18h07.26.873,lingCatScenes,2020.1.3,Win32,60,"[1366,625]",,,"[""trial_ahead_box""]",,,,,,,,,,,,pier5.jpg,space,1.430895,[0.016],[-0.2952],[1],[0],[0],[1.0451649999996562],"[""trial_ahead_box""]",0,95,95,78,1,parkinglot3.jpg,poolhall1.jpg,pavilion3.jpg,observatory1.jpg,,
Image_List_3,,,,,,,,,,,,,,,,44584,2020-11-19_18h07.26.873,lingCatScenes,2020.1.3,Win32,60,"[1366,625]",,,"[""trial_ahead_box"",""trial_slight_right_box"",""trial_slight_left_box""]",,,,,,,,,,,,bambooforest5.jpg,space,11.49183,"[0.016,0.1888,-0.1936]","[-0.2952,-0.3016,-0.2872]","[1,1,1]","[0,0,0]","[0,0,0]","[4.962305000001038,7.828255000000354,10.744345000002795]","[""trial_ahead_box"",""trial_slight_right_box"",""trial_slight_left_box""]",0,96,96,12,1,baggageClaim4.jpg,bedroom6.jpg,bleachers7.jpg,backyard5.jpg,,
Image_List_3,,,,,,,,,,,,,,,,44584,2020-11-19_18h07.26.873,lingCatScenes,2020.1.3,Win32,60,"[1366,625]",,,"[""trial_right_box""]",,,,,,,,,,,,horsebarn8.jpg,space,2.918125,[0.4144],[-0.2872],[1],[0],[0],[2.6441250000024183],"[""trial_right_box""]",0,97,97,62,1,hotellobby2.jpg,minigolf.jpg,lab3.jpg,hayfield7.jpg,,
Image_List_3,,,,,,,,,,,,,,,,44584,2020-11-19_18h07.26.873,lingCatScenes,2020.1.3,Win32,60,"[1366,625]",,,[],,,,,,,,,,,,cafeteria1.jpg,space,2.22145,[],[],[],[],[],[],[],0,98,98,19,1,boardwalk2.jpg,casino3.jpg,castle4.jpg,basketballcourt.jpg,,
Image_List_3,,,,,,,,,,,,,,,,44584,2020-11-19_18h07.26.873,lingCatScenes,2020.1.3,Win32,60,"[1366,625]",,,"[""trial_right_box"",""trial_left_box""]",,,,,,,,,,,,bleachers8.jpg,space,2.765995,"[0.3952,-0.408]","[-0.2968,-0.2824]","[1,1]","[0,0]","[0,0]","[1.6111100000017586,2.477805000002263]","[""trial_right_box"",""trial_left_box""]",0,99,99,15,1,bambooforest4.jpg,cafeteria5.jpg,cabinIndoors.jpg,bar8.jpg,,
Image_List_3,,,,,,,,,,,,,,,,44584,2020-11-19_18h07.26.873,lingCatScenes,2020.1.3,Win32,60,,,,,,,,,,,,,,,,,,,,,,,,,,,,,,,,,,,space,8.477035
