image_list,key_resp_intructions.keys,key_resp_intructions.rt,key_resp_intructions_3.keys,key_resp_intructions_3.rt,PracticeComplete_2.keys,PracticeComplete_2.rt,PracticeComplete_3.keys,PracticeComplete_3.rt,demo_trials.thisRepN,demo_trials.thisTrialN,demo_trials.thisN,demo_trials.thisIndex,demo_trials.ran,demo_images,path_images,participant,date,expName,psychopyVersion,OS,frameRate,windowSize,practice_complete.keys,practice_complete.rt,boxes_checked,PracticeComplete.keys,PracticeComplete.rt,practice_trials.thisRepN,practice_trials.thisTrialN,practice_trials.thisN,practice_trials.thisIndex,practice_trials.ran,practice_images,feedback_images,key_resp_intructions_2.keys,key_resp_intructions_2.rt,Image_List_4,trial_complete.keys,trial_complete.rt,trial_mouse.x,trial_mouse.y,trial_mouse.leftButton,trial_mouse.midButton,trial_mouse.rightButton,trial_mouse.time,trial_mouse.clicked_name,trials.thisRepN,trials.thisTrialN,trials.thisN,trials.thisIndex,trials.ran,Image_List_1,Image_List_2,Image_List_3,Image_List_5,key_resp.keys,key_resp.rt
Image_List_4,space,6.893,space,2.407,space,4.697,space,11.084,0,0,0,2,1,ahead_right.jpg,ahead_right_path.jpg,44582,2020-11-17_18h59.58.650,lingCatScenes,2020.1.3,MacIntel,60,,,,,,,,,,,,,,,,,,,,,,,,,,,,,,,,,,,,
Image_List_4,,,,,space,4.791,space,7.768,0,1,1,4,1,left.jpg,left_path.jpg,44582,2020-11-17_18h59.58.650,lingCatScenes,2020.1.3,MacIntel,60,,,,,,,,,,,,,,,,,,,,,,,,,,,,,,,,,,,,
Image_List_4,,,,,space,23.736,space,1.363,0,2,2,0,1,ahead.jpg,ahead_path.jpg,44582,2020-11-17_18h59.58.650,lingCatScenes,2020.1.3,MacIntel,60,,,,,,,,,,,,,,,,,,,,,,,,,,,,,,,,,,,,
Image_List_4,,,,,space,2.711,space,8.875,0,3,3,1,1,ahead_left.jpg,ahead_left_path.jpg,44582,2020-11-17_18h59.58.650,lingCatScenes,2020.1.3,MacIntel,60,,,,,,,,,,,,,,,,,,,,,,,,,,,,,,,,,,,,
Image_List_4,,,,,space,3.503,space,1.437,0,4,4,5,1,right.jpg,right_path.jpg,44582,2020-11-17_18h59.58.650,lingCatScenes,2020.1.3,MacIntel,60,,,,,,,,,,,,,,,,,,,,,,,,,,,,,,,,,,,,
Image_List_4,,,,,space,5.561,space,1.521,0,5,5,6,1,right_left.jpg,right_left_path.jpg,44582,2020-11-17_18h59.58.650,lingCatScenes,2020.1.3,MacIntel,60,,,,,,,,,,,,,,,,,,,,,,,,,,,,,,,,,,,,
Image_List_4,,,,,space,4.374,space,3.307,0,6,6,3,1,ahead_right_left.jpg,ahead_right_left_path.jpg,44582,2020-11-17_18h59.58.650,lingCatScenes,2020.1.3,MacIntel,60,,,,,,,,,,,,,,,,,,,,,,,,,,,,,,,,,,,,
Image_List_4,,,,,,,,,,,,,,,,44582,2020-11-17_18h59.58.650,lingCatScenes,2020.1.3,MacIntel,60,"[1440,900]",space,3.487,[],space,3.131,0,0,0,6,1,right_left_2.jpg,right_left_2_path.jpg,,,,,,,,,,,,,,,,,,,,,,,
Image_List_4,,,,,,,,,,,,,,,,44582,2020-11-17_18h59.58.650,lingCatScenes,2020.1.3,MacIntel,60,"[1440,900]",space,7.205,[],space,3.178,0,1,1,1,1,ahead_left_2.jpg,ahead_left_2_path.jpg,,,,,,,,,,,,,,,,,,,,,,,
Image_List_4,,,,,,,,,,,,,,,,44582,2020-11-17_18h59.58.650,lingCatScenes,2020.1.3,MacIntel,60,"[1440,900]",space,5.201,[],space,1.698,0,2,2,4,1,left_2.jpg,left_2_path.jpg,,,,,,,,,,,,,,,,,,,,,,,
Image_List_4,,,,,,,,,,,,,,,,44582,2020-11-17_18h59.58.650,lingCatScenes,2020.1.3,MacIntel,60,"[1440,900]",space,1.356,[],space,0.61,0,3,3,0,1,ahead_2.jpg,ahead_2_path.jpg,,,,,,,,,,,,,,,,,,,,,,,
Image_List_4,,,,,,,,,,,,,,,,44582,2020-11-17_18h59.58.650,lingCatScenes,2020.1.3,MacIntel,60,"[1440,900]",space,1.506,[],space,0.647,0,4,4,5,1,right_2.jpg,right_2_path.jpg,,,,,,,,,,,,,,,,,,,,,,,
Image_List_4,,,,,,,,,,,,,,,,44582,2020-11-17_18h59.58.650,lingCatScenes,2020.1.3,MacIntel,60,"[1440,900]",space,2.076,[],space,1.578,0,5,5,3,1,ahead_right_left_2.jpg,ahead_right_left_2_path.jpg,,,,,,,,,,,,,,,,,,,,,,,
Image_List_4,,,,,,,,,,,,,,,,44582,2020-11-17_18h59.58.650,lingCatScenes,2020.1.3,MacIntel,60,"[1440,900]",space,2.812,[],space,1.641,0,6,6,2,1,ahead_right_2.jpg,ahead_right_2_path.jpg,,,,,,,,,,,,,,,,,,,,,,,
Image_List_4,,,,,,,,,,,,,,,,44582,2020-11-17_18h59.58.650,lingCatScenes,2020.1.3,MacIntel,60,"[1440,900]",,,[],,,,,,,,,,space,3.064,warehouseoutside2.jpg,space,15.149,[],[],[],[],[],[],[],0,0,0,93,1,tollbooth8.jpg,volleyballcourt4.jpg,staircase4.jpg,tenniscourt.jpg,,
Image_List_4,,,,,,,,,,,,,,,,44582,2020-11-17_18h59.58.650,lingCatScenes,2020.1.3,MacIntel,60,"[1440,900]",,,[],,,,,,,,,,,,churchInside3.jpg,space,28.211,[],[],[],[],[],[],[],0,1,1,26,1,campusquad2.jpg,cornfield4.jpg,church4.jpg,botanicalGarden7.jpg,,
Image_List_4,,,,,,,,,,,,,,,,44582,2020-11-17_18h59.58.650,lingCatScenes,2020.1.3,MacIntel,60,"[1440,837]",,,[],,,,,,,,,,,,checkoutcounter2.jpg,space,0.81,[],[],[],[],[],[],[],0,2,2,25,1,campsite7.jpg,conference3.jpg,church3.jpg,botanicalGarden4.jpg,,
Image_List_4,,,,,,,,,,,,,,,,44582,2020-11-17_18h59.58.650,lingCatScenes,2020.1.3,MacIntel,60,"[1440,837]",,,[],,,,,,,,,,,,hayfield4.jpg,space,19.809,[],[],[],[],[],[],[],0,3,3,51,1,gasstation6.jpg,hallway5.jpg,frontDoor5.jpg,firestation5.jpg,,
Image_List_4,,,,,,,,,,,,,,,,44582,2020-11-17_18h59.58.650,lingCatScenes,2020.1.3,MacIntel,60,"[1440,837]",,,[],,,,,,,,,,,,tvstudio2.jpg,space,0.363,[],[],[],[],[],[],[],0,4,4,92,1,staircase.jpg,volleyballcourt.jpg,skatepark7.jpg,soccerfield2.jpg,,
Image_List_4,,,,,,,,,,,,,,,,44582,2020-11-17_18h59.58.650,lingCatScenes,2020.1.3,MacIntel,60,"[1440,837]",,,[],,,,,,,,,,,,appleorchard3.jpg,space,0.476,[],[],[],[],[],[],[],0,5,5,4,1,artStudio1.jpg,baggageClaim2.jpg,auto_showroom1.jpg,alley4.jpg,,
Image_List_4,,,,,,,,,,,,,,,,44582,2020-11-17_18h59.58.650,lingCatScenes,2020.1.3,MacIntel,60,"[1440,837]",,,[],,,,,,,,,,,,hut5.jpg,space,1.118,[],[],[],[],[],[],[],0,6,6,57,1,hayfield5.jpg,jail1.jpg,hallway4.jpg,gazebo.jpg,,
Image_List_4,,,,,,,,,,,,,,,,44582,2020-11-17_18h59.58.650,lingCatScenes,2020.1.3,MacIntel,60,"[1440,837]",,,[],,,,,,,,,,,,castle2.jpg,space,0.186,[],[],[],[],[],[],[],0,7,7,18,1,bleachers5.jpg,casino1.jpg,brewery4.jpg,basement6.jpg,,
Image_List_4,,,,,,,,,,,,,,,,44582,2020-11-17_18h59.58.650,lingCatScenes,2020.1.3,MacIntel,60,"[1440,837]",,,[],,,,,,,,,,,,fountain7.jpg,space,0.2,[],[],[],[],[],[],[],0,8,8,47,1,frontDoor.jpg,gasstation8.jpg,firestation4.jpg,elevatorOutside2.jpg,,
Image_List_4,,,,,,,,,,,,,,,,44582,2020-11-17_18h59.58.650,lingCatScenes,2020.1.3,MacIntel,60,"[1440,837]",,,[],,,,,,,,,,,,sandDunes_desert_outdoor.jpg,space,1.195,[],[],[],[],[],[],[],0,9,9,84,1,readingroom5.jpg,sidewalk2.jpg,restaurant13.jpg,rooftop2.jpg,,
Image_List_4,,,,,,,,,,,,,,,,44582,2020-11-17_18h59.58.650,lingCatScenes,2020.1.3,MacIntel,60,"[1440,837]",,,[],,,,,,,,,,,,fabricstore1.jpg,space,0.348,[],[],[],[],[],[],[],0,10,10,41,1,dugout4.jpg,farm3.jpg,drymountains3.jpg,dentist2.jpg,,
Image_List_4,,,,,,,,,,,,,,,,44582,2020-11-17_18h59.58.650,lingCatScenes,2020.1.3,MacIntel,60,"[1440,837]",,,[],,,,,,,,,,,,greenhouse.jpg,space,0.31,[],[],[],[],[],[],[],0,11,11,49,1,frontDoor3.jpg,greenhouse5.jpg,flowershop3.jpg,farm2.jpg,,
Image_List_4,,,,,,,,,,,,,,,,44582,2020-11-17_18h59.58.650,lingCatScenes,2020.1.3,MacIntel,60,"[1440,837]",,,[],,,,,,,,,,,,attic4.jpg,space,0.309,[],[],[],[],[],[],[],0,12,12,5,1,artStudio3.jpg,bambooforest.jpg,auto_showroom4.jpg,amusement3.jpg,,
Image_List_4,,,,,,,,,,,,,,,,44582,2020-11-17_18h59.58.650,lingCatScenes,2020.1.3,MacIntel,60,"[1440,837]",,,[],,,,,,,,,,,,bleachers7.jpg,space,0.314,[],[],[],[],[],[],[],0,13,13,12,1,baggageClaim4.jpg,bedroom6.jpg,bambooforest5.jpg,backyard5.jpg,,
Image_List_4,,,,,,,,,,,,,,,,44582,2020-11-17_18h59.58.650,lingCatScenes,2020.1.3,MacIntel,60,"[1440,837]",,,[],,,,,,,,,,,,courtroom2.jpg,space,0.342,[],[],[],[],[],[],[],0,14,14,31,1,cubicle4.jpg,desertvegetation6.jpg,conference4.jpg,cabin3.jpg,,
Image_List_4,,,,,,,,,,,,,,,,44582,2020-11-17_18h59.58.650,lingCatScenes,2020.1.3,MacIntel,60,"[1440,837]",,,[],,,,,,,,,,,,dugout1.jpg,space,5.116,[],[],[],[],[],[],[],0,15,15,40,1,drycleaners4.jpg,farm1.jpg,drymountains.jpg,clothingstore3.jpg,,
Image_List_4,,,,,,,,,,,,,,,,44582,2020-11-17_18h59.58.650,lingCatScenes,2020.1.3,MacIntel,60,"[1440,837]",,,[],,,,,,,,,,,,campusquad4.jpg,space,0.21,[],[],[],[],[],[],[],0,16,16,16,1,basement.jpg,cafeteria6.jpg,breakroom2.jpg,barbershop2.jpg,,
Image_List_4,,,,,,,,,,,,,,,,44582,2020-11-17_18h59.58.650,lingCatScenes,2020.1.3,MacIntel,60,"[1440,837]",,,[],,,,,,,,,,,,airportTerminal3.jpg,space,0.178,[],[],[],[],[],[],[],0,17,17,1,1,airportTerminal4.jpg,apartmentBuilding1.jpg,applestore1.jpg,airportTerminal2.jpg,,
Image_List_4,,,,,,,,,,,,,,,,44582,2020-11-17_18h59.58.650,lingCatScenes,2020.1.3,MacIntel,60,"[1440,837]",,,[],,,,,,,,,,,,staircase7.jpg,space,0.417,[],[],[],[],[],[],[],0,18,18,89,1,ruralroad7.jpg,track5.jpg,ShowJumping7.jpg,sculpturegarden3.jpg,,
Image_List_4,,,,,,,,,,,,,,,,44582,2020-11-17_18h59.58.650,lingCatScenes,2020.1.3,MacIntel,60,"[1440,837]",,,[],,,,,,,,,,,,kindergarten_classroom7.jpg,space,0.618,[],[],[],[],[],[],[],0,19,19,61,1,HorseRaceTrack.jpg,metroInside4.jpg,homegarden6.jpg,hayfield6.jpg,,
Image_List_4,,,,,,,,,,,,,,,,44582,2020-11-17_18h59.58.650,lingCatScenes,2020.1.3,MacIntel,60,"[1440,837]",,,[],,,,,,,,,,,,lab3.jpg,space,9.15,[],[],[],[],[],[],[],0,20,20,62,1,hotellobby2.jpg,minigolf.jpg,horsebarn8.jpg,hayfield7.jpg,,
Image_List_4,,,,,,,,,,,,,,,,44582,2020-11-17_18h59.58.650,lingCatScenes,2020.1.3,MacIntel,60,"[1440,837]",,,[],,,,,,,,,,,,sandDunes_desert_outdoor8.jpg,space,1.201,[],[],[],[],[],[],[],0,21,21,86,1,restaurant14.jpg,stripmall.jpg,ruralroad3.jpg,rooftop4.jpg,,
Image_List_4,,,,,,,,,,,,,,,,44582,2020-11-17_18h59.58.650,lingCatScenes,2020.1.3,MacIntel,60,"[1440,837]",,,[],,,,,,,,,,,,pier2.jpg,space,0.796,[],[],[],[],[],[],[],0,22,22,79,1,pasture.jpg,poolhall2.jpeg,playground9.jpg,observatory2.jpg,,
Image_List_4,,,,,,,,,,,,,,,,44582,2020-11-17_18h59.58.650,lingCatScenes,2020.1.3,MacIntel,60,"[1440,837]",,,[],,,,,,,,,,,,cabinIndoors.jpg,space,1.625,[],[],[],[],[],[],[],0,23,23,15,1,bambooforest4.jpg,cafeteria5.jpg,bleachers8.jpg,bar8.jpg,,
Image_List_4,,,,,,,,,,,,,,,,44582,2020-11-17_18h59.58.650,lingCatScenes,2020.1.3,MacIntel,60,"[1440,837]",,,[],,,,,,,,,,,,apartmentBuilding4.jpg,space,3.857,[],[],[],[],[],[],[],0,24,24,2,1,alley1.jpg,arcade1.jpg,applestore6.jpg,airportTerminal6.jpg,,
Image_List_4,,,,,,,,,,,,,,,,44582,2020-11-17_18h59.58.650,lingCatScenes,2020.1.3,MacIntel,60,"[1440,837]",,,[],,,,,,,,,,,,diner11.jpg,space,4.292,[],[],[],[],[],[],[],0,25,25,34,1,deck4.jpg,diningroom5.jpg,courthouse4.jpg,campusquad1.jpg,,
Image_List_4,,,,,,,,,,,,,,,,44582,2020-11-17_18h59.58.650,lingCatScenes,2020.1.3,MacIntel,60,"[1440,837]",,,[],,,,,,,,,,,,museum3.jpg,space,1.145,[],[],[],[],[],[],[],0,26,26,71,1,metroInside2.jpg,pavilion5.jpg,metroInside3.jpg,jewelrystore.jpg,,
Image_List_4,,,,,,,,,,,,,,,,44582,2020-11-17_18h59.58.650,lingCatScenes,2020.1.3,MacIntel,60,"[1440,837]",,,[],,,,,,,,,,,,foodcourt.jpg,space,3.242,[],[],[],[],[],[],[],0,27,27,43,1,exerciseequipment5.jpg,forestpath10.jpg,dugout2.jpg,diningroom3.jpg,,
Image_List_4,,,,,,,,,,,,,,,,44582,2020-11-17_18h59.58.650,lingCatScenes,2020.1.3,MacIntel,60,"[1440,837]",,,[],,,,,,,,,,,,fountain4.jpg,space,3.233,[],[],[],[],[],[],[],0,28,28,46,1,flowershop.jpg,frontLawn5.jpg,farmersmarket4.jpg,dormroom6.jpg,,
Image_List_4,,,,,,,,,,,,,,,,44582,2020-11-17_18h59.58.650,lingCatScenes,2020.1.3,MacIntel,60,"[1440,837]",,,[],,,,,,,,,,,,sandDunes_desert_outdoor3.jpg,space,0.842,[],[],[],[],[],[],[],0,29,29,85,1,recordingstudio4.jpg,sidewalk5.jpg,ruralroad2.jpg,rooftop3.jpg,,
Image_List_4,,,,,,,,,,,,,,,,44582,2020-11-17_18h59.58.650,lingCatScenes,2020.1.3,MacIntel,60,"[1440,837]",,,[],,,,,,,,,,,,diner10.jpg,space,2.182,[],[],[],[],[],[],[],0,30,30,33,1,deck1.jpg,diningroom1.jpg,courthouse2.jpg,cabinIndoors5.jpg,,
Image_List_4,,,,,,,,,,,,,,,,44582,2020-11-17_18h59.58.650,lingCatScenes,2020.1.3,MacIntel,60,"[1440,837]",,,[],,,,,,,,,,,,copyroom2.jpg,space,1.231,[],[],[],[],[],[],[],0,31,31,30,1,courthouse1.jpg,desertvegetation3.jpg,clothingstore2.jpg,bus_shelter3.jpg,,
Image_List_4,,,,,,,,,,,,,,,,44582,2020-11-17_18h59.58.650,lingCatScenes,2020.1.3,MacIntel,60,"[1440,837]",,,[],,,,,,,,,,,,rainforest5.jpg,space,0.841,[],[],[],[],[],[],[],0,32,32,81,1,promenadeDeck.jpg,ruralroad5.jpg,promenadeDeck2.jpg,pasture8.jpg,,
Image_List_4,,,,,,,,,,,,,,,,44582,2020-11-17_18h59.58.650,lingCatScenes,2020.1.3,MacIntel,60,"[1440,837]",,,[],,,,,,,,,,,,readingroom4.jpg,space,0.944,[],[],[],[],[],[],[],0,33,33,82,1,publicrestroom2.jpg,sandDunes_desert_outdoor9.jpg,promenadeDeck3.jpg,postoffice4.jpg,,
Image_List_4,,,,,,,,,,,,,,,,44582,2020-11-17_18h59.58.650,lingCatScenes,2020.1.3,MacIntel,60,"[1440,837]",,,[],,,,,,,,,,,,stripmall3.jpg,space,0.795,[],[],[],[],[],[],[],0,34,34,90,1,savanna5.jpg,trainStation1.jpg,sidewalk1.jpg,shoestore4.jpg,,
Image_List_4,,,,,,,,,,,,,,,,44582,2020-11-17_18h59.58.650,lingCatScenes,2020.1.3,MacIntel,60,"[1440,837]",,,[],,,,,,,,,,,,foodcourt6.jpg,space,0.635,[],[],[],[],[],[],[],0,35,35,44,1,firestation2.jpg,frontFoyer4.jpg,elevatorOutside1.jpg,dock2.jpg,,
Image_List_4,,,,,,,,,,,,,,,,44582,2020-11-17_18h59.58.650,lingCatScenes,2020.1.3,MacIntel,60,"[1440,837]",,,[],,,,,,,,,,,,cemetery.jpg,space,2.401,[],[],[],[],[],[],[],0,36,36,22,1,bowlingalley5.jpg,church6.jpg,cargo5.jpg,bistrooutdoor6.jpg,,
Image_List_4,,,,,,,,,,,,,,,,44582,2020-11-17_18h59.58.650,lingCatScenes,2020.1.3,MacIntel,60,"[1440,837]",,,[],,,,,,,,,,,,kindergarten_classroom5.jpg,space,0.351,[],[],[],[],[],[],[],0,37,37,59,1,homegarden7.jpg,library_aisle8.jpg,highway4.jpg,grocerystore3.jpg,,
Image_List_4,,,,,,,,,,,,,,,,44582,2020-11-17_18h59.58.650,lingCatScenes,2020.1.3,MacIntel,60,"[1440,837]",,,[],,,,,,,,,,,,lockerroom2.jpg,space,0.433,[],[],[],[],[],[],[],0,38,38,68,1,liquorstore7.jpg,parkinglot.jpg,lightingstore4.jpg,hospitalroom3.jpg,,
Image_List_4,,,,,,,,,,,,,,,,44582,2020-11-17_18h59.58.650,lingCatScenes,2020.1.3,MacIntel,60,"[1440,837]",,,[],,,,,,,,,,,,homegarage3.jpg,space,0.833,[],[],[],[],[],[],[],0,39,39,53,1,gazebo3.jpg,homeoffice.jpg,frontLawn3.jpg,fountain.jpg,,
Image_List_4,,,,,,,,,,,,,,,,44582,2020-11-17_18h59.58.650,lingCatScenes,2020.1.3,MacIntel,60,"[1440,837]",,,[],,,,,,,,,,,,park8.jpg,space,1.968,[],[],[],[],[],[],[],0,40,40,77,1,parkinggarage2.jpg,playroom6.jpg,pasture9.jpg,mallindoor6.jpg,,
Image_List_4,,,,,,,,,,,,,,,,44582,2020-11-17_18h59.58.650,lingCatScenes,2020.1.3,MacIntel,60,"[1440,837]",,,[],,,,,,,,,,,,metroInside1.jpg,space,0.218,[],[],[],[],[],[],[],0,41,41,69,1,liquorstore8.jpg,parkinglot2.jpg,livingroom.jpg,icecream2.jpg,,
Image_List_4,,,,,,,,,,,,,,,,44582,2020-11-17_18h59.58.650,lingCatScenes,2020.1.3,MacIntel,60,"[1440,837]",,,[],,,,,,,,,,,,carmechanic.jpg,space,0.199,[],[],[],[],[],[],[],0,42,42,17,1,bikerack1.jpg,campsite6.jpg,breakroom4.jpg,baseball6.jpg,,
Image_List_4,,,,,,,,,,,,,,,,44582,2020-11-17_18h59.58.650,lingCatScenes,2020.1.3,MacIntel,60,"[1440,837]",,,[],,,,,,,,,,,,cave5.jpg,space,0.16,[],[],[],[],[],[],[],0,43,43,21,1,botanicalGarden6.jpg,cemetery6.jpg,campusquad3.jpg,beach1.jpeg,,
Image_List_4,,,,,,,,,,,,,,,,44582,2020-11-17_18h59.58.650,lingCatScenes,2020.1.3,MacIntel,60,"[1440,837]",,,[],,,,,,,,,,,,weightroom.jpg,space,0.178,[],[],[],[],[],[],[],0,44,44,94,1,treehouse.jpg,waitingroom3.jpg,staircase6.jpg,trainStation3.jpg,,
Image_List_4,,,,,,,,,,,,,,,,44582,2020-11-17_18h59.58.650,lingCatScenes,2020.1.3,MacIntel,60,"[1440,837]",,,[],,,,,,,,,,,,wrestlingring7.jpg,space,0.178,[],[],[],[],[],[],[],0,45,45,99,1,wineVineyard9.jpg,yogastudio4.jpg,windmill2.jpg,yogastudio1.jpg,,
Image_List_4,,,,,,,,,,,,,,,,44582,2020-11-17_18h59.58.650,lingCatScenes,2020.1.3,MacIntel,60,"[1440,837]",,,[],,,,,,,,,,,,baywindow5.jpg,space,0.169,[],[],[],[],[],[],[],0,46,46,11,1,backyard2.jpg,basketballcourt4.jpg,bambooforest3.jpg,backyard1.jpg,,
Image_List_4,,,,,,,,,,,,,,,,44582,2020-11-17_18h59.58.650,lingCatScenes,2020.1.3,MacIntel,60,"[1440,837]",,,[],,,,,,,,,,,,operatingroom1.jpg,space,0.196,[],[],[],[],[],[],[],0,47,47,74,1,newsstand2.jpg,playground10.jpg,observatory4.jpeg,lightingstore2.jpg,,
Image_List_4,,,,,,,,,,,,,,,,44582,2020-11-17_18h59.58.650,lingCatScenes,2020.1.3,MacIntel,60,"[1440,837]",,,[],,,,,,,,,,,,park2.jpg,space,0.163,[],[],[],[],[],[],[],0,48,48,76,1,parkinggarage.jpg,playroom4.jpg,parkinggarage3.jpg,lookout4.jpg,,
Image_List_4,,,,,,,,,,,,,,,,44582,2020-11-17_18h59.58.650,lingCatScenes,2020.1.3,MacIntel,60,"[1440,837]",,,[],,,,,,,,,,,,airplanecabin5.jpg,space,0.297,[],[],[],[],[],[],[],0,49,49,0,1,airplanecabin1.jpg,alley2.jpg,appleorchard4.jpg,airplanecabin3.jpg,,
Image_List_4,,,,,,,,,,,,,,,,44582,2020-11-17_18h59.58.650,lingCatScenes,2020.1.3,MacIntel,60,"[1440,837]",,,[],,,,,,,,,,,,castle4.jpg,space,0.179,[],[],[],[],[],[],[],0,50,50,19,1,boardwalk2.jpg,casino3.jpg,cafeteria1.jpg,basketballcourt.jpg,,
Image_List_4,,,,,,,,,,,,,,,,44582,2020-11-17_18h59.58.650,lingCatScenes,2020.1.3,MacIntel,60,"[1440,837]",,,[],,,,,,,,,,,,restaurant8.jpg,space,0.192,[],[],[],[],[],[],[],0,51,51,83,1,readingroom1.jpg,sculpturegarden1.jpg,promenadeDeck6.jpg,readingroom2.jpg,,
Image_List_4,,,,,,,,,,,,,,,,44582,2020-11-17_18h59.58.650,lingCatScenes,2020.1.3,MacIntel,60,"[1440,837]",,,[],,,,,,,,,,,,igloo4.jpg,space,0.261,[],[],[],[],[],[],[],0,52,52,58,1,highway7.jpg,lab1.jpg,hedgemaze1.jpg,grocerystore2.jpg,,
Image_List_4,,,,,,,,,,,,,,,,44582,2020-11-17_18h59.58.650,lingCatScenes,2020.1.3,MacIntel,60,"[1440,837]",,,[],,,,,,,,,,,,basement5.jpg,space,0.18,[],[],[],[],[],[],[],0,53,53,9,1,auto_showroom3.jpg,bar2.jpg,ballroom2.jpg,arcade2.jpg,,
Image_List_4,,,,,,,,,,,,,,,,44582,2020-11-17_18h59.58.650,lingCatScenes,2020.1.3,MacIntel,60,"[1440,837]",,,[],,,,,,,,,,,,hotelRoom7.jpg,space,0.26,[],[],[],[],[],[],[],0,54,54,55,1,greenmountains.jpg,hotelRoom3.jpg,gazebo5.jpg,frontLawn2.jpg,,
Image_List_4,,,,,,,,,,,,,,,,44582,2020-11-17_18h59.58.650,lingCatScenes,2020.1.3,MacIntel,60,"[1440,837]",,,[],,,,,,,,,,,,hut1.jpg,space,0.182,[],[],[],[],[],[],[],0,55,55,56,1,grocerystore5.jpg,hut3.jpg,golfcourse10.jpg,gasstation2.jpg,,
Image_List_4,,,,,,,,,,,,,,,,44582,2020-11-17_18h59.58.650,lingCatScenes,2020.1.3,MacIntel,60,"[1440,837]",,,[],,,,,,,,,,,,dentist4.jpg,space,0.185,[],[],[],[],[],[],[],0,56,56,32,1,dancestudio6.jpg,diner12.jpg,constructionSite2.jpg,cabin4.jpg,,
Image_List_4,,,,,,,,,,,,,,,,44582,2020-11-17_18h59.58.650,lingCatScenes,2020.1.3,MacIntel,60,"[1440,837]",,,[],,,,,,,,,,,,liquorstore2.jpg,space,0.169,[],[],[],[],[],[],[],0,57,57,67,1,library_aisle3.jpg,park7.jpg,laundromat4.jpg,hospitalroom2.jpg,,
Image_List_4,,,,,,,,,,,,,,,,44582,2020-11-17_18h59.58.650,lingCatScenes,2020.1.3,MacIntel,60,"[1440,837]",,,[],,,,,,,,,,,,poolhall5.jpg,space,0.17,[],[],[],[],[],[],[],0,58,58,80,1,pavilion2.jpg,racecarcourse2.jpg,porch.jpg,parkinggarage4.jpg,,
Image_List_4,,,,,,,,,,,,,,,,44582,2020-11-17_18h59.58.650,lingCatScenes,2020.1.3,MacIntel,60,"[1440,837]",,,[],,,,,,,,,,,,hallway2.jpg,space,0.166,[],[],[],[],[],[],[],0,59,59,50,1,frontLawn4.jpg,grocerystore6.jpg,forestpath6.jpg,fireplace4.jpg,,
Image_List_4,,,,,,,,,,,,,,,,44582,2020-11-17_18h59.58.650,lingCatScenes,2020.1.3,MacIntel,60,"[1440,837]",,,[],,,,,,,,,,,,soccerfield.jpg,space,0.296,[],[],[],[],[],[],[],0,60,60,88,1,rooftop1.jpg,track.jpg,sculpturegarden4.jpg,sandbox.jpg,,
Image_List_4,,,,,,,,,,,,,,,,44582,2020-11-17_18h59.58.650,lingCatScenes,2020.1.3,MacIntel,60,"[1440,837]",,,[],,,,,,,,,,,,winebarrel3.jpg,space,0.193,[],[],[],[],[],[],[],0,61,61,97,1,warehouseoutside4.jpg,wineVineyard2.jpg,waitingroom4.jpg,warehouseoutside3.jpg,,
Image_List_4,,,,,,,,,,,,,,,,44582,2020-11-17_18h59.58.650,lingCatScenes,2020.1.3,MacIntel,60,"[1440,837]",,,[],,,,,,,,,,,,ticket_counter6.jpg,space,0.178,[],[],[],[],[],[],[],0,62,62,91,1,shoestore2.jpg,trainStation5.jpg,skatepark5.jpg,sidewalk3.jpg,,
Image_List_4,,,,,,,,,,,,,,,,44582,2020-11-17_18h59.58.650,lingCatScenes,2020.1.3,MacIntel,60,"[1440,837]",,,[],,,,,,,,,,,,farm4.jpg,space,0.166,[],[],[],[],[],[],[],0,63,63,42,1,exerciseequipment3.jpg,firestation3.jpg,drymountains6.jpg,desertvegetation2.jpg,,
Image_List_4,,,,,,,,,,,,,,,,44582,2020-11-17_18h59.58.650,lingCatScenes,2020.1.3,MacIntel,60,"[1440,837]",,,[],,,,,,,,,,,,dining_car6.jpg,space,0.161,[],[],[],[],[],[],[],0,64,64,35,1,deck5.jpg,dock3.jpg,cubicle7.jpg,carmechanic2.jpg,,
Image_List_4,,,,,,,,,,,,,,,,44582,2020-11-17_18h59.58.650,lingCatScenes,2020.1.3,MacIntel,60,"[1440,837]",,,[],,,,,,,,,,,,doctor1.jpg,space,0.167,[],[],[],[],[],[],[],0,65,65,36,1,diner14.jpg,dormroom9.jpg,dining_car3.jpg,checkoutcounter9.jpg,,
Image_List_4,,,,,,,,,,,,,,,,44582,2020-11-17_18h59.58.650,lingCatScenes,2020.1.3,MacIntel,60,"[1440,837]",,,[],,,,,,,,,,,,highway.jpg,space,0.185,[],[],[],[],[],[],[],0,66,66,52,1,gasstation7.jpg,hardwarestore1.jpg,frontFoyer6.jpg,forestpath2.jpg,,
Image_List_4,,,,,,,,,,,,,,,,44582,2020-11-17_18h59.58.650,lingCatScenes,2020.1.3,MacIntel,60,"[1440,837]",,,[],,,,,,,,,,,,sculpturegarden2.jpg,space,0.184,[],[],[],[],[],[],[],0,67,67,87,1,restaurantkitchen2.jpg,theater2.jpg,savanna.jpg,RVinside2.jpg,,
Image_List_4,,,,,,,,,,,,,,,,44582,2020-11-17_18h59.58.650,lingCatScenes,2020.1.3,MacIntel,60,"[1440,837]",,,[],,,,,,,,,,,,nursery4.jpg,space,0.179,[],[],[],[],[],[],[],0,68,68,73,1,musicStore3.jpg,photographer_studio2.jpg,nursery.jpg,library_aisle9.jpg,,
Image_List_4,,,,,,,,,,,,,,,,44582,2020-11-17_18h59.58.650,lingCatScenes,2020.1.3,MacIntel,60,"[1440,837]",,,[],,,,,,,,,,,,weightroom4.jpg,space,0.167,[],[],[],[],[],[],[],0,69,69,95,1,waitingroom2.jpg,warehouse2.jpg,stripmall6.jpg,tvstudio3.jpg,,
Image_List_4,,,,,,,,,,,,,,,,44582,2020-11-17_18h59.58.650,lingCatScenes,2020.1.3,MacIntel,60,"[1440,837]",,,[],,,,,,,,,,,,lab4.jpg,space,0.185,[],[],[],[],[],[],[],0,70,70,63,1,hut2.jpg,museum6.jpg,hotelRoom2.jpg,highway2.jpg,,
Image_List_4,,,,,,,,,,,,,,,,44582,2020-11-17_18h59.58.650,lingCatScenes,2020.1.3,MacIntel,60,"[1440,837]",,,[],,,,,,,,,,,,labClass7.jpg,space,0.178,[],[],[],[],[],[],[],0,71,71,65,1,igloo5.jpg,newsstand7.jpg,laundromat2.jpeg,homeoffice8.jpg,,
Image_List_4,,,,,,,,,,,,,,,,44582,2020-11-17_18h59.58.650,lingCatScenes,2020.1.3,MacIntel,60,"[1440,837]",,,[],,,,,,,,,,,,baggageClaim3.jpg,space,0.177,[],[],[],[],[],[],[],0,72,72,7,1,attic2.jpg,banquetHall4.jpg,backstage1.jpg,applestore2.jpg,,
Image_List_4,,,,,,,,,,,,,,,,44582,2020-11-17_18h59.58.650,lingCatScenes,2020.1.3,MacIntel,60,"[1440,837]",,,[],,,,,,,,,,,,bar.jpg,space,0.158,[],[],[],[],[],[],[],0,73,73,8,1,attic3.jpg,banquetHall6.jpg,balconyIN.jpg,applestore4.jpg,,
Image_List_4,,,,,,,,,,,,,,,,44582,2020-11-17_18h59.58.650,lingCatScenes,2020.1.3,MacIntel,60,"[1440,837]",,,[],,,,,,,,,,,,cemetery5.jpg,space,0.16,[],[],[],[],[],[],[],0,74,74,24,1,campsite.jpg,cliff3.jpg,cave6.jpg,boardwalk.jpg,,
Image_List_4,,,,,,,,,,,,,,,,44582,2020-11-17_18h59.58.650,lingCatScenes,2020.1.3,MacIntel,60,"[1440,837]",,,[],,,,,,,,,,,,kindergarten_classroom6.jpg,space,0.117,[],[],[],[],[],[],[],0,75,75,60,1,hometheater2.jpg,lightingstore3.jpg,homegarage.jpg,hallway.jpg,,
Image_List_4,,,,,,,,,,,,,,,,44582,2020-11-17_18h59.58.650,lingCatScenes,2020.1.3,MacIntel,60,"[1440,837]",,,[],,,,,,,,,,,,closet.jpg,space,0.177,[],[],[],[],[],[],[],0,76,76,27,1,castle3.jpg,courtroom3.jpg,churchInside4.jpg,brewery2.jpg,,
Image_List_4,,,,,,,,,,,,,,,,44582,2020-11-17_18h59.58.650,lingCatScenes,2020.1.3,MacIntel,60,"[1440,837]",,,[],,,,,,,,,,,,homegarage4.jpg,space,0.144,[],[],[],[],[],[],[],0,77,77,54,1,greenhouse2.jpg,horsebarn11.jpg,gazebo2.jpg,frontFoyer.jpg,,
Image_List_4,,,,,,,,,,,,,,,,44582,2020-11-17_18h59.58.650,lingCatScenes,2020.1.3,MacIntel,60,"[1440,837]",,,[],,,,,,,,,,,,pavilion3.jpg,space,0.176,[],[],[],[],[],[],[],0,78,78,78,1,parkinglot3.jpg,poolhall1.jpg,pier5.jpg,observatory1.jpg,,
Image_List_4,,,,,,,,,,,,,,,,44582,2020-11-17_18h59.58.650,lingCatScenes,2020.1.3,MacIntel,60,"[1440,837]",,,[],,,,,,,,,,,,golfcourse7.jpg,space,11.385,[],[],[],[],[],[],[],0,79,79,48,1,frontDoor2.jpg,golfcourse6.jpg,fittingroom5.jpg,fabricstore2.jpg,,
Image_List_4,,,,,,,,,,,,,,,,44582,2020-11-17_18h59.58.650,lingCatScenes,2020.1.3,MacIntel,60,"[1440,837]",,,[],,,,,,,,,,,,constructionSite4.jpg,space,0.198,[],[],[],[],[],[],[],0,80,80,29,1,cornfield2.jpg,deck2.jpg,cliff2.jpg,bridalboutique3.jpg,,
Image_List_4,,,,,,,,,,,,,,,,44582,2020-11-17_18h59.58.650,lingCatScenes,2020.1.3,MacIntel,60,"[1440,837]",,,[],,,,,,,,,,,,baggageClaim1.jpg,space,0.178,[],[],[],[],[],[],[],0,81,81,6,1,ATM1.jpg,banquetHall2.jpg,auto_showroom5.jpg,apartmentBuilding3.jpg,,
Image_List_4,,,,,,,,,,,,,,,,44582,2020-11-17_18h59.58.650,lingCatScenes,2020.1.3,MacIntel,60,"[1440,837]",,,[],,,,,,,,,,,,driveway8.jpg,space,0.185,[],[],[],[],[],[],[],0,82,82,38,1,dining_car2.jpg,elevatorOutside4.jpg,dock1.jpg,classroom1.jpg,,
Image_List_4,,,,,,,,,,,,,,,,44582,2020-11-17_18h59.58.650,lingCatScenes,2020.1.3,MacIntel,60,"[1440,837]",,,[],,,,,,,,,,,,cemetery3.jpg,space,0.178,[],[],[],[],[],[],[],0,83,83,23,1,bus_shelter.jpg,church8.jpg,carmechanic4.jpeg,bleachers6.jpg,,
Image_List_4,,,,,,,,,,,,,,,,44582,2020-11-17_18h59.58.650,lingCatScenes,2020.1.3,MacIntel,60,"[1440,837]",,,[],,,,,,,,,,,,driveway7.jpg,space,0.151,[],[],[],[],[],[],[],0,84,84,37,1,dining_car.jpg,driveway4.jpg,dinosaur4.jpg,citystreet9.jpg,,
Image_List_4,,,,,,,,,,,,,,,,44582,2020-11-17_18h59.58.650,lingCatScenes,2020.1.3,MacIntel,60,"[1440,837]",,,[],,,,,,,,,,,,forestpath4.jpg,space,0.168,[],[],[],[],[],[],[],0,85,85,45,1,fittingroom2.jpg,frontFoyer7.jpg,factory1.jpg,dock4.jpg,,
Image_List_4,,,,,,,,,,,,,,,,44582,2020-11-17_18h59.58.650,lingCatScenes,2020.1.3,MacIntel,60,"[1440,837]",,,[],,,,,,,,,,,,windmill1.jpg,space,0.145,[],[],[],[],[],[],[],0,86,86,96,1,warehouse4.jpg,warehouseoutside1.jpg,tenniscourt3.jpg,warehouse1.jpg,,
Image_List_4,,,,,,,,,,,,,,,,44582,2020-11-17_18h59.58.650,lingCatScenes,2020.1.3,MacIntel,60,"[1440,837]",,,[],,,,,,,,,,,,appleorchard2.jpg,space,0.133,[],[],[],[],[],[],[],0,87,87,3,1,apartmentBuilding2.jpg,attic1.jpg,aquarium1.jpg,alley3.jpg,,
Image_List_4,,,,,,,,,,,,,,,,44582,2020-11-17_18h59.58.650,lingCatScenes,2020.1.3,MacIntel,60,"[1440,837]",,,[],,,,,,,,,,,,botanicalGarden5.jpg,space,0.165,[],[],[],[],[],[],[],0,88,88,14,1,ballroom1.jpg,breakroom5.jpg,bistrooutdoor5.jpg,ballroom3.jpg,,
Image_List_4,,,,,,,,,,,,,,,,44582,2020-11-17_18h59.58.650,lingCatScenes,2020.1.3,MacIntel,60,"[1440,837]",,,[],,,,,,,,,,,,liquorstore.jpg,space,0.177,[],[],[],[],[],[],[],0,89,89,66,1,library_aisle10.jpg,office3.jpg,laundromat3.jpg,horsebarn9.jpg,,
Image_List_4,,,,,,,,,,,,,,,,44582,2020-11-17_18h59.58.650,lingCatScenes,2020.1.3,MacIntel,60,"[1440,837]",,,[],,,,,,,,,,,,cave4.jpg,space,0.143,[],[],[],[],[],[],[],0,90,90,20,1,boardwalk6.jpg,cave.jpg,campsite3.jpg,basketballcourt7.jpg,,
Image_List_4,,,,,,,,,,,,,,,,44582,2020-11-17_18h59.58.650,lingCatScenes,2020.1.3,MacIntel,60,"[1440,837]",,,[],,,,,,,,,,,,museum4.jpg,space,0.159,[],[],[],[],[],[],[],0,91,91,72,1,museum5.jpg,pharmacy4.jpg,musicStore1.jpg,kindergarten_classroom.jpg,,
Image_List_4,,,,,,,,,,,,,,,,44582,2020-11-17_18h59.58.650,lingCatScenes,2020.1.3,MacIntel,60,"[1440,837]",,,[],,,,,,,,,,,,drymountains5.jpg,space,0.117,[],[],[],[],[],[],[],0,92,92,39,1,driveway6.jpg,eyeglassstore9.jpg,drycleaners6.jpg,cliff5.jpg,,
Image_List_4,,,,,,,,,,,,,,,,44582,2020-11-17_18h59.58.650,lingCatScenes,2020.1.3,MacIntel,60,"[1440,837]",,,[],,,,,,,,,,,,park.jpg,space,0.16,[],[],[],[],[],[],[],0,93,93,75,1,pantry5.jpg,playground6.jpg,operatingroom4.jpg,lockerroom.jpg,,
Image_List_4,,,,,,,,,,,,,,,,44582,2020-11-17_18h59.58.650,lingCatScenes,2020.1.3,MacIntel,60,"[1440,837]",,,[],,,,,,,,,,,,lab5.jpg,space,0.159,[],[],[],[],[],[],[],0,94,94,64,1,igloo2.jpg,newsstand5.jpg,jewelrystore8.jpg,homegarage2.jpg,,
Image_List_4,,,,,,,,,,,,,,,,44582,2020-11-17_18h59.58.650,lingCatScenes,2020.1.3,MacIntel,60,"[1440,837]",,,[],,,,,,,,,,,,basketballcourt3.jpg,space,0.152,[],[],[],[],[],[],[],0,95,95,10,1,backstage2.jpg,barbershop3.jpg,ballroom4.jpg,ATM4.jpg,,
Image_List_4,,,,,,,,,,,,,,,,44582,2020-11-17_18h59.58.650,lingCatScenes,2020.1.3,MacIntel,60,"[1440,837]",,,[],,,,,,,,,,,,boardwalk4.jpg,space,0.146,[],[],[],[],[],[],[],0,96,96,13,1,balconyIN2.jpg,bowlingalley3.jpg,beach2.jpg,backyard6.jpg,,
Image_List_4,,,,,,,,,,,,,,,,44582,2020-11-17_18h59.58.650,lingCatScenes,2020.1.3,MacIntel,60,"[1440,837]",,,[],,,,,,,,,,,,clothingstore5.jpg,space,0.143,[],[],[],[],[],[],[],0,97,97,28,1,churchInside1.jpg,dancestudio5.jpg,citystreet10.jpg,bridalboutique2.jpg,,
Image_List_4,,,,,,,,,,,,,,,,44582,2020-11-17_18h59.58.650,lingCatScenes,2020.1.3,MacIntel,60,"[1440,837]",,,[],,,,,,,,,,,,winebarrel4.jpg,space,0.127,[],[],[],[],[],[],[],0,98,98,98,1,weightroom5.jpg,wineVineyard8.jpg,warehouse3.jpg,winebarrel2.jpg,,
Image_List_4,,,,,,,,,,,,,,,,44582,2020-11-17_18h59.58.650,lingCatScenes,2020.1.3,MacIntel,60,"[1440,837]",,,[],,,,,,,,,,,,minigolf8.jpg,space,0.134,[],[],[],[],[],[],[],0,99,99,70,1,lockerroom4.jpg,pavilion.jpg,lockerroom3.jpg,igloo.jpg,,
Image_List_4,,,,,,,,,,,,,,,,44582,2020-11-17_18h59.58.650,lingCatScenes,2020.1.3,MacIntel,60,,,,,,,,,,,,,,,,,,,,,,,,,,,,,,,,,,,space,0.159
