image_list,key_resp_intructions.keys,key_resp_intructions.rt,key_resp_intructions_3.keys,key_resp_intructions_3.rt,PracticeComplete_2.keys,PracticeComplete_2.rt,PracticeComplete_3.keys,PracticeComplete_3.rt,demo_trials.thisRepN,demo_trials.thisTrialN,demo_trials.thisN,demo_trials.thisIndex,demo_trials.ran,demo_images,path_images,participant,date,expName,psychopyVersion,OS,frameRate,windowSize,practice_complete.keys,practice_complete.rt,boxes_checked,PracticeComplete.keys,PracticeComplete.rt,practice_trials.thisRepN,practice_trials.thisTrialN,practice_trials.thisN,practice_trials.thisIndex,practice_trials.ran,practice_images,feedback_images,key_resp_intructions_2.keys,key_resp_intructions_2.rt,Image_List_3,trial_complete.keys,trial_complete.rt,trial_mouse.x,trial_mouse.y,trial_mouse.leftButton,trial_mouse.midButton,trial_mouse.rightButton,trial_mouse.time,trial_mouse.clicked_name,trials.thisRepN,trials.thisTrialN,trials.thisN,trials.thisIndex,trials.ran,Image_List_1,Image_List_2,Image_List_4,Image_List_5,key_resp.keys,key_resp.rt
Image_List_3,space,8.21853,space,6.67966,space,7.19245,space,2.053435,0,0,0,5,1,right.jpg,right_path.jpg,44602,2020-11-23_12h03.10.637,lingCatScenes,2020.1.3,MacIntel,60,,,,,,,,,,,,,,,,,,,,,,,,,,,,,,,,,,,,
Image_List_3,,,,,space,1.654025,space,3.896575,0,1,1,1,1,ahead_left.jpg,ahead_left_path.jpg,44602,2020-11-23_12h03.10.637,lingCatScenes,2020.1.3,MacIntel,60,,,,,,,,,,,,,,,,,,,,,,,,,,,,,,,,,,,,
Image_List_3,,,,,space,1.568995,space,0.786835,0,2,2,0,1,ahead.jpg,ahead_path.jpg,44602,2020-11-23_12h03.10.637,lingCatScenes,2020.1.3,MacIntel,60,,,,,,,,,,,,,,,,,,,,,,,,,,,,,,,,,,,,
Image_List_3,,,,,space,1.15307,space,0.785805,0,3,3,3,1,ahead_right_left.jpg,ahead_right_left_path.jpg,44602,2020-11-23_12h03.10.637,lingCatScenes,2020.1.3,MacIntel,60,,,,,,,,,,,,,,,,,,,,,,,,,,,,,,,,,,,,
Image_List_3,,,,,space,0.85845,space,0.57097,0,4,4,4,1,left.jpg,left_path.jpg,44602,2020-11-23_12h03.10.637,lingCatScenes,2020.1.3,MacIntel,60,,,,,,,,,,,,,,,,,,,,,,,,,,,,,,,,,,,,
Image_List_3,,,,,space,0.688645,space,0.485835,0,5,5,2,1,ahead_right.jpg,ahead_right_path.jpg,44602,2020-11-23_12h03.10.637,lingCatScenes,2020.1.3,MacIntel,60,,,,,,,,,,,,,,,,,,,,,,,,,,,,,,,,,,,,
Image_List_3,,,,,space,0.97797,space,0.376225,0,6,6,6,1,right_left.jpg,right_left_path.jpg,44602,2020-11-23_12h03.10.637,lingCatScenes,2020.1.3,MacIntel,60,,,,,,,,,,,,,,,,,,,,,,,,,,,,,,,,,,,,
Image_List_3,,,,,,,,,,,,,,,,44602,2020-11-23_12h03.10.637,lingCatScenes,2020.1.3,MacIntel,60,"[1440,900]",space,0.630015,[],space,0.485285,0,0,0,2,1,ahead_right_2.jpg,ahead_right_2_path.jpg,,,,,,,,,,,,,,,,,,,,,,,
Image_List_3,,,,,,,,,,,,,,,,44602,2020-11-23_12h03.10.637,lingCatScenes,2020.1.3,MacIntel,60,"[1440,900]",space,0.68316,[],space,0.819325,0,1,1,5,1,right_2.jpg,right_2_path.jpg,,,,,,,,,,,,,,,,,,,,,,,
Image_List_3,,,,,,,,,,,,,,,,44602,2020-11-23_12h03.10.637,lingCatScenes,2020.1.3,MacIntel,60,"[1440,900]",space,0.664795,[],space,0.355305,0,2,2,0,1,ahead_2.jpg,ahead_2_path.jpg,,,,,,,,,,,,,,,,,,,,,,,
Image_List_3,,,,,,,,,,,,,,,,44602,2020-11-23_12h03.10.637,lingCatScenes,2020.1.3,MacIntel,60,"[1440,900]",space,0.886855,[],space,0.595015,0,3,3,1,1,ahead_left_2.jpg,ahead_left_2_path.jpg,,,,,,,,,,,,,,,,,,,,,,,
Image_List_3,,,,,,,,,,,,,,,,44602,2020-11-23_12h03.10.637,lingCatScenes,2020.1.3,MacIntel,60,"[1440,900]",space,0.877655,[],space,1.91157,0,4,4,4,1,left_2.jpg,left_2_path.jpg,,,,,,,,,,,,,,,,,,,,,,,
Image_List_3,,,,,,,,,,,,,,,,44602,2020-11-23_12h03.10.637,lingCatScenes,2020.1.3,MacIntel,60,"[1440,900]",space,1.13359,[],space,1.199005,0,5,5,6,1,right_left_2.jpg,right_left_2_path.jpg,,,,,,,,,,,,,,,,,,,,,,,
Image_List_3,,,,,,,,,,,,,,,,44602,2020-11-23_12h03.10.637,lingCatScenes,2020.1.3,MacIntel,60,"[1440,900]",space,0.722225,[],space,0.52556,0,6,6,3,1,ahead_right_left_2.jpg,ahead_right_left_2_path.jpg,,,,,,,,,,,,,,,,,,,,,,,
Image_List_3,,,,,,,,,,,,,,,,44602,2020-11-23_12h03.10.637,lingCatScenes,2020.1.3,MacIntel,60,"[1440,900]",,,[],,,,,,,,,,space,3.711265,church3.jpg,space,1.43947,[],[],[],[],[],[],[],0,0,0,25,1,campsite7.jpg,conference3.jpg,checkoutcounter2.jpg,botanicalGarden4.jpg,,
Image_List_3,,,,,,,,,,,,,,,,44602,2020-11-23_12h03.10.637,lingCatScenes,2020.1.3,MacIntel,60,"[1440,900]",,,"[""trial_ahead_box""]",,,,,,,,,,,,ruralroad2.jpg,space,10.061535,[0.010160590277777777],[-0.31543836805555553],[1],[0],[0],[7.448864999983925],"[""trial_ahead_box""]",0,1,1,85,1,recordingstudio4.jpg,sidewalk5.jpg,sandDunes_desert_outdoor3.jpg,rooftop3.jpg,,
Image_List_3,,,,,,,,,,,,,,,,44602,2020-11-23_12h03.10.637,lingCatScenes,2020.1.3,MacIntel,60,"[1440,900]",,,"[""trial_slight_right_box"",""trial_slight_left_box""]",,,,,,,,,,,,warehouse3.jpg,space,9.028685,"[0.25016059027777776,0.2101953125,-0.19061631944444443]","[-0.2961892361111111,-0.295234375,-0.3224913194444444]","[1,1,1]","[0,0,0]","[0,0,0]","[5.567925000039395,7.283885000040755,8.568460000038613]","[""trial_slight_right_box"",""trial_slight_left_box""]",0,2,2,98,1,weightroom5.jpg,wineVineyard8.jpg,winebarrel4.jpg,winebarrel2.jpg,,
Image_List_3,,,,,,,,,,,,,,,,44602,2020-11-23_12h03.10.637,lingCatScenes,2020.1.3,MacIntel,60,"[1440,900]",,,"[""trial_slight_right_box""]",,,,,,,,,,,,carmechanic4.jpeg,space,2.198125,[0.19221354166666665],[-0.2940842013888889],[1],[0],[0],[1.768210000009276],"[""trial_slight_right_box""]",0,3,3,23,1,bus_shelter.jpg,church8.jpg,cemetery3.jpg,bleachers6.jpg,,
Image_List_3,,,,,,,,,,,,,,,,44602,2020-11-23_12h03.10.637,lingCatScenes,2020.1.3,MacIntel,60,"[1440,900]",,,"[""trial_sharp_right_box"",""trial_ahead_box"",""trial_sharp_left_box""]",,,,,,,,,,,,drymountains6.jpg,space,4.369545,"[0.5861935763888889,-0.009370659722222223,-0.5906857638888889]","[-0.29637152777777775,-0.30647135416666665,-0.31247395833333336]","[1,1,1]","[0,0,0]","[0,0,0]","[2.061314999999013,3.078570000012405,4.127534999977797]","[""trial_sharp_right_box"",""trial_ahead_box"",""trial_sharp_left_box""]",0,4,4,42,1,exerciseequipment3.jpg,firestation3.jpg,farm4.jpg,desertvegetation2.jpg,,
Image_List_3,,,,,,,,,,,,,,,,44602,2020-11-23_12h03.10.637,lingCatScenes,2020.1.3,MacIntel,60,"[1440,900]",,,"[""trial_left_box""]",,,,,,,,,,,,skatepark5.jpg,space,5.579255,"[-0.4057248263888889,0.42757378472222224]","[-0.3134375,-0.31062065972222225]","[1,1]","[0,0]","[0,0]","[2.9111749999574386,4.262204999977257]","[""trial_left_box""]",0,5,5,91,1,shoestore2.jpg,trainStation5.jpg,ticket_counter6.jpg,sidewalk3.jpg,,
Image_List_3,,,,,,,,,,,,,,,,44602,2020-11-23_12h03.10.637,lingCatScenes,2020.1.3,MacIntel,60,"[1440,900]",,,"[""trial_ahead_box""]",,,,,,,,,,,,restaurant13.jpg,space,1.752505,[0.009175347222222222],[-0.28457899305555556],[1],[0],[0],[1.3287350000464357],"[""trial_ahead_box""]",0,6,6,84,1,readingroom5.jpg,sidewalk2.jpg,sandDunes_desert_outdoor.jpg,rooftop2.jpg,,
Image_List_3,,,,,,,,,,,,,,,,44602,2020-11-23_12h03.10.637,lingCatScenes,2020.1.3,MacIntel,60,"[1440,900]",,,"[""trial_slight_right_box""]",,,,,,,,,,,,hotelRoom2.jpg,space,1.65273,[0.19066840277777777],[-0.31006510416666666],[1],[0],[0],[1.345339999999851],"[""trial_slight_right_box""]",0,7,7,63,1,hut2.jpg,museum6.jpg,lab4.jpg,highway2.jpg,,
Image_List_3,,,,,,,,,,,,,,,,44602,2020-11-23_12h03.10.637,lingCatScenes,2020.1.3,MacIntel,60,"[1440,900]",,,"[""trial_ahead_box""]",,,,,,,,,,,,drycleaners6.jpg,space,3.622475,[0.01162326388888889],[-0.2945963541666667],[1],[0],[0],[3.228354999970179],"[""trial_ahead_box""]",0,8,8,39,1,driveway6.jpg,eyeglassstore9.jpg,drymountains5.jpg,cliff5.jpg,,
Image_List_3,,,,,,,,,,,,,,,,44602,2020-11-23_12h03.10.637,lingCatScenes,2020.1.3,MacIntel,60,"[1440,900]",,,"[""trial_slight_left_box""]",,,,,,,,,,,,applestore6.jpg,space,1.909765,[-0.19759114583333334],[-0.30270399305555556],[1],[0],[0],[1.562534999975469],"[""trial_slight_left_box""]",0,9,9,2,1,alley1.jpg,arcade1.jpg,apartmentBuilding4.jpg,airportTerminal6.jpg,,
Image_List_3,,,,,,,,,,,,,,,,44602,2020-11-23_12h03.10.637,lingCatScenes,2020.1.3,MacIntel,60,"[1440,900]",,,"[""trial_ahead_box"",""trial_right_box"",""trial_left_box""]",,,,,,,,,,,,campusquad3.jpg,space,12.094915,"[-0.02737847222222222,0.014505208333333333,-0.18336371527777778,-0.1853298611111111,-0.6255121527777778,0.6450303819444444,0.6261458333333333,0.6046440972222222,0.6165407986111111,0.41064670138888887,-0.4077951388888889]","[-0.30420138888888887,-0.30420138888888887,-0.3013324652777778,-0.30949652777777775,-0.3021961805555556,-0.33200086805555556,-0.32751302083333333,-0.30856336805555556,-0.29248697916666666,-0.31169704861111114,-0.31115017361111114]","[1,1,1,1,1,1,1,1,1,1,1]","[0,0,0,0,0,0,0,0,0,0,0]","[0,0,0,0,0,0,0,0,0,0,0]","[1.8980199999641627,2.6150699999998324,3.2477749999961816,5.064725000003818,6.214114999980666,7.431639999966137,7.799544999958016,8.297589999972843,10.58811999997124,11.11911999998847,11.88594499998726]","[""trial_ahead_box"",""trial_slight_left_box"",""trial_slight_left_box"",""trial_sharp_right_box"",""trial_sharp_right_box"",""trial_right_box"",""trial_left_box""]",0,10,10,21,1,botanicalGarden6.jpg,cemetery6.jpg,cave5.jpg,beach1.jpeg,,
Image_List_3,,,,,,,,,,,,,,,,44602,2020-11-23_12h03.10.637,lingCatScenes,2020.1.3,MacIntel,60,"[1440,900]",,,"[""trial_slight_right_box""]",,,,,,,,,,,,citystreet10.jpg,space,1.95542,[0.2098480902777778],[-0.3230512152777778],[1],[0],[0],[1.5643200000049546],"[""trial_slight_right_box""]",0,11,11,28,1,churchInside1.jpg,dancestudio5.jpg,clothingstore5.jpg,bridalboutique2.jpg,,
Image_List_3,,,,,,,,,,,,,,,,44602,2020-11-23_12h03.10.637,lingCatScenes,2020.1.3,MacIntel,60,"[1440,900]",,,"[""trial_left_box""]",,,,,,,,,,,,constructionSite2.jpg,space,2.51966,[-0.37546875],[-0.315390625],[1],[0],[0],[2.279099999985192],"[""trial_left_box""]",0,12,12,32,1,dancestudio6.jpg,diner12.jpg,dentist4.jpg,cabin4.jpg,,
Image_List_3,,,,,,,,,,,,,,,,44602,2020-11-23_12h03.10.637,lingCatScenes,2020.1.3,MacIntel,60,"[1440,900]",,,"[""trial_slight_left_box""]",,,,,,,,,,,,ruralroad3.jpg,space,2.17432,"[-0.19647135416666667,-0.19048177083333334]","[-0.32848524305555554,-0.295]","[1,1]","[0,0]","[0,0]","[1.4459500000230037,1.895375000021886]","[""trial_slight_left_box""]",0,13,13,86,1,restaurant14.jpg,stripmall.jpg,sandDunes_desert_outdoor8.jpg,rooftop4.jpg,,
Image_List_3,,,,,,,,,,,,,,,,44602,2020-11-23_12h03.10.637,lingCatScenes,2020.1.3,MacIntel,60,"[1440,900]",,,"[""trial_ahead_box"",""trial_slight_left_box"",""trial_slight_right_box""]",,,,,,,,,,,,gazebo5.jpg,space,3.56163,"[0.0010112847222222222,-0.1906032986111111,0.19118055555555555]","[-0.2899262152777778,-0.30171875,-0.29821614583333333]","[1,1,1]","[0,0,0]","[0,0,0]","[1.0944249999593012,1.8481999999494292,3.113870000001043]","[""trial_ahead_box"",""trial_slight_left_box"",""trial_slight_right_box""]",0,14,14,55,1,greenmountains.jpg,hotelRoom3.jpg,hotelRoom7.jpg,frontLawn2.jpg,,
Image_List_3,,,,,,,,,,,,,,,,44602,2020-11-23_12h03.10.637,lingCatScenes,2020.1.3,MacIntel,60,"[1440,900]",,,"[""trial_sharp_right_box""]",,,,,,,,,,,,cafeteria1.jpg,space,3.15373,[0.5812717013888888],[-0.3122699652777778],[1],[0],[0],[2.5796250000130385],"[""trial_sharp_right_box""]",0,15,15,19,1,boardwalk2.jpg,casino3.jpg,castle4.jpg,basketballcourt.jpg,,
Image_List_3,,,,,,,,,,,,,,,,44602,2020-11-23_12h03.10.637,lingCatScenes,2020.1.3,MacIntel,60,"[1440,900]",,,"[""trial_right_box""]",,,,,,,,,,,,aquarium1.jpg,space,4.27424,[0.4071875],[-0.31592881944444445],[1],[0],[0],[3.9807249999721535],"[""trial_right_box""]",0,16,16,3,1,apartmentBuilding2.jpg,attic1.jpg,appleorchard2.jpg,alley3.jpg,,
Image_List_3,,,,,,,,,,,,,,,,44602,2020-11-23_12h03.10.637,lingCatScenes,2020.1.3,MacIntel,60,"[1440,900]",,,"[""trial_ahead_box"",""trial_sharp_right_box"",""trial_sharp_left_box""]",,,,,,,,,,,,ballroom2.jpg,space,4.18044,"[0.0194921875,0.011883680555555555,0.5792881944444445,-0.6137847222222222]","[-0.2713932291666667,-0.30474392361111113,-0.3034765625,-0.30733940972222223]","[1,1,1,1]","[0,0,0,0]","[0,0,0,0]","[1.4648399999714456,1.9995950000011362,2.8489449999760836,3.9492650000029244]","[""trial_ahead_box"",""trial_sharp_right_box"",""trial_sharp_left_box""]",0,17,17,9,1,auto_showroom3.jpg,bar2.jpg,basement5.jpg,arcade2.jpg,,
Image_List_3,,,,,,,,,,,,,,,,44602,2020-11-23_12h03.10.637,lingCatScenes,2020.1.3,MacIntel,60,"[1440,900]",,,"[""trial_ahead_box"",""trial_sharp_left_box"",""trial_sharp_right_box""]",,,,,,,,,,,,savanna.jpg,space,4.123815,"[0.0009895833333333334,-0.5611588541666667,-0.5860807291666666,0.5806206597222222]","[-0.3048958333333333,-0.3072699652777778,-0.30279513888888887,-0.3145659722222222]","[1,1,1,1]","[0,0,0,0]","[0,0,0,0]","[1.3113800000282936,2.029050000011921,2.6004800000227988,3.5125150000094436]","[""trial_ahead_box"",""trial_sharp_left_box"",""trial_sharp_right_box""]",0,18,18,87,1,restaurantkitchen2.jpg,theater2.jpg,sculpturegarden2.jpg,RVinside2.jpg,,
Image_List_3,,,,,,,,,,,,,,,,44602,2020-11-23_12h03.10.637,lingCatScenes,2020.1.3,MacIntel,60,"[1440,900]",,,"[""trial_ahead_box"",""trial_slight_left_box"",""trial_left_box""]",,,,,,,,,,,,elevatorOutside1.jpg,space,3.511425,"[-0.006636284722222222,-0.2170095486111111,-0.4074652777777778]","[-0.3019965277777778,-0.3065364583333333,-0.3118446180555556]","[1,1,1]","[0,0,0]","[0,0,0]","[1.612444999977015,2.448195000004489,3.2816400000010617]","[""trial_ahead_box"",""trial_slight_left_box"",""trial_left_box""]",0,19,19,44,1,firestation2.jpg,frontFoyer4.jpg,foodcourt6.jpg,dock2.jpg,,
Image_List_3,,,,,,,,,,,,,,,,44602,2020-11-23_12h03.10.637,lingCatScenes,2020.1.3,MacIntel,60,"[1440,900]",,,"[""trial_ahead_box""]",,,,,,,,,,,,courthouse2.jpg,space,2.106515,[0.002894965277777778],[-0.2897135416666667],[1],[0],[0],[1.1293149999692105],"[""trial_ahead_box""]",0,20,20,33,1,deck1.jpg,diningroom1.jpg,diner10.jpg,cabinIndoors5.jpg,,
Image_List_3,,,,,,,,,,,,,,,,44602,2020-11-23_12h03.10.637,lingCatScenes,2020.1.3,MacIntel,60,"[1440,900]",,,"[""trial_ahead_box""]",,,,,,,,,,,,hallway4.jpg,space,1.26062,[0.019544270833333332],[-0.31215711805555557],[1],[0],[0],[1.0142300000297837],"[""trial_ahead_box""]",0,21,21,57,1,hayfield5.jpg,jail1.jpg,hut5.jpg,gazebo.jpg,,
Image_List_3,,,,,,,,,,,,,,,,44602,2020-11-23_12h03.10.637,lingCatScenes,2020.1.3,MacIntel,60,"[1440,900]",,,"[""trial_right_box""]",,,,,,,,,,,,brewery4.jpg,space,3.469205,[0.4028862847222222],[-0.29354600694444444],[1],[0],[0],[2.010884999996051],"[""trial_right_box""]",0,22,22,18,1,bleachers5.jpg,casino1.jpg,castle2.jpg,basement6.jpg,,
Image_List_3,,,,,,,,,,,,,,,,44602,2020-11-23_12h03.10.637,lingCatScenes,2020.1.3,MacIntel,60,"[1440,900]",,,"[""trial_sharp_right_box""]",,,,,,,,,,,,fittingroom5.jpg,space,2.69239,[0.5954166666666667],[-0.2949088541666667],[1],[0],[0],[2.396070000017062],"[""trial_sharp_right_box""]",0,23,23,48,1,frontDoor2.jpg,golfcourse6.jpg,golfcourse7.jpg,fabricstore2.jpg,,
Image_List_3,,,,,,,,,,,,,,,,44602,2020-11-23_12h03.10.637,lingCatScenes,2020.1.3,MacIntel,60,"[1440,900]",,,"[""trial_ahead_box""]",,,,,,,,,,,,stripmall6.jpg,space,2.18545,[0.012621527777777778],[-0.3037934027777778],[1],[0],[0],[1.5769550000550225],"[""trial_ahead_box""]",0,24,24,95,1,waitingroom2.jpg,warehouse2.jpg,weightroom4.jpg,tvstudio3.jpg,,
Image_List_3,,,,,,,,,,,,,,,,44602,2020-11-23_12h03.10.637,lingCatScenes,2020.1.3,MacIntel,60,"[1440,900]",,,"[""trial_ahead_box""]",,,,,,,,,,,,pasture9.jpg,space,2.03651,[-0.008498263888888889],[-0.29572482638888886],[1],[0],[0],[1.6290349999908358],"[""trial_ahead_box""]",0,25,25,77,1,parkinggarage2.jpg,playroom6.jpg,park8.jpg,mallindoor6.jpg,,
Image_List_3,,,,,,,,,,,,,,,,44602,2020-11-23_12h03.10.637,lingCatScenes,2020.1.3,MacIntel,60,"[1440,900]",,,"[""trial_ahead_box""]",,,,,,,,,,,,operatingroom4.jpg,space,3.820015,"[0.008897569444444444,0.0018359375]","[-0.32934461805555554,-0.30213107638888886]","[1,1]","[0,0]","[0,0]","[2.826299999956973,3.4932049999479204]","[""trial_ahead_box""]",0,26,26,75,1,pantry5.jpg,playground6.jpg,park.jpg,lockerroom.jpg,,
Image_List_3,,,,,,,,,,,,,,,,44602,2020-11-23_12h03.10.637,lingCatScenes,2020.1.3,MacIntel,60,"[1440,900]",,,[],,,,,,,,,,,,applestore1.jpg,space,2.56299,[0.5983767361111111],[-0.326328125],[1],[0],[0],[1.8812850000103936],[],0,27,27,1,1,airportTerminal4.jpg,apartmentBuilding1.jpg,airportTerminal3.jpg,airportTerminal2.jpg,,
Image_List_3,,,,,,,,,,,,,,,,44602,2020-11-23_12h03.10.637,lingCatScenes,2020.1.3,MacIntel,60,"[1440,900]",,,"[""trial_ahead_box""]",,,,,,,,,,,,golfcourse10.jpg,space,2.47026,[0.010477430555555556],[-0.3106293402777778],[1],[0],[0],[2.211089999997057],"[""trial_ahead_box""]",0,28,28,56,1,grocerystore5.jpg,hut3.jpg,hut1.jpg,gasstation2.jpg,,
Image_List_3,,,,,,,,,,,,,,,,44602,2020-11-23_12h03.10.637,lingCatScenes,2020.1.3,MacIntel,60,"[1440,900]",,,"[""trial_ahead_box""]",,,,,,,,,,,,frontDoor5.jpg,space,0.957945,[0.010212673611111112],[-0.3106293402777778],[1],[0],[0],[0.6763849999988452],"[""trial_ahead_box""]",0,29,29,51,1,gasstation6.jpg,hallway5.jpg,hayfield4.jpg,firestation5.jpg,,
Image_List_3,,,,,,,,,,,,,,,,44602,2020-11-23_12h03.10.637,lingCatScenes,2020.1.3,MacIntel,60,"[1440,900]",,,"[""trial_slight_right_box""]",,,,,,,,,,,,cargo5.jpg,space,1.53663,[0.2045355902777778],[-0.3242361111111111],[1],[0],[0],[1.2838800000026822],"[""trial_slight_right_box""]",0,30,30,22,1,bowlingalley5.jpg,church6.jpg,cemetery.jpg,bistrooutdoor6.jpg,,
Image_List_3,,,,,,,,,,,,,,,,44602,2020-11-23_12h03.10.637,lingCatScenes,2020.1.3,MacIntel,60,"[1440,900]",,,"[""trial_ahead_box"",""trial_sharp_right_box"",""trial_sharp_left_box""]",,,,,,,,,,,,dinosaur4.jpg,space,4.09239,"[0.003884548611111111,0.5977647569444444,-0.6118576388888889]","[-0.2999088541666667,-0.3032595486111111,-0.31069444444444444]","[1,1,1]","[0,0,0]","[0,0,0]","[1.2440800000331365,2.3970550000085495,3.8796650000149384]","[""trial_ahead_box"",""trial_sharp_right_box"",""trial_sharp_left_box""]",0,31,31,37,1,dining_car.jpg,driveway4.jpg,driveway7.jpg,citystreet9.jpg,,
Image_List_3,,,,,,,,,,,,,,,,44602,2020-11-23_12h03.10.637,lingCatScenes,2020.1.3,MacIntel,60,"[1440,900]",,,"[""trial_sharp_right_box"",""trial_sharp_left_box""]",,,,,,,,,,,,farmersmarket4.jpg,space,4.07268,"[0.5910460069444444,-0.6019444444444444,-0.5974869791666667]","[-0.2970052083333333,-0.3307204861111111,-0.30715711805555557]","[1,1,1]","[0,0,0]","[0,0,0]","[2.1268000000272878,3.311100000049919,3.8276150000165217]","[""trial_sharp_right_box"",""trial_sharp_left_box""]",0,32,32,46,1,flowershop.jpg,frontLawn5.jpg,fountain4.jpg,dormroom6.jpg,,
Image_List_3,,,,,,,,,,,,,,,,44602,2020-11-23_12h03.10.637,lingCatScenes,2020.1.3,MacIntel,60,"[1440,900]",,,[],,,,,,,,,,,,cave6.jpg,space,7.392955,"[0.0325390625,-0.003029513888888889,0.5727039930555555,0.012118055555555556,0.6325086805555555,0.6096831597222222]","[-0.29770833333333335,-0.29172743055555556,-0.3216059027777778,-0.3094921875,-0.31884982638888887,-0.32653211805555554]","[1,1,1,1,1,1]","[0,0,0,0,0,0]","[0,0,0,0,0,0]","[1.245649999997113,2.479460000002291,3.379590000025928,5.768195000011474,6.383764999976847,7.133680000028107]","[""trial_ahead_box"",""trial_ahead_box""]",0,33,33,24,1,campsite.jpg,cliff3.jpg,cemetery5.jpg,boardwalk.jpg,,
Image_List_3,,,,,,,,,,,,,,,,44602,2020-11-23_12h03.10.637,lingCatScenes,2020.1.3,MacIntel,60,"[1440,900]",,,"[""trial_ahead_box""]",,,,,,,,,,,,promenadeDeck2.jpg,space,2.572025,[0.011050347222222222],[-0.2913411458333333],[1],[0],[0],[2.2943499999819323],"[""trial_ahead_box""]",0,34,34,81,1,promenadeDeck.jpg,ruralroad5.jpg,rainforest5.jpg,pasture8.jpg,,
Image_List_3,,,,,,,,,,,,,,,,44602,2020-11-23_12h03.10.637,lingCatScenes,2020.1.3,MacIntel,60,"[1440,900]",,,"[""trial_ahead_box""]",,,,,,,,,,,,conference4.jpg,space,1.993635,[0.010442708333333333],[-0.3034939236111111],[1],[0],[0],[1.7784799999790266],"[""trial_ahead_box""]",0,35,35,31,1,cubicle4.jpg,desertvegetation6.jpg,courtroom2.jpg,cabin3.jpg,,
Image_List_3,,,,,,,,,,,,,,,,44602,2020-11-23_12h03.10.637,lingCatScenes,2020.1.3,MacIntel,60,"[1440,900]",,,"[""trial_ahead_box""]",,,,,,,,,,,,frontFoyer6.jpg,space,1.095045,[0.010442708333333333],[-0.30296875],[1],[0],[0],[0.7460399999981746],"[""trial_ahead_box""]",0,36,36,52,1,gasstation7.jpg,hardwarestore1.jpg,highway.jpg,forestpath2.jpg,,
Image_List_3,,,,,,,,,,,,,,,,44602,2020-11-23_12h03.10.637,lingCatScenes,2020.1.3,MacIntel,60,"[1440,900]",,,"[""trial_ahead_box"",""trial_sharp_right_box"",""trial_sharp_left_box""]",,,,,,,,,,,,drymountains.jpg,space,3.430675,"[-0.005564236111111111,0.5878081597222222,-0.5803949652777778]","[-0.2865017361111111,-0.31981336805555555,-0.3117404513888889]","[1,1,1]","[0,0,0]","[0,0,0]","[1.5463999999919906,2.3176950000342913,3.216390000015963]","[""trial_ahead_box"",""trial_sharp_right_box"",""trial_sharp_left_box""]",0,37,37,40,1,drycleaners4.jpg,farm1.jpg,dugout1.jpg,clothingstore3.jpg,,
Image_List_3,,,,,,,,,,,,,,,,44602,2020-11-23_12h03.10.637,lingCatScenes,2020.1.3,MacIntel,60,"[1440,900]",,,"[""trial_ahead_box"",""trial_sharp_left_box""]",,,,,,,,,,,,waitingroom4.jpg,space,2.509225,"[-0.021245659722222223,-0.6165755208333333]","[-0.31916232638888886,-0.31070746527777776]","[1,1]","[0,0]","[0,0]","[1.3125250000157394,2.211570000043139]","[""trial_ahead_box"",""trial_sharp_left_box""]",0,38,38,97,1,warehouseoutside4.jpg,wineVineyard2.jpg,winebarrel3.jpg,warehouseoutside3.jpg,,
Image_List_3,,,,,,,,,,,,,,,,44602,2020-11-23_12h03.10.637,lingCatScenes,2020.1.3,MacIntel,60,"[1440,900]",,,"[""trial_ahead_box""]",,,,,,,,,,,,breakroom2.jpg,space,2.22569,"[0.00021701388888888888,-0.5745703125]","[-0.2857248263888889,-0.29682291666666666]","[1,1]","[0,0]","[0,0]","[1.2461050000274554,1.928955000010319]","[""trial_ahead_box""]",0,39,39,16,1,basement.jpg,cafeteria6.jpg,campusquad4.jpg,barbershop2.jpg,,
Image_List_3,,,,,,,,,,,,,,,,44602,2020-11-23_12h03.10.637,lingCatScenes,2020.1.3,MacIntel,60,"[1440,900]",,,"[""trial_sharp_left_box"",""trial_sharp_right_box""]",,,,,,,,,,,,auto_showroom1.jpg,space,4.16235,"[-0.6097873263888889,0.6189887152777778]","[-0.31583333333333335,-0.3121614583333333]","[1,1]","[0,0]","[0,0]","[2.8297250000177883,3.8871600000420585]","[""trial_sharp_left_box"",""trial_sharp_right_box""]",0,40,40,4,1,artStudio1.jpg,baggageClaim2.jpg,appleorchard3.jpg,alley4.jpg,,
Image_List_3,,,,,,,,,,,,,,,,44602,2020-11-23_12h03.10.637,lingCatScenes,2020.1.3,MacIntel,60,"[1440,900]",,,"[""trial_sharp_left_box""]",,,,,,,,,,,,laundromat4.jpg,space,2.352405,[-0.5996397569444445],[-0.3017361111111111],[1],[0],[0],[2.093894999998156],"[""trial_sharp_left_box""]",0,41,41,67,1,library_aisle3.jpg,park7.jpg,liquorstore2.jpg,hospitalroom2.jpg,,
Image_List_3,,,,,,,,,,,,,,,,44602,2020-11-23_12h03.10.637,lingCatScenes,2020.1.3,MacIntel,60,"[1440,900]",,,"[""trial_ahead_box""]",,,,,,,,,,,,highway4.jpg,space,1.818775,[0.003754340277777778],[-0.2927647569444444],[1],[0],[0],[1.577750000054948],"[""trial_ahead_box""]",0,42,42,59,1,homegarden7.jpg,library_aisle8.jpg,kindergarten_classroom5.jpg,grocerystore3.jpg,,
Image_List_3,,,,,,,,,,,,,,,,44602,2020-11-23_12h03.10.637,lingCatScenes,2020.1.3,MacIntel,60,"[1440,900]",,,"[""trial_sharp_right_box"",""trial_sharp_left_box""]",,,,,,,,,,,,laundromat2.jpeg,space,4.603285,"[0.6135894097222222,-0.6236935763888889]","[-0.29963541666666665,-0.30135416666666665]","[1,1]","[0,0]","[0,0]","[2.427640000008978,4.061025000002701]","[""trial_sharp_right_box"",""trial_sharp_left_box""]",0,43,43,65,1,igloo5.jpg,newsstand7.jpg,labClass7.jpg,homeoffice8.jpg,,
Image_List_3,,,,,,,,,,,,,,,,44602,2020-11-23_12h03.10.637,lingCatScenes,2020.1.3,MacIntel,60,"[1440,900]",,,"[""trial_sharp_right_box""]",,,,,,,,,,,,homegarden6.jpg,space,2.45894,[0.6011111111111112],[-0.3043185763888889],[1],[0],[0],[1.8117199999978766],"[""trial_sharp_right_box""]",0,44,44,61,1,HorseRaceTrack.jpg,metroInside4.jpg,kindergarten_classroom7.jpg,hayfield6.jpg,,
Image_List_3,,,,,,,,,,,,,,,,44602,2020-11-23_12h03.10.637,lingCatScenes,2020.1.3,MacIntel,60,"[1440,900]",,,"[""trial_ahead_box"",""trial_slight_right_box""]",,,,,,,,,,,,forestpath6.jpg,space,3.468495,"[-0.017469618055555556,0.2128298611111111]","[-0.30405381944444443,-0.3152734375]","[1,1]","[0,0]","[0,0]","[2.044480000040494,3.1942950000520796]","[""trial_ahead_box"",""trial_slight_right_box""]",0,45,45,50,1,frontLawn4.jpg,grocerystore6.jpg,hallway2.jpg,fireplace4.jpg,,
Image_List_3,,,,,,,,,,,,,,,,44602,2020-11-23_12h03.10.637,lingCatScenes,2020.1.3,MacIntel,60,"[1440,900]",,,"[""trial_ahead_box""]",,,,,,,,,,,,ShowJumping7.jpg,space,2.1911,[0.013454861111111112],[-0.28631944444444446],[1],[0],[0],[1.9295249999850057],"[""trial_ahead_box""]",0,46,46,89,1,ruralroad7.jpg,track5.jpg,staircase7.jpg,sculpturegarden3.jpg,,
Image_List_3,,,,,,,,,,,,,,,,44602,2020-11-23_12h03.10.637,lingCatScenes,2020.1.3,MacIntel,60,"[1440,900]",,,"[""trial_ahead_box""]",,,,,,,,,,,,drymountains3.jpg,space,0.87211,[0.01755642361111111],[-0.2781640625],[1],[0],[0],[0.5792899999651127],"[""trial_ahead_box""]",0,47,47,41,1,dugout4.jpg,farm3.jpg,fabricstore1.jpg,dentist2.jpg,,
Image_List_3,,,,,,,,,,,,,,,,44602,2020-11-23_12h03.10.637,lingCatScenes,2020.1.3,MacIntel,60,"[1440,900]",,,"[""trial_ahead_box""]",,,,,,,,,,,,observatory4.jpeg,space,5.811855,"[0.028819444444444446,-0.0024652777777777776]","[-0.28846354166666666,-0.316953125]","[1,1]","[0,0]","[0,0]","[5.067425000015646,5.584910000034142]","[""trial_ahead_box""]",0,48,48,74,1,newsstand2.jpg,playground10.jpg,operatingroom1.jpg,lightingstore2.jpg,,
Image_List_3,,,,,,,,,,,,,,,,44602,2020-11-23_12h03.10.637,lingCatScenes,2020.1.3,MacIntel,60,"[1440,900]",,,"[""trial_ahead_box""]",,,,,,,,,,,,gazebo2.jpg,space,1.253335,[-0.0024652777777777776],[-0.31407118055555555],[1],[0],[0],[0.9602500000037253],"[""trial_ahead_box""]",0,49,49,54,1,greenhouse2.jpg,horsebarn11.jpg,homegarage4.jpg,frontFoyer.jpg,,
Image_List_3,,,,,,,,,,,,,,,,44602,2020-11-23_12h03.10.637,lingCatScenes,2020.1.3,MacIntel,60,"[1440,900]",,,"[""trial_ahead_box""]",,,,,,,,,,,,frontLawn3.jpg,space,1.04301,[-0.003589409722222222],[-0.30109375],[1],[0],[0],[0.7635000000009313],"[""trial_ahead_box""]",0,50,50,53,1,gazebo3.jpg,homeoffice.jpg,homegarage3.jpg,fountain.jpg,,
Image_List_3,,,,,,,,,,,,,,,,44602,2020-11-23_12h03.10.637,lingCatScenes,2020.1.3,MacIntel,60,"[1440,900]",,,"[""trial_ahead_box"",""trial_sharp_right_box"",""trial_sharp_left_box""]",,,,,,,,,,,,ballroom4.jpg,space,3.999825,"[-0.004704861111111111,0.6012456597222222,-0.6159331597222222]","[-0.2952170138888889,-0.2965581597222222,-0.306015625]","[1,1,1]","[0,0,0]","[0,0,0]","[1.111399999994319,2.443589999980759,3.748489999969024]","[""trial_ahead_box"",""trial_sharp_right_box"",""trial_sharp_left_box""]",0,51,51,10,1,backstage2.jpg,barbershop3.jpg,basketballcourt3.jpg,ATM4.jpg,,
Image_List_3,,,,,,,,,,,,,,,,44602,2020-11-23_12h03.10.637,lingCatScenes,2020.1.3,MacIntel,60,"[1440,900]",,,"[""trial_ahead_box"",""trial_sharp_left_box""]",,,,,,,,,,,,staircase4.jpg,space,4.855675,"[0.0022395833333333334,-0.6415234375,-0.6059201388888888]","[-0.29866753472222224,-0.32177951388888887,-0.3187934027777778]","[1,1,1]","[0,0,0]","[0,0,0]","[1.7455799999879673,3.478464999992866,4.1948149999952875]","[""trial_ahead_box"",""trial_sharp_left_box""]",0,52,52,93,1,tollbooth8.jpg,volleyballcourt4.jpg,warehouseoutside2.jpg,tenniscourt.jpg,,
Image_List_3,,,,,,,,,,,,,,,,44602,2020-11-23_12h03.10.637,lingCatScenes,2020.1.3,MacIntel,60,"[1440,900]",,,"[""trial_slight_left_box""]",,,,,,,,,,,,cubicle7.jpg,space,3.833445,[-0.19518663194444444],[-0.29650173611111114],[1],[0],[0],[3.033594999986235],"[""trial_slight_left_box""]",0,53,53,35,1,deck5.jpg,dock3.jpg,dining_car6.jpg,carmechanic2.jpg,,
Image_List_3,,,,,,,,,,,,,,,,44602,2020-11-23_12h03.10.637,lingCatScenes,2020.1.3,MacIntel,60,"[1440,900]",,,"[""trial_ahead_box""]",,,,,,,,,,,,bambooforest3.jpg,space,2.264015,[-0.013936631944444444],[-0.28628038194444444],[1],[0],[0],[1.997090000018943],"[""trial_ahead_box""]",0,54,54,11,1,backyard2.jpg,basketballcourt4.jpg,baywindow5.jpg,backyard1.jpg,,
Image_List_3,,,,,,,,,,,,,,,,44602,2020-11-23_12h03.10.637,lingCatScenes,2020.1.3,MacIntel,60,"[1440,900]",,,"[""trial_sharp_right_box""]",,,,,,,,,,,,lockerroom3.jpg,space,2.12266,[0.6098350694444444],[-0.30260850694444447],[1],[0],[0],[1.7646849999437109],"[""trial_sharp_right_box""]",0,55,55,70,1,lockerroom4.jpg,pavilion.jpg,minigolf8.jpg,igloo.jpg,,
Image_List_3,,,,,,,,,,,,,,,,44602,2020-11-23_12h03.10.637,lingCatScenes,2020.1.3,MacIntel,60,"[1440,900]",,,"[""trial_sharp_right_box"",""trial_ahead_box""]",,,,,,,,,,,,horsebarn8.jpg,space,3.65642,"[0.5873654513888888,-0.0036414930555555554]","[-0.31096788194444447,-0.30813368055555557]","[1,1]","[0,0]","[0,0]","[1.8297599999932572,3.330169999971986]","[""trial_sharp_right_box"",""trial_ahead_box""]",0,56,56,62,1,hotellobby2.jpg,minigolf.jpg,lab3.jpg,hayfield7.jpg,,
Image_List_3,,,,,,,,,,,,,,,,44602,2020-11-23_12h03.10.637,lingCatScenes,2020.1.3,MacIntel,60,"[1440,900]",,,"[""trial_sharp_left_box""]",,,,,,,,,,,,bleachers8.jpg,space,2.4284,[-0.5898524305555556],[-0.29617621527777777],[1],[0],[0],[1.5127300000167452],"[""trial_sharp_left_box""]",0,57,57,15,1,bambooforest4.jpg,cafeteria5.jpg,cabinIndoors.jpg,bar8.jpg,,
Image_List_3,,,,,,,,,,,,,,,,44602,2020-11-23_12h03.10.637,lingCatScenes,2020.1.3,MacIntel,60,"[1440,900]",,,"[""trial_ahead_box""]",,,,,,,,,,,,appleorchard4.jpg,space,2.49006,[0.019700520833333332],[-0.29078125],[1],[0],[0],[2.2108700000098906],"[""trial_ahead_box""]",0,58,58,0,1,airplanecabin1.jpg,alley2.jpg,airplanecabin5.jpg,airplanecabin3.jpg,,
Image_List_3,,,,,,,,,,,,,,,,44602,2020-11-23_12h03.10.637,lingCatScenes,2020.1.3,MacIntel,60,"[1440,900]",,,"[""trial_slight_right_box"",""trial_slight_left_box""]",,,,,,,,,,,,livingroom.jpg,space,5.322175,"[0.010030381944444444,0.010030381944444444,0.005737847222222222,0.20856770833333332,0.009934895833333334,-0.19546875]","[-0.267265625,-0.29713541666666665,-0.32565104166666664,-0.30756510416666666,-0.28554253472222224,-0.2896918402777778]","[1,1,1,1,1,1]","[0,0,0,0,0,0]","[0,0,0,0,0,0]","[1.4416499999933876,1.808004999998957,3.058720000030007,3.745950000011362,4.307815000007395,5.024620000040159]","[""trial_ahead_box"",""trial_slight_right_box"",""trial_ahead_box"",""trial_slight_left_box""]",0,59,59,69,1,liquorstore8.jpg,parkinglot2.jpg,metroInside1.jpg,icecream2.jpg,,
Image_List_3,,,,,,,,,,,,,,,,44602,2020-11-23_12h03.10.637,lingCatScenes,2020.1.3,MacIntel,60,"[1440,900]",,,"[""trial_ahead_box"",""trial_slight_right_box"",""trial_slight_left_box""]",,,,,,,,,,,,staircase6.jpg,space,4.779695,"[0.016067708333333333,0.1983029513888889,-0.20490017361111112,-0.20398003472222223]","[-0.3172482638888889,-0.2961892361111111,-0.27493055555555557,-0.2804774305555556]","[1,1,1,1]","[0,0,0,0]","[0,0,0,0]","[1.37968999997247,2.700429999968037,3.4664299999712966,4.499029999948107]","[""trial_ahead_box"",""trial_slight_right_box"",""trial_slight_left_box""]",0,60,60,94,1,treehouse.jpg,waitingroom3.jpg,weightroom.jpg,trainStation3.jpg,,
Image_List_3,,,,,,,,,,,,,,,,44602,2020-11-23_12h03.10.637,lingCatScenes,2020.1.3,MacIntel,60,"[1440,900]",,,"[""trial_ahead_box"",""trial_slight_right_box""]",,,,,,,,,,,,dugout2.jpg,space,3.16877,"[-0.013029513888888889,0.19875868055555557]","[-0.31027777777777776,-0.2897178819444444]","[1,1]","[0,0]","[0,0]","[1.81205000000773,2.8277949999901466]","[""trial_ahead_box"",""trial_slight_right_box""]",0,61,61,43,1,exerciseequipment5.jpg,forestpath10.jpg,foodcourt.jpg,diningroom3.jpg,,
Image_List_3,,,,,,,,,,,,,,,,44602,2020-11-23_12h03.10.637,lingCatScenes,2020.1.3,MacIntel,60,"[1440,900]",,,"[""trial_slight_left_box""]",,,,,,,,,,,,tenniscourt3.jpg,space,2.274855,[-0.2064279513888889],[-0.31828993055555554],[1],[0],[0],[1.910459999984596],"[""trial_slight_left_box""]",0,62,62,96,1,warehouse4.jpg,warehouseoutside1.jpg,windmill1.jpg,warehouse1.jpg,,
Image_List_3,,,,,,,,,,,,,,,,44602,2020-11-23_12h03.10.637,lingCatScenes,2020.1.3,MacIntel,60,"[1440,900]",,,"[""trial_slight_left_box"",""trial_slight_right_box""]",,,,,,,,,,,,sculpturegarden4.jpg,space,4.69486,"[-0.19779947916666665,0.1853125]","[-0.2976258680555556,-0.3006814236111111]","[1,1]","[0,0]","[0,0]","[3.2827050000196323,4.099374999990687]","[""trial_slight_left_box"",""trial_slight_right_box""]",0,63,63,88,1,rooftop1.jpg,track.jpg,soccerfield.jpg,sandbox.jpg,,
Image_List_3,,,,,,,,,,,,,,,,44602,2020-11-23_12h03.10.637,lingCatScenes,2020.1.3,MacIntel,60,"[1440,900]",,,"[""trial_ahead_box"",""trial_slight_right_box""]",,,,,,,,,,,,promenadeDeck6.jpg,space,4.204965,"[-0.0075390625,0.24470052083333332,0.20903645833333334]","[-0.29910590277777777,-0.3084375,-0.3084375]","[1,1,1]","[0,0,0]","[0,0,0]","[2.8948600000003353,3.5119000000413507,3.9114850000478327]","[""trial_ahead_box"",""trial_slight_right_box""]",0,64,64,83,1,readingroom1.jpg,sculpturegarden1.jpg,restaurant8.jpg,readingroom2.jpg,,
Image_List_3,,,,,,,,,,,,,,,,44602,2020-11-23_12h03.10.637,lingCatScenes,2020.1.3,MacIntel,60,"[1440,900]",,,"[""trial_slight_right_box""]",,,,,,,,,,,,flowershop3.jpg,space,2.415675,[0.20385850694444443],[-0.28447916666666667],[1],[0],[0],[2.079744999995455],"[""trial_slight_right_box""]",0,65,65,49,1,frontDoor3.jpg,greenhouse5.jpg,greenhouse.jpg,farm2.jpg,,
Image_List_3,,,,,,,,,,,,,,,,44602,2020-11-23_12h03.10.637,lingCatScenes,2020.1.3,MacIntel,60,"[1440,900]",,,"[""trial_sharp_left_box""]",,,,,,,,,,,,balconyIN.jpg,space,3.009715,[-0.6093272569444445],[-0.2934201388888889],[1],[0],[0],[2.4453900000080466],"[""trial_sharp_left_box""]",0,66,66,8,1,attic3.jpg,banquetHall6.jpg,bar.jpg,applestore4.jpg,,
Image_List_3,,,,,,,,,,,,,,,,44602,2020-11-23_12h03.10.637,lingCatScenes,2020.1.3,MacIntel,60,"[1440,900]",,,"[""trial_ahead_box""]",,,,,,,,,,,,porch.jpg,space,1.821045,[-0.007317708333333333],[-0.29430989583333333],[1],[0],[0],[1.5621800000080839],"[""trial_ahead_box""]",0,67,67,80,1,pavilion2.jpg,racecarcourse2.jpg,poolhall5.jpg,parkinggarage4.jpg,,
Image_List_3,,,,,,,,,,,,,,,,44602,2020-11-23_12h03.10.637,lingCatScenes,2020.1.3,MacIntel,60,"[1440,900]",,,[],,,,,,,,,,,,factory1.jpg,space,4.411475,"[-0.024405381944444443,0.006215277777777778]","[-0.3494140625,-0.33532552083333333]","[1,1]","[0,0]","[0,0]","[3.680099999997765,4.113320000004023]",[],0,68,68,45,1,fittingroom2.jpg,frontFoyer7.jpg,forestpath4.jpg,dock4.jpg,,
Image_List_3,,,,,,,,,,,,,,,,44602,2020-11-23_12h03.10.637,lingCatScenes,2020.1.3,MacIntel,60,"[1440,900]",,,"[""trial_ahead_box""]",,,,,,,,,,,,jewelrystore8.jpg,space,2.11239,[-0.007300347222222222],[-0.29994791666666665],[1],[0],[0],[1.8010149999754503],"[""trial_ahead_box""]",0,69,69,64,1,igloo2.jpg,newsstand5.jpg,lab5.jpg,homegarage2.jpg,,
Image_List_3,,,,,,,,,,,,,,,,44602,2020-11-23_12h03.10.637,lingCatScenes,2020.1.3,MacIntel,60,"[1440,900]",,,"[""trial_ahead_box""]",,,,,,,,,,,,pier5.jpg,space,2.519945,"[-0.007348090277777778,-0.0014800347222222222]","[-0.2690842013888889,-0.30549045138888886]","[1,1]","[0,0]","[0,0]","[1.4627949999994598,1.9787150000338443]","[""trial_ahead_box""]",0,70,70,78,1,parkinglot3.jpg,poolhall1.jpg,pavilion3.jpg,observatory1.jpg,,
Image_List_3,,,,,,,,,,,,,,,,44602,2020-11-23_12h03.10.637,lingCatScenes,2020.1.3,MacIntel,60,"[1440,900]",,,"[""trial_sharp_right_box""]",,,,,,,,,,,,clothingstore2.jpg,space,3.38635,[0.6141970486111111],[-0.30114583333333333],[1],[0],[0],[2.7128849999862723],"[""trial_sharp_right_box""]",0,71,71,30,1,courthouse1.jpg,desertvegetation3.jpg,copyroom2.jpg,bus_shelter3.jpg,,
Image_List_3,,,,,,,,,,,,,,,,44602,2020-11-23_12h03.10.637,lingCatScenes,2020.1.3,MacIntel,60,"[1440,900]",,,"[""trial_ahead_box""]",,,,,,,,,,,,dock1.jpg,space,2.391985,"[0.008953993055555555,0.018333333333333333]","[-0.27375,-0.3197526041666667]","[1,1]","[0,0]","[0,0]","[1.4625599999562837,2.1283349999575876]","[""trial_ahead_box""]",0,72,72,38,1,dining_car2.jpg,elevatorOutside4.jpg,driveway8.jpg,classroom1.jpg,,
Image_List_3,,,,,,,,,,,,,,,,44602,2020-11-23_12h03.10.637,lingCatScenes,2020.1.3,MacIntel,60,"[1440,900]",,,"[""trial_ahead_box""]",,,,,,,,,,,,breakroom4.jpg,space,1.364465,[0.002738715277777778],[-0.2949001736111111],[1],[0],[0],[1.068230000033509],"[""trial_ahead_box""]",0,73,73,17,1,bikerack1.jpg,campsite6.jpg,carmechanic.jpg,baseball6.jpg,,
Image_List_3,,,,,,,,,,,,,,,,44602,2020-11-23_12h03.10.637,lingCatScenes,2020.1.3,MacIntel,60,"[1440,900]",,,"[""trial_ahead_box""]",,,,,,,,,,,,dining_car3.jpg,space,1.278055,[-0.011614583333333333],[-0.2848828125],[1],[0],[0],[0.9799399999901652],"[""trial_ahead_box""]",0,74,74,36,1,diner14.jpg,dormroom9.jpg,doctor1.jpg,checkoutcounter9.jpg,,
Image_List_3,,,,,,,,,,,,,,,,44602,2020-11-23_12h03.10.637,lingCatScenes,2020.1.3,MacIntel,60,"[1440,900]",,,"[""trial_ahead_box""]",,,,,,,,,,,,skatepark7.jpg,space,1.261195,[0.0000390625],[-0.3164192708333333],[1],[0],[0],[0.9788899999693967],"[""trial_ahead_box""]",0,75,75,92,1,staircase.jpg,volleyballcourt.jpg,tvstudio2.jpg,soccerfield2.jpg,,
Image_List_3,,,,,,,,,,,,,,,,44602,2020-11-23_12h03.10.637,lingCatScenes,2020.1.3,MacIntel,60,"[1440,900]",,,"[""trial_slight_right_box""]",,,,,,,,,,,,bambooforest5.jpg,space,2.32687,[0.18240885416666666],[-0.2935373263888889],[1],[0],[0],[1.712714999972377],"[""trial_slight_right_box""]",0,76,76,12,1,baggageClaim4.jpg,bedroom6.jpg,bleachers7.jpg,backyard5.jpg,,
Image_List_3,,,,,,,,,,,,,,,,44602,2020-11-23_12h03.10.637,lingCatScenes,2020.1.3,MacIntel,60,"[1440,900]",,,"[""trial_slight_right_box""]",,,,,,,,,,,,homegarage.jpg,space,2.23971,[0.20706597222222223],[-0.291328125],[1],[0],[0],[1.7618099999963306],"[""trial_slight_right_box""]",0,77,77,60,1,hometheater2.jpg,lightingstore3.jpg,kindergarten_classroom6.jpg,hallway.jpg,,
Image_List_3,,,,,,,,,,,,,,,,44602,2020-11-23_12h03.10.637,lingCatScenes,2020.1.3,MacIntel,60,"[1440,900]",,,"[""trial_ahead_box""]",,,,,,,,,,,,cliff2.jpg,space,2.447435,[0.0112890625],[-0.29800347222222223],[1],[0],[0],[2.2009650000254624],"[""trial_ahead_box""]",0,78,78,29,1,cornfield2.jpg,deck2.jpg,constructionSite4.jpg,bridalboutique3.jpg,,
Image_List_3,,,,,,,,,,,,,,,,44602,2020-11-23_12h03.10.637,lingCatScenes,2020.1.3,MacIntel,60,"[1440,900]",,,"[""trial_ahead_box""]",,,,,,,,,,,,sidewalk1.jpg,space,1.22303,[-0.02195746527777778],[-0.28893663194444447],[1],[0],[0],[0.87951499997871],"[""trial_ahead_box""]",0,79,79,90,1,savanna5.jpg,trainStation1.jpg,stripmall3.jpg,shoestore4.jpg,,
Image_List_3,,,,,,,,,,,,,,,,44602,2020-11-23_12h03.10.637,lingCatScenes,2020.1.3,MacIntel,60,"[1440,900]",,,"[""trial_slight_right_box""]",,,,,,,,,,,,promenadeDeck3.jpg,space,1.827485,[0.18684461805555555],[-0.30594184027777777],[1],[0],[0],[1.5459799999953248],"[""trial_slight_right_box""]",0,80,80,82,1,publicrestroom2.jpg,sandDunes_desert_outdoor9.jpg,readingroom4.jpg,postoffice4.jpg,,
Image_List_3,,,,,,,,,,,,,,,,44602,2020-11-23_12h03.10.637,lingCatScenes,2020.1.3,MacIntel,60,"[1440,900]",,,"[""trial_slight_left_box""]",,,,,,,,,,,,parkinggarage3.jpg,space,2.09641,[-0.1802170138888889],[-0.3069921875],[1],[0],[0],[1.8130200000014156],"[""trial_slight_left_box""]",0,81,81,76,1,parkinggarage.jpg,playroom4.jpg,park2.jpg,lookout4.jpg,,
Image_List_3,,,,,,,,,,,,,,,,44602,2020-11-23_12h03.10.637,lingCatScenes,2020.1.3,MacIntel,60,"[1440,900]",,,"[""trial_slight_left_box"",""trial_slight_right_box""]",,,,,,,,,,,,metroInside3.jpg,space,4.392065,"[-0.010677083333333334,-0.19774739583333334,0.20865885416666666,-0.0034852430555555557]","[-0.2971831597222222,-0.2872873263888889,-0.3239670138888889,-0.3176996527777778]","[1,1,1,1]","[0,0,0,0]","[0,0,0,0]","[1.9130649999715388,2.9106749999918975,3.4961699999985285,4.077315000002272]","[""trial_ahead_box"",""trial_slight_left_box"",""trial_slight_right_box"",""trial_ahead_box""]",0,82,82,71,1,metroInside2.jpg,pavilion5.jpg,museum3.jpg,jewelrystore.jpg,,
Image_List_3,,,,,,,,,,,,,,,,44602,2020-11-23_12h03.10.637,lingCatScenes,2020.1.3,MacIntel,60,"[1440,900]",,,"[""trial_sharp_right_box""]",,,,,,,,,,,,lightingstore4.jpg,space,3.125525,[0.6223871527777778],[-0.28159288194444443],[1],[0],[0],[2.461460000020452],"[""trial_sharp_right_box""]",0,83,83,68,1,liquorstore7.jpg,parkinglot.jpg,lockerroom2.jpg,hospitalroom3.jpg,,
Image_List_3,,,,,,,,,,,,,,,,44602,2020-11-23_12h03.10.637,lingCatScenes,2020.1.3,MacIntel,60,"[1440,900]",,,"[""trial_ahead_box"",""trial_slight_right_box"",""trial_right_box""]",,,,,,,,,,,,auto_showroom5.jpg,space,4.3442,"[0.22581163194444445,0.0032552083333333335,0.19440538194444446,0.3951605902777778]","[-0.30203993055555556,-0.3207595486111111,-0.3233333333333333,-0.3126345486111111]","[1,1,1,1]","[0,0,0,0]","[0,0,0,0]","[1.460239999985788,2.477424999990035,3.144659999990836,4.044370000017807]","[""trial_ahead_box"",""trial_slight_right_box"",""trial_right_box""]",0,84,84,6,1,ATM1.jpg,banquetHall2.jpg,baggageClaim1.jpg,apartmentBuilding3.jpg,,
Image_List_3,,,,,,,,,,,,,,,,44602,2020-11-23_12h03.10.637,lingCatScenes,2020.1.3,MacIntel,60,"[1440,900]",,,"[""trial_ahead_box""]",,,,,,,,,,,,windmill2.jpg,space,2.32243,[-0.012591145833333333],[-0.2977213541666667],[1],[0],[0],[1.928139999974519],"[""trial_ahead_box""]",0,85,85,99,1,wineVineyard9.jpg,yogastudio4.jpg,wrestlingring7.jpg,yogastudio1.jpg,,
Image_List_3,,,,,,,,,,,,,,,,44602,2020-11-23_12h03.10.637,lingCatScenes,2020.1.3,MacIntel,60,"[1440,900]",,,"[""trial_slight_left_box"",""trial_slight_right_box""]",,,,,,,,,,,,playground9.jpg,space,2.8482,"[-0.2200390625,0.2225607638888889]","[-0.29497829861111113,-0.32210503472222224]","[1,1]","[0,0]","[0,0]","[1.4331149999634363,2.233929999987595]","[""trial_slight_left_box"",""trial_slight_right_box""]",0,86,86,79,1,pasture.jpg,poolhall2.jpeg,pier2.jpg,observatory2.jpg,,
Image_List_3,,,,,,,,,,,,,,,,44602,2020-11-23_12h03.10.637,lingCatScenes,2020.1.3,MacIntel,60,"[1440,900]",,,"[""trial_ahead_box""]",,,,,,,,,,,,backstage1.jpg,space,2.012555,[0.00359375],[-0.31362413194444444],[1],[0],[0],[1.6970350000192411],"[""trial_ahead_box""]",0,87,87,7,1,attic2.jpg,banquetHall4.jpg,baggageClaim3.jpg,applestore2.jpg,,
Image_List_3,,,,,,,,,,,,,,,,44602,2020-11-23_12h03.10.637,lingCatScenes,2020.1.3,MacIntel,60,"[1440,900]",,,"[""trial_slight_right_box""]",,,,,,,,,,,,musicStore1.jpg,space,1.943755,[0.20908854166666666],[-0.3165451388888889],[1],[0],[0],[1.5778900000150315],"[""trial_slight_right_box""]",0,88,88,72,1,museum5.jpg,pharmacy4.jpg,museum4.jpg,kindergarten_classroom.jpg,,
Image_List_3,,,,,,,,,,,,,,,,44602,2020-11-23_12h03.10.637,lingCatScenes,2020.1.3,MacIntel,60,"[1440,900]",,,"[""trial_left_box"",""trial_sharp_right_box""]",,,,,,,,,,,,courthouse4.jpg,space,3.9402,"[-0.42358506944444446,0.5953559027777777]","[-0.2819184027777778,-0.30315538194444447]","[1,1]","[0,0]","[0,0]","[2.713770000031218,3.6108750000130385]","[""trial_left_box"",""trial_sharp_right_box""]",0,89,89,34,1,deck4.jpg,diningroom5.jpg,diner11.jpg,campusquad1.jpg,,
Image_List_3,,,,,,,,,,,,,,,,44602,2020-11-23_12h03.10.637,lingCatScenes,2020.1.3,MacIntel,60,"[1440,900]",,,"[""trial_slight_left_box"",""trial_sharp_right_box""]",,,,,,,,,,,,firestation4.jpg,space,5.50929,"[-0.19069444444444444,0.5655989583333333,0.6365451388888889,0.6226171875]","[-0.2951302083333333,-0.31072916666666667,-0.31472222222222224,-0.30776475694444444]","[1,1,1,1]","[0,0,0,0]","[0,0,0,0]","[2.495154999953229,3.515254999976605,4.56220999994548,5.1618149999994785]","[""trial_slight_left_box"",""trial_sharp_right_box""]",0,90,90,47,1,frontDoor.jpg,gasstation8.jpg,fountain7.jpg,elevatorOutside2.jpg,,
Image_List_3,,,,,,,,,,,,,,,,44602,2020-11-23_12h03.10.637,lingCatScenes,2020.1.3,MacIntel,60,"[1440,900]",,,"[""trial_left_box"",""trial_ahead_box""]",,,,,,,,,,,,church4.jpg,space,3.57661,"[-0.3866796875,0.020620659722222223]","[-0.2947873263888889,-0.31993923611111114]","[1,1]","[0,0]","[0,0]","[1.9960899999714456,3.0948549999739043]","[""trial_left_box"",""trial_ahead_box""]",0,91,91,26,1,campusquad2.jpg,cornfield4.jpg,churchInside3.jpg,botanicalGarden7.jpg,,
Image_List_3,,,,,,,,,,,,,,,,44602,2020-11-23_12h03.10.637,lingCatScenes,2020.1.3,MacIntel,60,"[1440,900]",,,"[""trial_sharp_right_box""]",,,,,,,,,,,,campsite3.jpg,space,4.869965,[0.5998914930555556],[-0.29953125],[1],[0],[0],[2.2420149999670684],"[""trial_sharp_right_box""]",0,92,92,20,1,boardwalk6.jpg,cave.jpg,cave4.jpg,basketballcourt7.jpg,,
Image_List_3,,,,,,,,,,,,,,,,44602,2020-11-23_12h03.10.637,lingCatScenes,2020.1.3,MacIntel,60,"[1440,900]",,,"[""trial_right_box""]",,,,,,,,,,,,bistrooutdoor5.jpg,space,3.525165,"[0.3817230902777778,0.3817230902777778,0.3817230902777778]","[-0.3263888888888889,-0.3263888888888889,-0.31713541666666667]","[1,1,1]","[0,0,0]","[0,0,0]","[1.9462099999655038,2.2804550000000745,2.7302099999506027]","[""trial_right_box""]",0,93,93,14,1,ballroom1.jpg,breakroom5.jpg,botanicalGarden5.jpg,ballroom3.jpg,,
Image_List_3,,,,,,,,,,,,,,,,44602,2020-11-23_12h03.10.637,lingCatScenes,2020.1.3,MacIntel,60,"[1440,900]",,,"[""trial_ahead_box""]",,,,,,,,,,,,hedgemaze1.jpg,space,4.02913,[-0.007643229166666667],[-0.27911024305555554],[1],[0],[0],[3.782500000030268],"[""trial_ahead_box""]",0,94,94,58,1,highway7.jpg,lab1.jpg,igloo4.jpg,grocerystore2.jpg,,
Image_List_3,,,,,,,,,,,,,,,,44602,2020-11-23_12h03.10.637,lingCatScenes,2020.1.3,MacIntel,60,"[1440,900]",,,"[""trial_ahead_box""]",,,,,,,,,,,,churchInside4.jpg,space,1.460305,[-0.007643229166666667],[-0.27911024305555554],[1],[0],[0],[0.9791299999924377],"[""trial_ahead_box""]",0,95,95,27,1,castle3.jpg,courtroom3.jpg,closet.jpg,brewery2.jpg,,
Image_List_3,,,,,,,,,,,,,,,,44602,2020-11-23_12h03.10.637,lingCatScenes,2020.1.3,MacIntel,60,"[1440,900]",,,"[""trial_ahead_box"",""trial_slight_right_box""]",,,,,,,,,,,,beach2.jpg,space,2.82713,"[-0.007643229166666667,0.2567013888888889,0.20803819444444444]","[-0.27911024305555554,-0.33015625,-0.3033203125]","[1,1,1]","[0,0,0]","[0,0,0]","[1.1785300000337884,2.1779950000345707,2.595325000002049]","[""trial_ahead_box"",""trial_slight_right_box""]",0,96,96,13,1,balconyIN2.jpg,bowlingalley3.jpg,boardwalk4.jpg,backyard6.jpg,,
Image_List_3,,,,,,,,,,,,,,,,44602,2020-11-23_12h03.10.637,lingCatScenes,2020.1.3,MacIntel,60,"[1440,900]",,,"[""trial_ahead_box""]",,,,,,,,,,,,nursery.jpg,space,1.9426,[-0.0013585069444444445],[-0.2949001736111111],[1],[0],[0],[1.663475000008475],"[""trial_ahead_box""]",0,97,97,73,1,musicStore3.jpg,photographer_studio2.jpg,nursery4.jpg,library_aisle9.jpg,,
Image_List_3,,,,,,,,,,,,,,,,44602,2020-11-23_12h03.10.637,lingCatScenes,2020.1.3,MacIntel,60,"[1440,900]",,,"[""trial_slight_left_box"",""trial_sharp_right_box""]",,,,,,,,,,,,auto_showroom4.jpg,space,3.196065,"[-0.18920138888888888,0.5821137152777778]","[-0.30601996527777775,-0.291015625]","[1,1]","[0,0]","[0,0]","[1.9365899999975227,2.785759999998845]","[""trial_slight_left_box"",""trial_sharp_right_box""]",0,98,98,5,1,artStudio3.jpg,bambooforest.jpg,attic4.jpg,amusement3.jpg,,
Image_List_3,,,,,,,,,,,,,,,,44602,2020-11-23_12h03.10.637,lingCatScenes,2020.1.3,MacIntel,60,"[1440,900]",,,"[""trial_ahead_box""]",,,,,,,,,,,,laundromat3.jpg,space,1.968935,[-0.019019097222222222],[-0.28844618055555554],[1],[0],[0],[1.6936350000323728],"[""trial_ahead_box""]",0,99,99,66,1,library_aisle10.jpg,office3.jpg,liquorstore.jpg,horsebarn9.jpg,,
Image_List_3,,,,,,,,,,,,,,,,44602,2020-11-23_12h03.10.637,lingCatScenes,2020.1.3,MacIntel,60,,,,,,,,,,,,,,,,,,,,,,,,,,,,,,,,,,,space,25.827945
