image_list,key_resp_intructions.keys,key_resp_intructions.rt,key_resp_intructions_3.keys,key_resp_intructions_3.rt,PracticeComplete_2.keys,PracticeComplete_2.rt,PracticeComplete_3.keys,PracticeComplete_3.rt,demo_trials.thisRepN,demo_trials.thisTrialN,demo_trials.thisN,demo_trials.thisIndex,demo_trials.ran,demo_images,path_images,participant,date,expName,psychopyVersion,OS,frameRate,windowSize,drawing,numDrawings,drawingSizes,practice_complete.keys,practice_complete.rt,PracticeComplete.keys,PracticeComplete.rt,practice_trials.thisRepN,practice_trials.thisTrialN,practice_trials.thisN,practice_trials.thisIndex,practice_trials.ran,practice_images,feedback_images,key_resp_intructions_2.keys,key_resp_intructions_2.rt,Image_List_2,trial_complete.keys,trial_complete.rt,trials.thisRepN,trials.thisTrialN,trials.thisN,trials.thisIndex,trials.ran,Image_List_1,Image_List_3,Image_List_4,Image_List_5,key_resp.keys,key_resp.rt
Image_List_2,space,4.88991,space,0.78241,space,1.6788,space,0.66752,0,0,0,3,1,ahead_right_left.jpg,ahead_right_left_path.jpg,44607,2020-11-24_13h00.00.763,analogCatScenes,2020.1.3,MacIntel,60,,,,,,,,,,,,,,,,,,,,,,,,,,,,,,,
Image_List_2,,,,,space,0.4845,space,0.32932,0,1,1,1,1,ahead_left.jpg,ahead_left_path.jpg,44607,2020-11-24_13h00.00.763,analogCatScenes,2020.1.3,MacIntel,60,,,,,,,,,,,,,,,,,,,,,,,,,,,,,,,
Image_List_2,,,,,space,0.51794,space,0.69009,0,2,2,4,1,left.jpg,left_path.jpg,44607,2020-11-24_13h00.00.763,analogCatScenes,2020.1.3,MacIntel,60,,,,,,,,,,,,,,,,,,,,,,,,,,,,,,,
Image_List_2,,,,,space,0.664025,space,0.39962,0,3,3,5,1,right.jpg,right_path.jpg,44607,2020-11-24_13h00.00.763,analogCatScenes,2020.1.3,MacIntel,60,,,,,,,,,,,,,,,,,,,,,,,,,,,,,,,
Image_List_2,,,,,space,0.785355,space,0.50124,0,4,4,2,1,ahead_right.jpg,ahead_right_path.jpg,44607,2020-11-24_13h00.00.763,analogCatScenes,2020.1.3,MacIntel,60,,,,,,,,,,,,,,,,,,,,,,,,,,,,,,,
Image_List_2,,,,,space,0.44438,space,0.328025,0,5,5,0,1,ahead.jpg,ahead_path.jpg,44607,2020-11-24_13h00.00.763,analogCatScenes,2020.1.3,MacIntel,60,,,,,,,,,,,,,,,,,,,,,,,,,,,,,,,
Image_List_2,,,,,space,0.420045,space,0.335805,0,6,6,6,1,right_left.jpg,right_left_path.jpg,44607,2020-11-24_13h00.00.763,analogCatScenes,2020.1.3,MacIntel,60,,,,,,,,,,,,,,,,,,,,,,,,,,,,,,,
Image_List_2,,,,,,,,,,,,,,,,44607,2020-11-24_13h00.00.763,analogCatScenes,2020.1.3,MacIntel,60,"[1280,800]",[],0,[],space,0.33457,space,0.21056,0,0,0,1,1,ahead_left_2.jpg,ahead_left_2_path.jpg,,,,,,,,,,,,,,,,
Image_List_2,,,,,,,,,,,,,,,,44607,2020-11-24_13h00.00.763,analogCatScenes,2020.1.3,MacIntel,60,"[1280,800]",[],0,[],space,0.152795,space,0.93346,0,1,1,2,1,ahead_right_2.jpg,ahead_right_2_path.jpg,,,,,,,,,,,,,,,,
Image_List_2,,,,,,,,,,,,,,,,44607,2020-11-24_13h00.00.763,analogCatScenes,2020.1.3,MacIntel,60,"[1280,800]",[],0,[],space,0.116815,space,0.12794,0,2,2,5,1,right_2.jpg,right_2_path.jpg,,,,,,,,,,,,,,,,
Image_List_2,,,,,,,,,,,,,,,,44607,2020-11-24_13h00.00.763,analogCatScenes,2020.1.3,MacIntel,60,"[1280,800]",[],0,[],space,0.21775,space,0.19179,0,3,3,0,1,ahead_2.jpg,ahead_2_path.jpg,,,,,,,,,,,,,,,,
Image_List_2,,,,,,,,,,,,,,,,44607,2020-11-24_13h00.00.763,analogCatScenes,2020.1.3,MacIntel,60,"[1280,800]",[],0,[],space,0.160685,space,0.348865,0,4,4,3,1,ahead_right_left_2.jpg,ahead_right_left_2_path.jpg,,,,,,,,,,,,,,,,
Image_List_2,,,,,,,,,,,,,,,,44607,2020-11-24_13h00.00.763,analogCatScenes,2020.1.3,MacIntel,60,"[1280,800]",[],0,[],space,0.127975,space,0.713795,0,5,5,6,1,right_left_2.jpg,right_left_2_path.jpg,,,,,,,,,,,,,,,,
Image_List_2,,,,,,,,,,,,,,,,44607,2020-11-24_13h00.00.763,analogCatScenes,2020.1.3,MacIntel,60,"[1280,800]",[],0,[],space,0.049995,space,0.544845,0,6,6,4,1,left_2.jpg,left_2_path.jpg,,,,,,,,,,,,,,,,
Image_List_2,,,,,,,,,,,,,,,,44607,2020-11-24_13h00.00.763,analogCatScenes,2020.1.3,MacIntel,60,"[1280,800]","[[[-0.0089501953125,-0.1944775390625],[-0.0089501953125,-0.1944775390625],[-0.0089501953125,-0.1944775390625],[-0.0089501953125,-0.1944775390625],[-0.0089501953125,-0.1944775390625],[-0.0089501953125,-0.1944775390625],[-0.0089501953125,-0.1944775390625],[-0.0089501953125,-0.1944775390625],[-0.0089501953125,-0.1944775390625],[-0.0089501953125,-0.1944775390625],[-0.0089501953125,-0.1944775390625],[-0.0089501953125,-0.1944775390625],[-0.0089501953125,-0.1944775390625],[-0.0089501953125,-0.1944775390625],[-0.0089501953125,-0.1944775390625],[-0.0089501953125,-0.1944775390625],[-0.0089501953125,-0.1944775390625],[-0.0089501953125,-0.193466796875],[-0.0089501953125,-0.192421875],[-0.0101318359375,-0.190068359375],[-0.0117041015625,-0.18771484375],[-0.0133447265625,-0.1848291015625],[-0.0155859375,-0.1812744140625],[-0.017822265625,-0.1777294921875],[-0.0205810546875,-0.17359375],[-0.0233251953125,-0.1699365234375],[-0.0260986328125,-0.1662353515625],[-0.0311865234375,-0.16068359375],[-0.0339599609375,-0.156982421875],[-0.037197265625,-0.1537451171875],[-0.039765625,-0.1511767578125],[-0.0428955078125,-0.148046875],[-0.0454638671875,-0.145478515625],[-0.0486865234375,-0.1422607421875],[-0.0512548828125,-0.1396923828125],[-0.0533203125,-0.1372412109375],[-0.05578125,-0.1351708984375],[-0.057744140625,-0.1332080078125],[-0.0592431640625,-0.131318359375],[-0.0611376953125,-0.129814453125],[-0.063291015625,-0.1276611328125],[-0.065185546875,-0.1261572265625],[-0.06662109375,-0.125078125],[-0.068515625,-0.12357421875],[-0.07046875,-0.1216259765625],[-0.07236328125,-0.1201220703125],[-0.074716796875,-0.1185498046875],[-0.077177734375,-0.1164794921875],[-0.0796240234375,-0.1144189453125],[-0.08162109375,-0.112421875],[-0.083974609375,-0.110849609375],[-0.0859716796875,-0.1088525390625],[-0.0883154296875,-0.10728515625],[-0.091455078125,-0.1045361328125],[-0.09380859375,-0.1029638671875],[-0.0966943359375,-0.1013232421875],[-0.099150390625,-0.0992578125],[-0.102568359375,-0.097548828125],[-0.1055615234375,-0.09541015625],[-0.108583984375,-0.0932421875],[-0.1121240234375,-0.0910107421875],[-0.1151171875,-0.0888720703125],[-0.118525390625,-0.08716796875],[-0.1220654296875,-0.0849365234375],[-0.128076171875,-0.0807763671875],[-0.1322314453125,-0.078466796875],[-0.1363916015625,-0.075693359375],[-0.1405517578125,-0.07337890625],[-0.1445703125,-0.0715966796875],[-0.149189453125,-0.0692822265625],[-0.1538037109375,-0.067431640625],[-0.1584228515625,-0.065576171875],[-0.163681640625,-0.06412109375],[-0.1693896484375,-0.0620263671875],[-0.17396484375,-0.06064453125],[-0.1785546875,-0.0592578125],[-0.1825341796875,-0.0583740234375],[-0.18765625,-0.0575146484375],[-0.189365234375,-0.0570849609375],[-0.1939599609375,-0.0562255859375],[-0.1973779296875,-0.0557958984375],[-0.20078125,-0.05537109375],[-0.20419921875,-0.05537109375],[-0.2070751953125,-0.05537109375],[-0.209951171875,-0.0549462890625],[-0.212275390625,-0.0549462890625],[-0.2146240234375,-0.0545556640625],[-0.2169580078125,-0.0545556640625],[-0.2193017578125,-0.0541650390625],[-0.2207177734375,-0.0541650390625],[-0.2226123046875,-0.05376953125],[-0.224375,-0.053408203125],[-0.225419921875,-0.053046875],[-0.22646484375,-0.0527197265625],[-0.227509765625,-0.0527197265625],[-0.2281591796875,-0.0523974609375],[-0.22919921875,-0.0523974609375],[-0.2298486328125,-0.0520751953125],[-0.230498046875,-0.0520751953125],[-0.2311474609375,-0.0520751953125],[-0.231796875,-0.0520751953125],[-0.232841796875,-0.0520751953125],[-0.2331689453125,-0.0520751953125],[-0.2345166015625,-0.0520751953125],[-0.235166015625,-0.051748046875],[-0.235478515625,-0.051748046875],[-0.2361328125,-0.051748046875],[-0.237177734375,-0.0514208984375],[-0.23783203125,-0.0514208984375],[-0.2388720703125,-0.0510595703125],[-0.2399169921875,-0.0510595703125],[-0.24056640625,-0.0507373046875],[-0.241220703125,-0.0507373046875],[-0.2422607421875,-0.0507373046875],[-0.244013671875,-0.0503759765625],[-0.24466796875,-0.0503759765625],[-0.245712890625,-0.050048828125],[-0.2471484375,-0.050048828125],[-0.248193359375,-0.0497216796875],[-0.24923828125,-0.049033203125],[-0.250673828125,-0.049033203125],[-0.252109375,-0.048671875],[-0.253544921875,-0.048310546875],[-0.2554345703125,-0.0479150390625],[-0.2573193359375,-0.0471630859375],[-0.2596337890625,-0.0471630859375],[-0.2626904296875,-0.046376953125],[-0.263408203125,-0.046376953125],[-0.26515625,-0.0460498046875],[-0.266201171875,-0.0460498046875],[-0.266201171875,-0.04572265625],[-0.266201171875,-0.045419921875],[-0.266201171875,-0.044375]],[[-0.0046337890625,-0.192138671875],[-0.0046337890625,-0.192138671875],[-0.0046337890625,-0.192138671875],[-0.0046337890625,-0.192138671875],[-0.0046337890625,-0.192138671875],[-0.0046337890625,-0.192138671875],[-0.0046337890625,-0.192138671875],[-0.0046337890625,-0.192138671875],[-0.0046337890625,-0.192138671875],[-0.0046337890625,-0.192138671875],[-0.0046337890625,-0.192138671875],[-0.0046337890625,-0.192138671875],[-0.0046337890625,-0.192138671875],[-0.0046337890625,-0.192138671875],[-0.0046337890625,-0.192138671875],[-0.0034765625,-0.1915576171875],[0.0081201171875,-0.1870654296875],[0.0206640625,-0.181220703125],[0.03671875,-0.17490234375],[0.055224609375,-0.1667529296875],[0.0804833984375,-0.154951171875],[0.10275390625,-0.145419921875],[0.126552734375,-0.1346240234375],[0.14330078125,-0.127353515625],[0.1641552734375,-0.118828125],[0.18419921875,-0.11033203125],[0.2026708984375,-0.1029345703125],[0.2194775390625,-0.09658203125],[0.235732421875,-0.0901904296875],[0.2575244140625,-0.0829052734375],[0.2691357421875,-0.079833984375],[0.276845703125,-0.0775634765625],[0.286259765625,-0.0758056640625],[0.2935888671875,-0.074755859375],[0.300205078125,-0.0742333984375],[0.306435546875,-0.0738037109375],[0.31349609375,-0.0738037109375],[0.319443359375,-0.0733056640625],[0.32470703125,-0.0733056640625],[0.3299072265625,-0.0733056640625],[0.333916015625,-0.0733056640625],[0.3401904296875,-0.0733056640625],[0.3441650390625,-0.0733056640625],[0.3475732421875,-0.0733056640625]],[[-0.0064404296875,-0.1961328125],[-0.0064404296875,-0.1961328125],[-0.0064404296875,-0.1961328125],[-0.0064404296875,-0.1961328125],[-0.0064404296875,-0.1961328125],[-0.0064404296875,-0.1961328125],[-0.0064404296875,-0.1961328125],[-0.0064404296875,-0.1961328125],[-0.0064404296875,-0.1961328125],[-0.0064404296875,-0.1961328125],[-0.0064404296875,-0.1961328125],[-0.0064404296875,-0.1961328125],[-0.0064404296875,-0.1941748046875],[-0.0064404296875,-0.189736328125],[-0.0064404296875,-0.1843359375],[-0.0064404296875,-0.1770166015625],[-0.0064404296875,-0.1681396484375],[-0.00697265625,-0.1614404296875],[-0.0088818359375,-0.14953125],[-0.01048828125,-0.1413623046875],[-0.01275390625,-0.1277685546875],[-0.0133203125,-0.120927734375],[-0.0143310546875,-0.1143701171875],[-0.015361328125,-0.1076708984375],[-0.0159130859375,-0.101572265625],[-0.0164111328125,-0.09572265625],[-0.016875,-0.0904345703125],[-0.016875,-0.085146484375],[-0.017373046875,-0.0798681640625],[-0.0178369140625,-0.0752587890625],[-0.0178369140625,-0.0701416015625],[-0.01830078125,-0.0655224609375],[-0.01830078125,-0.0609033203125],[-0.019248046875,-0.0533984375],[-0.0201611328125,-0.04884765625],[-0.0205908203125,-0.0448876953125],[-0.021533203125,-0.03970703125],[-0.0219970703125,-0.03515625],[-0.0229248046875,-0.030537109375],[-0.02337890625,-0.02595703125],[-0.0237890625,-0.0220068359375],[-0.0237890625,-0.018603515625],[-0.02419921875,-0.01525390625],[-0.02419921875,-0.0123681640625],[-0.0245849609375,-0.008330078125],[-0.0245849609375,-0.0060009765625],[-0.024970703125,-0.003134765625],[-0.024970703125,-0.00080078125],[-0.0253662109375,0.001552734375],[-0.0253662109375,0.00388671875],[-0.02576171875,0.006240234375],[-0.02576171875,0.0081298828125],[-0.02611328125,0.00955078125],[-0.02611328125,0.0114453125],[-0.02611328125,0.0128759765625],[-0.02611328125,0.0143115234375],[-0.02611328125,0.0153564453125],[-0.02611328125,0.0171142578125],[-0.02611328125,0.0181494140625],[-0.02611328125,0.0191845703125],[-0.02611328125,0.0202294921875],[-0.026474609375,0.02126953125],[-0.026474609375,0.0219189453125],[-0.026474609375,0.0225732421875],[-0.026474609375,0.0228955078125],[-0.026474609375,0.023525390625],[-0.0267822265625,0.0238330078125],[-0.0267822265625,0.0238330078125],[-0.0267822265625,0.0241357421875],[-0.0267822265625,0.0241357421875],[-0.0267822265625,0.0241357421875],[-0.0267822265625,0.0244287109375],[-0.0267822265625,0.0244287109375],[-0.0267822265625,0.02505859375],[-0.0267822265625,0.0253857421875],[-0.0267822265625,0.0260205078125],[-0.0267822265625,0.026328125],[-0.0267822265625,0.0266552734375],[-0.0267822265625,0.0269580078125],[-0.0267822265625,0.0269580078125],[-0.0267822265625,0.0269580078125],[-0.0267822265625,0.0269580078125],[-0.0267822265625,0.0269580078125],[-0.0267822265625,0.0269580078125],[-0.0267822265625,0.0269580078125],[-0.0267822265625,0.0269580078125],[-0.0267822265625,0.0269580078125],[-0.0267822265625,0.0269580078125],[-0.0267822265625,0.0269580078125]]]",3,"[133,44,89]",,,,,,,,,,,,space,2.16253,frontFoyer7.jpg,space,16.35236,0,0,0,45,1,fittingroom2.jpg,factory1.jpg,forestpath4.jpg,dock4.jpg,,
Image_List_2,,,,,,,,,,,,,,,,44607,2020-11-24_13h00.00.763,analogCatScenes,2020.1.3,MacIntel,60,"[1280,800]","[[[-0.003115234375,-0.1984423828125],[-0.003115234375,-0.1984423828125],[-0.003115234375,-0.1984423828125],[-0.003115234375,-0.1984423828125],[-0.003115234375,-0.1984423828125],[-0.003115234375,-0.1984423828125],[-0.003115234375,-0.1984423828125],[-0.003115234375,-0.1984423828125],[-0.003115234375,-0.1984423828125],[-0.001953125,-0.1981494140625],[0.00716796875,-0.19474609375],[0.0249169921875,-0.1883544921875],[0.0479248046875,-0.180419921875],[0.0763720703125,-0.1718017578125],[0.1080810546875,-0.163984375],[0.13080078125,-0.16009765625],[0.1477978515625,-0.1551904296875],[0.16236328125,-0.1518701171875],[0.173017578125,-0.148310546875],[0.183828125,-0.144697265625],[0.19373046875,-0.141201171875],[0.20197265625,-0.1384375],[0.210927734375,-0.13619140625],[0.2198583984375,-0.133388671875],[0.228115234375,-0.1311376953125],[0.235546875,-0.1290087890625],[0.247998046875,-0.125009765625],[0.25341796875,-0.123515625],[0.259306640625,-0.12154296875],[0.2651953125,-0.120068359375],[0.2726953125,-0.117373046875],[0.27931640625,-0.1148388671875],[0.28599609375,-0.112265625],[0.2912744140625,-0.110341796875],[0.297216796875,-0.107861328125],[0.3024951171875,-0.1059375],[0.308173828125,-0.1044189453125],[0.315673828125,-0.1017236328125],[0.3232568359375,-0.099326171875],[0.3290478515625,-0.0969189453125],[0.334931640625,-0.09544921875],[0.3402099609375,-0.0940234375],[0.34478515625,-0.092646484375]]]",1,[43],,,,,,,,,,,,,,newsstand7.jpg,space,7.29906,0,1,1,65,1,igloo5.jpg,laundromat2.jpeg,labClass7.jpg,homeoffice8.jpg,,
Image_List_2,,,,,,,,,,,,,,,,44607,2020-11-24_13h00.00.763,analogCatScenes,2020.1.3,MacIntel,60,"[1280,800]","[[[-0.0000830078125,-0.195888671875],[-0.0000830078125,-0.195888671875],[-0.0000830078125,-0.195888671875],[-0.0000830078125,-0.195888671875],[-0.0000830078125,-0.195888671875],[-0.0000830078125,-0.195888671875],[-0.0000830078125,-0.195888671875],[-0.0000830078125,-0.195888671875],[-0.0000830078125,-0.195888671875],[-0.0000830078125,-0.195888671875],[-0.0000830078125,-0.195888671875],[-0.0000830078125,-0.195888671875],[-0.0000830078125,-0.195888671875],[-0.0000830078125,-0.195888671875],[-0.0000830078125,-0.195888671875],[-0.0000830078125,-0.195888671875],[-0.00109375,-0.1962451171875],[-0.002578125,-0.197744140625],[-0.0068896484375,-0.2015771484375],[-0.00998046875,-0.204658203125],[-0.013681640625,-0.2078857421875],[-0.0182666015625,-0.2124609375],[-0.0226904296875,-0.216875],[-0.02865234375,-0.2228271484375],[-0.032529296875,-0.2266943359375],[-0.037841796875,-0.2319970703125],[-0.0425830078125,-0.2371923828125],[-0.04783203125,-0.242431640625],[-0.052353515625,-0.24744140625]]]",1,[29],,,,,,,,,,,,,,trainStation5.jpg,space,3.798525,0,2,2,91,1,shoestore2.jpg,skatepark5.jpg,ticket_counter6.jpg,sidewalk3.jpg,,
Image_List_2,,,,,,,,,,,,,,,,44607,2020-11-24_13h00.00.763,analogCatScenes,2020.1.3,MacIntel,60,"[1280,800]","[[[-0.0018505859375,-0.201640625],[-0.0018505859375,-0.201640625],[-0.0018505859375,-0.201640625],[-0.0018505859375,-0.201640625],[-0.0018505859375,-0.201640625],[-0.0018505859375,-0.201640625],[-0.0018505859375,-0.201640625],[-0.0018505859375,-0.201640625],[-0.0018505859375,-0.201640625],[0.0027880859375,-0.19951171875],[0.0150634765625,-0.1923876953125],[0.045166015625,-0.173251953125],[0.0665185546875,-0.1591552734375],[0.109560546875,-0.129326171875],[0.1344677734375,-0.1123046875],[0.177255859375,-0.081982421875],[0.211005859375,-0.058818359375],[0.235107421875,-0.0427392578125],[0.2696875,-0.0190771484375],[0.2854052734375,-0.0083740234375],[0.2971044921875,-0.0006005859375],[0.303369140625,0.0036181640625],[0.3094580078125,0.0071875],[0.312314453125,0.008427734375],[0.314189453125,0.008818359375],[0.3148291015625,0.008818359375],[0.3148291015625,0.008818359375],[0.3148291015625,0.008818359375],[0.3148291015625,0.0091162109375]],[[0.00193359375,-0.195205078125],[0.00193359375,-0.195205078125],[0.00193359375,-0.195205078125],[0.00193359375,-0.195205078125],[0.00193359375,-0.195205078125],[0.0022216796875,-0.195205078125],[0.016953125,-0.195205078125],[0.05646484375,-0.195205078125],[0.1394189453125,-0.195205078125],[0.2112060546875,-0.195205078125],[0.302607421875,-0.195205078125],[0.348720703125,-0.195205078125]]]",2,"[29,12]",,,,,,,,,,,,,,frontFoyer4.jpg,space,2.649585,0,3,3,44,1,firestation2.jpg,elevatorOutside1.jpg,foodcourt6.jpg,dock2.jpg,,
Image_List_2,,,,,,,,,,,,,,,,44607,2020-11-24_13h00.00.763,analogCatScenes,2020.1.3,MacIntel,60,"[1280,800]","[[[0.000087890625,-0.19607421875],[0.000087890625,-0.19607421875],[0.000087890625,-0.19607421875],[0.000087890625,-0.19607421875],[0.000087890625,-0.19607421875],[0.000087890625,-0.19607421875],[0.000087890625,-0.19607421875],[0.000087890625,-0.19607421875],[0.000087890625,-0.19607421875],[0.000087890625,-0.19607421875],[-0.0103076171875,-0.2040576171875],[-0.02521484375,-0.215400390625],[-0.0473388671875,-0.2340966796875]]]",1,[13],,,,,,,,,,,,,,office3.jpg,space,3.03163,0,4,4,66,1,library_aisle10.jpg,laundromat3.jpg,liquorstore.jpg,horsebarn9.jpg,,
Image_List_2,,,,,,,,,,,,,,,,44607,2020-11-24_13h00.00.763,analogCatScenes,2020.1.3,MacIntel,60,"[1280,800]","[[[-0.0029833984375,-0.1995947265625],[-0.0029833984375,-0.1995947265625],[-0.0029833984375,-0.1995947265625],[-0.0029833984375,-0.1995947265625],[-0.0029833984375,-0.1995947265625],[-0.0029833984375,-0.1995947265625],[-0.0029833984375,-0.1995947265625],[-0.0029833984375,-0.1995947265625],[-0.0029833984375,-0.1995947265625],[-0.0029833984375,-0.1995947265625],[-0.0029833984375,-0.1995947265625],[-0.0029833984375,-0.1995947265625],[-0.0029833984375,-0.1995947265625],[-0.0029833984375,-0.198720703125],[-0.0014990234375,-0.1945654296875],[0.0043212890625,-0.1864404296875],[0.0172216796875,-0.169755859375],[0.03171875,-0.1504150390625],[0.053203125,-0.1224072265625],[0.0784228515625,-0.090400390625],[0.120205078125,-0.042646484375],[0.1258447265625,-0.0362939453125],[0.1551611328125,-0.0068896484375],[0.167275390625,0.0066650390625],[0.1772265625,0.01794921875],[0.18587890625,0.02724609375],[0.192236328125,0.0353125],[0.1986669921875,0.043486328125],[0.204296875,0.0513818359375],[0.2092919921875,0.0591455078125],[0.2143798828125,0.0670751953125],[0.2189013671875,0.0750048828125],[0.2213427734375,0.0804345703125],[0.22775390625,0.0943212890625],[0.23119140625,0.1041064453125],[0.235361328125,0.11482421875],[0.2387548828125,0.123212890625],[0.241845703125,0.1327734375],[0.2439453125,0.140224609375],[0.2449658203125,0.146923828125],[0.2449658203125,0.156708984375],[0.2449658203125,0.1675537109375],[0.2449658203125,0.1809521484375],[0.2449658203125,0.1902880859375],[0.2438671875,0.1985400390625],[0.2423828125,0.204443359375],[0.239755859375,0.2101513671875],[0.23818359375,0.2125048828125],[0.2361865234375,0.214501953125],[0.234755859375,0.215576171875],[0.2337158203125,0.2159033203125],[0.2322802734375,0.2162646484375],[0.231240234375,0.2162646484375],[0.2302001953125,0.2162646484375],[0.2295458984375,0.2162646484375],[0.22923828125,0.2162646484375],[0.22923828125,0.2162646484375],[0.2289404296875,0.2159716796875],[0.2289404296875,0.2159716796875],[0.2286376953125,0.2159716796875],[0.2280078125,0.2159716796875],[0.2273583984375,0.2159716796875],[0.2267041015625,0.2159716796875],[0.2260546875,0.2159716796875],[0.22501953125,0.2159716796875],[0.223984375,0.2159716796875],[0.222548828125,0.2166943359375],[0.22111328125,0.2174169921875],[0.2196923828125,0.2184814453125],[0.2177978515625,0.21923828125],[0.2151904296875,0.2207080078125],[0.2133056640625,0.2218505859375],[0.2114208984375,0.2226025390625],[0.2090673828125,0.2237841796875],[0.2067236328125,0.2245703125],[0.2043017578125,0.2253564453125],[0.2019482421875,0.225751953125],[0.19908203125,0.2261474609375],[0.1962255859375,0.2265673828125],[0.1933740234375,0.2265673828125],[0.19048828125,0.2265673828125],[0.185400390625,0.2265673828125],[0.1825244140625,0.2265673828125],[0.1796533203125,0.2265673828125],[0.1767724609375,0.2265673828125],[0.17388671875,0.2265673828125],[0.171533203125,0.2265673828125],[0.1691845703125,0.2265673828125],[0.167294921875,0.2262109375]]]",1,[89],,,,,,,,,,,,,,driveway4.jpg,space,2.53267,0,5,5,37,1,dining_car.jpg,dinosaur4.jpg,driveway7.jpg,citystreet9.jpg,,
Image_List_2,,,,,,,,,,,,,,,,44607,2020-11-24_13h00.00.763,analogCatScenes,2020.1.3,MacIntel,60,"[1280,800]","[[[0.0034619140625,-0.1895703125],[0.0034619140625,-0.1895703125],[0.0034619140625,-0.1895703125],[0.0034619140625,-0.1895703125],[0.0034619140625,-0.1895703125],[0.0034619140625,-0.1895703125],[0.0034619140625,-0.1895703125],[0.0074365234375,-0.1852978515625],[0.0262548828125,-0.1673193359375],[0.06005859375,-0.1376611328125],[0.1021533203125,-0.0989599609375],[0.132666015625,-0.0684375],[0.170498046875,-0.03275390625],[0.2012060546875,-0.0010498046875],[0.225029296875,0.0246044921875],[0.2402587890625,0.03857421875],[0.25654296875,0.054091796875],[0.268681640625,0.0648291015625],[0.28134765625,0.0770458984375],[0.287861328125,0.083037109375],[0.2917919921875,0.0869775390625],[0.296064453125,0.0903125],[0.298046875,0.0923046875],[0.2995361328125,0.0930224609375],[0.3001806640625,0.093349609375],[0.3008203125,0.093671875],[0.3008203125,0.0939990234375],[0.3008203125,0.09462890625],[0.3008203125,0.0965234375],[0.3008203125,0.1012109375]]]",1,[30],,,,,,,,,,,,,,hardwarestore1.jpg,space,2.203005,0,6,6,52,1,gasstation7.jpg,frontFoyer6.jpg,highway.jpg,forestpath2.jpg,,
Image_List_2,,,,,,,,,,,,,,,,44607,2020-11-24_13h00.00.763,analogCatScenes,2020.1.3,MacIntel,60,"[1280,800]","[[[0.0051513671875,-0.2000537109375],[0.0051513671875,-0.2000537109375],[0.0051513671875,-0.2000537109375],[0.0051513671875,-0.2000537109375],[0.0051513671875,-0.2000537109375],[0.0051513671875,-0.2000537109375],[0.0051513671875,-0.2000537109375],[0.0051513671875,-0.2000537109375],[0.0051513671875,-0.2000537109375],[0.0051513671875,-0.2000537109375],[0.0051513671875,-0.2000537109375],[0.0051513671875,-0.2000537109375],[0.0051513671875,-0.2000537109375],[0.0051513671875,-0.2000537109375],[0.0051513671875,-0.2000537109375],[0.004140625,-0.2000537109375],[0.0007568359375,-0.1996240234375],[-0.0059423828125,-0.1965380859375],[-0.0221875,-0.187353515625],[-0.036796875,-0.1789892578125],[-0.0586865234375,-0.166298828125],[-0.0869775390625,-0.149951171875],[-0.1080517578125,-0.135361328125],[-0.1241015625,-0.1224755859375],[-0.142294921875,-0.108251953125],[-0.1576953125,-0.0957763671875],[-0.1698779296875,-0.084951171875],[-0.1800537109375,-0.076044921875],[-0.191298828125,-0.06166015625],[-0.1959228515625,-0.052880859375],[-0.1990087890625,-0.0464990234375],[-0.2017919921875,-0.038974609375],[-0.2040087890625,-0.0300732421875],[-0.2040087890625,-0.0253857421875],[-0.2040087890625,-0.0194873046875],[-0.2040087890625,-0.0149365234375],[-0.201884765625,-0.0094384765625],[-0.198525390625,-0.0046484375],[-0.1925390625,0.0024365234375],[-0.184697265625,0.0109228515625],[-0.1752734375,0.0203564453125],[-0.158623046875,0.0363330078125],[-0.14845703125,0.0452392578125],[-0.139306640625,0.0537646484375],[-0.1340673828125,0.0585498046875],[-0.126923828125,0.0640380859375],[-0.1209521484375,0.06896484375],[-0.1160302734375,0.07291015625],[-0.111904296875,0.0761328125],[-0.109345703125,0.078701171875],[-0.1072021484375,0.08169921875],[-0.1060302734375,0.084052734375],[-0.105224609375,0.0886083984375],[-0.105224609375,0.0926025390625],[-0.105224609375,0.098486328125],[-0.105224609375,0.104443359375],[-0.1057470703125,0.1117919921875],[-0.109501953125,0.1187353515625],[-0.1135107421875,0.1237255859375],[-0.1187548828125,0.1289697265625],[-0.1225927734375,0.1333056640625],[-0.1261572265625,0.13595703125],[-0.129287109375,0.138623046875],[-0.1316064453125,0.1401708984375],[-0.1335009765625,0.1412841796875],[-0.1365625,0.1420703125],[-0.1389013671875,0.1420703125],[-0.1412451171875,0.1420703125],[-0.1431396484375,0.1420703125],[-0.1454833984375,0.1420703125],[-0.1473681640625,0.1420703125],[-0.1492626953125,0.1420703125],[-0.15115234375,0.1420703125],[-0.1521826171875,0.1420703125],[-0.1532275390625,0.1420703125],[-0.1542724609375,0.1420703125],[-0.1553076171875,0.1420703125],[-0.155634765625,0.1420703125],[-0.1565966796875,0.1420703125],[-0.156923828125,0.1420703125],[-0.1572314453125,0.1420703125],[-0.1572314453125,0.1423779296875],[-0.1572314453125,0.1423779296875],[-0.1572314453125,0.14267578125],[-0.1572314453125,0.14267578125],[-0.1572314453125,0.14267578125]]]",1,[86],,,,,,,,,,,,,,minigolf.jpg,space,3.615665,0,7,7,62,1,hotellobby2.jpg,horsebarn8.jpg,lab3.jpg,hayfield7.jpg,,
Image_List_2,,,,,,,,,,,,,,,,44607,2020-11-24_13h00.00.763,analogCatScenes,2020.1.3,MacIntel,60,"[1280,800]","[[[0.0011669921875,-0.198115234375],[0.0011669921875,-0.198115234375],[0.0011669921875,-0.198115234375],[0.0011669921875,-0.198115234375],[0.0011669921875,-0.198115234375],[0.0011669921875,-0.198115234375],[0.0011669921875,-0.198115234375],[0.0011669921875,-0.198115234375],[0.0011669921875,-0.198115234375],[0.0011669921875,-0.198115234375],[0.0011669921875,-0.198115234375],[0.0011669921875,-0.198115234375],[0.0011669921875,-0.198115234375],[0.0011669921875,-0.198115234375],[0.0011669921875,-0.198115234375],[0.0011669921875,-0.198115234375],[0.0011669921875,-0.198115234375],[0.0011669921875,-0.198115234375],[0.0011669921875,-0.198115234375],[0.0011669921875,-0.198115234375],[0.0011669921875,-0.198115234375],[0.0011669921875,-0.198115234375],[0.0011669921875,-0.198115234375],[0.0011669921875,-0.198115234375],[0.0011669921875,-0.198115234375],[0.0052978515625,-0.1966259765625],[0.010576171875,-0.19375],[0.01951171875,-0.1877490234375],[0.0327783203125,-0.178095703125],[0.0472705078125,-0.1665234375],[0.0620263671875,-0.153232421875],[0.0815869140625,-0.1350439453125],[0.0942822265625,-0.123046875],[0.1080322265625,-0.110029296875],[0.1203515625,-0.0977001953125],[0.132314453125,-0.0850244140625],[0.1412841796875,-0.0740966796875],[0.146259765625,-0.0680517578125],[0.1503857421875,-0.061904296875],[0.153046875,-0.05876953125],[0.153759765625,-0.058408203125],[0.153759765625,-0.058408203125],[0.153759765625,-0.058408203125],[0.153759765625,-0.058408203125],[0.153759765625,-0.058408203125],[0.153759765625,-0.058408203125],[0.153759765625,-0.058408203125],[0.153759765625,-0.058408203125],[0.153759765625,-0.058408203125],[0.153759765625,-0.058408203125],[0.153759765625,-0.058408203125],[0.153759765625,-0.058408203125],[0.153759765625,-0.058408203125],[0.153759765625,-0.058408203125],[0.153759765625,-0.058408203125],[0.153759765625,-0.058408203125],[0.153759765625,-0.058408203125],[0.153759765625,-0.058408203125],[0.153759765625,-0.058408203125],[0.153759765625,-0.058408203125],[0.153759765625,-0.058408203125],[0.153759765625,-0.058408203125],[0.153759765625,-0.058408203125],[0.153759765625,-0.058408203125],[0.153759765625,-0.058408203125],[0.153759765625,-0.058408203125],[0.153759765625,-0.058408203125],[0.1553857421875,-0.054365234375],[0.1576171875,-0.0503466796875],[0.1605322265625,-0.044501953125],[0.1650537109375,-0.036005859375],[0.169716796875,-0.026630859375],[0.1743798828125,-0.016689453125],[0.179658203125,-0.006748046875],[0.18599609375,0.004677734375],[0.19287109375,0.019150390625],[0.199814453125,0.035126953125],[0.2079052734375,0.05279296875],[0.21375,0.0718115234375],[0.2194873046875,0.0991845703125],[0.22015625,0.1065478515625],[0.22015625,0.1228466796875],[0.21958984375,0.1358349609375],[0.2179248046875,0.1446630859375],[0.2179248046875,0.153720703125],[0.2179248046875,0.1625244140625],[0.2179248046875,0.169365234375],[0.2203369140625,0.1751904296875],[0.2203369140625,0.1751904296875],[0.2203369140625,0.1751904296875],[0.2203369140625,0.1751904296875],[0.2203369140625,0.1751904296875],[0.2203369140625,0.1751904296875],[0.2203369140625,0.1751904296875],[0.2203369140625,0.1751904296875],[0.2203369140625,0.1751904296875],[0.2203369140625,0.1751904296875],[0.2203369140625,0.1751904296875],[0.2203369140625,0.1751904296875],[0.2203369140625,0.1751904296875],[0.2203369140625,0.1751904296875],[0.2203369140625,0.1751904296875],[0.2203369140625,0.1751904296875],[0.2203369140625,0.1751904296875],[0.2203369140625,0.1751904296875],[0.2203369140625,0.1751904296875],[0.2200439453125,0.1751904296875],[0.214892578125,0.176611328125],[0.2073876953125,0.1803662109375],[0.1949755859375,0.1868896484375],[0.1808544921875,0.1943017578125],[0.1664111328125,0.2025439453125],[0.1477099609375,0.21380859375],[0.1355322265625,0.222490234375],[0.118203125,0.23453125],[0.10322265625,0.2459375],[0.0896728515625,0.254775390625],[0.0780029296875,0.2614990234375],[0.0750244140625,0.26298828125],[0.068603515625,0.26666015625],[0.0657470703125,0.267900390625],[0.0638525390625,0.269404296875],[0.0623779296875,0.2701171875],[0.0617236328125,0.270771484375],[0.061396484375,0.270771484375],[0.0610888671875,0.270771484375],[0.0610888671875,0.270771484375],[0.0610888671875,0.270771484375],[0.0610888671875,0.271064453125],[0.0610888671875,0.271376953125]],[[-0.0012744140625,-0.1967578125],[-0.0012744140625,-0.1967578125],[-0.0012744140625,-0.1967578125],[-0.0012744140625,-0.1967578125],[-0.0012744140625,-0.1967578125],[-0.0012744140625,-0.1967578125],[-0.0012744140625,-0.1967578125],[-0.0012744140625,-0.1967578125],[-0.0012744140625,-0.1967578125],[-0.0012744140625,-0.1967578125],[-0.0012744140625,-0.1967578125],[-0.0012744140625,-0.18896484375],[0.002216796875,-0.1797314453125],[0.007236328125,-0.16716796875],[0.016865234375,-0.145439453125],[0.03123046875,-0.1126611328125],[0.0435546875,-0.084404296875],[0.056123046875,-0.0547412109375],[0.0631787109375,-0.0337841796875],[0.0695166015625,-0.0107666015625],[0.0733203125,0.0097216796875],[0.0745166015625,0.0214794921875],[0.0745166015625,0.0322412109375],[0.0745166015625,0.0381689453125],[0.0745166015625,0.04158203125],[0.0745166015625,0.04158203125],[0.0745166015625,0.04158203125],[0.0745166015625,0.04158203125],[0.0745166015625,0.04158203125],[0.0745166015625,0.04158203125],[0.0745166015625,0.04158203125],[0.0745166015625,0.04158203125],[0.0745166015625,0.04158203125],[0.0745166015625,0.04158203125],[0.0745166015625,0.04158203125],[0.0745166015625,0.04158203125],[0.0745166015625,0.04158203125],[0.0745166015625,0.04158203125],[0.0745166015625,0.04158203125],[0.0745166015625,0.04158203125],[0.0745166015625,0.04158203125],[0.0745166015625,0.043349609375],[0.0745166015625,0.05142578125],[0.0751123046875,0.061357421875],[0.0751123046875,0.071298828125],[0.075712890625,0.082119140625],[0.075712890625,0.092939453125],[0.075712890625,0.1057275390625],[0.0734033203125,0.128662109375],[0.0692138671875,0.1457177734375],[0.0633544921875,0.16474609375],[0.0573681640625,0.178720703125],[0.0495166015625,0.1957080078125],[0.0435009765625,0.2053271484375],[0.0368212890625,0.215625],[0.0313623046875,0.2216845703125],[0.026171875,0.22791015625],[0.0223388671875,0.232236328125],[0.0186376953125,0.2354736328125],[0.01544921875,0.238642578125],[0.0121923828125,0.2423974609375],[0.0090380859375,0.246015625],[0.00583984375,0.2492236328125],[0.003232421875,0.252294921875],[-0.0011865234375,0.25625],[-0.0024658203125,0.257529296875],[-0.0061669921875,0.26083984375],[-0.007587890625,0.2622607421875],[-0.0086279296875,0.26330078125],[-0.008955078125,0.26330078125],[-0.008955078125,0.26330078125]],[[-0.006064453125,-0.191865234375],[-0.006064453125,-0.191865234375],[-0.006064453125,-0.191865234375],[-0.006064453125,-0.191865234375],[-0.006064453125,-0.191865234375],[-0.006064453125,-0.191865234375],[-0.006064453125,-0.191865234375],[-0.006064453125,-0.191865234375],[-0.006064453125,-0.191865234375],[-0.006064453125,-0.191865234375],[-0.006064453125,-0.191865234375],[-0.006064453125,-0.191865234375],[-0.006064453125,-0.191865234375],[-0.006064453125,-0.191865234375],[-0.006064453125,-0.190986328125],[-0.006064453125,-0.18560546875],[-0.006064453125,-0.1756201171875],[-0.006064453125,-0.15541015625],[-0.0042919921875,-0.1183642578125],[-0.0025830078125,-0.089208984375],[-0.0016943359375,-0.056708984375],[0.000166015625,-0.0221484375],[0.0011083984375,0.0114501953125],[0.0011083984375,0.033447265625],[0.00033203125,0.0578369140625],[-0.0049267578125,0.0789404296875],[-0.010634765625,0.096796875],[-0.0178955078125,0.11857421875],[-0.02373046875,0.1375830078125],[-0.0277978515625,0.147470703125],[-0.031171875,0.156533203125],[-0.0348828125,0.163486328125],[-0.036455078125,0.16583984375],[-0.038505859375,0.168271484375],[-0.040009765625,0.170166015625],[-0.042724609375,0.1737890625],[-0.0454296875,0.1773486328125],[-0.048154296875,0.1814404296875],[-0.050927734375,0.18513671875],[-0.05255859375,0.187998046875],[-0.054599609375,0.1904296875],[-0.0558056640625,0.19330078125],[-0.0582861328125,0.1978662109375],[-0.059072265625,0.19904296875],[-0.06091796875,0.2016259765625],[-0.062783203125,0.2031103515625],[-0.0638623046875,0.204189453125],[-0.0652978515625,0.204912109375],[-0.06671875,0.205625],[-0.0673681640625,0.2062744140625],[-0.068017578125,0.206923828125]]]",3,"[130,71,51]",,,,,,,,,,,,,,track5.jpg,space,10.230825,0,8,8,89,1,ruralroad7.jpg,ShowJumping7.jpg,staircase7.jpg,sculpturegarden3.jpg,,
Image_List_2,,,,,,,,,,,,,,,,44607,2020-11-24_13h00.00.763,analogCatScenes,2020.1.3,MacIntel,60,"[1280,800]","[[[-0.0004248046875,-0.19474609375],[-0.0004248046875,-0.19474609375],[-0.0004248046875,-0.19474609375],[-0.0004248046875,-0.19474609375],[-0.0004248046875,-0.19474609375],[-0.0004248046875,-0.19474609375],[-0.0004248046875,-0.19474609375],[-0.0004248046875,-0.19474609375],[-0.0004248046875,-0.19474609375],[-0.0004248046875,-0.19474609375],[-0.0004248046875,-0.19474609375],[-0.0004248046875,-0.19474609375],[-0.0004248046875,-0.19474609375],[-0.0004248046875,-0.19474609375],[-0.0004248046875,-0.19474609375],[-0.0004248046875,-0.19474609375],[-0.0004248046875,-0.19474609375],[-0.0004248046875,-0.1937353515625],[-0.0024951171875,-0.1912744140625],[-0.004609375,-0.188330078125],[-0.0072802734375,-0.1851953125],[-0.0105126953125,-0.1814990234375],[-0.013251953125,-0.1778466796875],[-0.0177197265625,-0.1728564453125],[-0.0215283203125,-0.1685546875],[-0.0262841796875,-0.162216796875],[-0.03189453125,-0.1543603515625],[-0.0414599609375,-0.141572265625],[-0.0449755859375,-0.1365380859375],[-0.04890625,-0.1316845703125],[-0.052607421875,-0.1279833984375],[-0.055322265625,-0.1243603515625],[-0.057890625,-0.1217919921875],[-0.0604541015625,-0.119228515625],[-0.062880859375,-0.1171923828125],[-0.0653369140625,-0.115126953125],[-0.0667626953125,-0.113701171875],[-0.0686474609375,-0.11220703125],[-0.0700732421875,-0.11078125],[-0.072021484375,-0.108828125],[-0.075341796875,-0.1051220703125],[-0.07734375,-0.1031201171875],[-0.07986328125,-0.1006005859375],[-0.08232421875,-0.0985302734375],[-0.0838037109375,-0.096669921875],[-0.085693359375,-0.0951708984375],[-0.0867626953125,-0.09375],[-0.0878369140625,-0.0923193359375],[-0.08890625,-0.0912451171875],[-0.089228515625,-0.090595703125],[-0.08955078125,-0.090595703125],[-0.08955078125,-0.090595703125],[-0.08955078125,-0.090595703125]],[[-0.004482421875,-0.198935546875],[-0.004482421875,-0.198935546875],[-0.004775390625,-0.198935546875],[-0.0054248046875,-0.198935546875],[-0.0060791015625,-0.198935546875],[-0.0071142578125,-0.198935546875],[-0.0086083984375,-0.198935546875],[-0.015498046875,-0.198935546875],[-0.02462890625,-0.198935546875],[-0.0380224609375,-0.198935546875],[-0.0538671875,-0.200341796875],[-0.0799853515625,-0.20291015625],[-0.1008447265625,-0.20619140625],[-0.117705078125,-0.20771484375],[-0.141142578125,-0.2121142578125],[-0.16130859375,-0.215849609375],[-0.17919921875,-0.218701171875],[-0.193544921875,-0.2206689453125],[-0.2072802734375,-0.22197265625],[-0.215263671875,-0.223017578125],[-0.224296875,-0.2235791015625],[-0.2338134765625,-0.2235791015625],[-0.2384228515625,-0.2235791015625],[-0.2412890625,-0.2223388671875],[-0.2427197265625,-0.220908203125],[-0.243369140625,-0.2202587890625],[-0.243369140625,-0.219931640625],[-0.243369140625,-0.219931640625],[-0.2427685546875,-0.219931640625],[-0.2427685546875,-0.219931640625]]]",2,"[53,30]",,,,,,,,,,,,,,stripmall.jpg,space,3.948865,0,9,9,86,1,restaurant14.jpg,ruralroad3.jpg,sandDunes_desert_outdoor8.jpg,rooftop4.jpg,,
Image_List_2,,,,,,,,,,,,,,,,44607,2020-11-24_13h00.00.763,analogCatScenes,2020.1.3,MacIntel,60,"[1280,800]","[[[-0.0051953125,-0.1955322265625],[-0.0051953125,-0.1955322265625],[-0.0051953125,-0.1955322265625],[-0.0051953125,-0.1955322265625],[-0.0051953125,-0.1955322265625],[-0.0051953125,-0.1955322265625],[-0.0051953125,-0.1955322265625],[-0.0051953125,-0.1955322265625],[-0.0051953125,-0.1955322265625],[-0.0051953125,-0.1955322265625],[-0.0051953125,-0.1955322265625],[-0.0051953125,-0.1955322265625],[-0.0051953125,-0.1955322265625],[-0.0051953125,-0.1955322265625],[-0.00755859375,-0.1941943359375],[-0.0167822265625,-0.1868408203125],[-0.0403076171875,-0.16841796875],[-0.072197265625,-0.1365283203125],[-0.11939453125,-0.0893310546875],[-0.171494140625,-0.035927734375],[-0.2058837890625,-0.0027392578125],[-0.244169921875,0.036630859375],[-0.2769384765625,0.0684326171875],[-0.2869775390625,0.07763671875],[-0.3068115234375,0.0960546875],[-0.3136279296875,0.1011669921875],[-0.320068359375,0.1059814453125],[-0.32431640625,0.1092919921875],[-0.3268701171875,0.111845703125],[-0.32880859375,0.1137890625],[-0.330234375,0.11486328125],[-0.3309521484375,0.1162939453125],[-0.3323828125,0.1173681640625],[-0.333779296875,0.118759765625],[-0.334453125,0.1197802734375],[-0.334775390625,0.1204248046875],[-0.334775390625,0.1207373046875],[-0.334775390625,0.1207373046875],[-0.334775390625,0.1207373046875]]]",1,[39],,,,,,,,,,,,,,cafeteria6.jpg,space,2.027845,0,10,10,16,1,basement.jpg,breakroom2.jpg,campusquad4.jpg,barbershop2.jpg,,
Image_List_2,,,,,,,,,,,,,,,,44607,2020-11-24_13h00.00.763,analogCatScenes,2020.1.3,MacIntel,60,"[1280,800]","[[[-0.00484375,-0.19408203125],[-0.00484375,-0.19408203125],[-0.00484375,-0.19408203125],[-0.00484375,-0.19408203125],[-0.00484375,-0.19408203125],[-0.00484375,-0.19408203125],[-0.00484375,-0.19408203125],[-0.00484375,-0.19408203125],[-0.00484375,-0.19408203125],[-0.00484375,-0.19408203125],[-0.00484375,-0.19408203125],[-0.00484375,-0.1775244140625],[-0.00484375,-0.144267578125],[-0.0038232421875,-0.1030908203125],[0.0033544921875,-0.0577734375],[0.0139111328125,-0.011279296875],[0.028701171875,0.033173828125],[0.042431640625,0.07861328125],[0.050947265625,0.1036669921875],[0.058681640625,0.1319921875],[0.0613330078125,0.1449365234375],[0.0625146484375,0.155703125],[0.063037109375,0.16162109375],[0.063037109375,0.1650341796875],[0.063037109375,0.16720703125],[0.063037109375,0.168251953125],[0.063037109375,0.1689013671875],[0.0627099609375,0.16955078125],[0.0623876953125,0.1698779296875],[0.062060546875,0.1698779296875],[0.062060546875,0.1698779296875]]]",1,[31],,,,,,,,,,,,,,elevatorOutside4.jpg,space,2.015735,0,11,11,38,1,dining_car2.jpg,dock1.jpg,driveway8.jpg,classroom1.jpg,,
Image_List_2,,,,,,,,,,,,,,,,44607,2020-11-24_13h00.00.763,analogCatScenes,2020.1.3,MacIntel,60,"[1280,800]","[[[-0.0015869140625,-0.1968017578125],[-0.0015869140625,-0.1968017578125],[-0.0015869140625,-0.1968017578125],[-0.0015869140625,-0.1968017578125],[-0.0015869140625,-0.1968017578125],[-0.0015869140625,-0.1968017578125],[-0.0015869140625,-0.1968017578125],[-0.0015869140625,-0.1968017578125],[-0.0015869140625,-0.1968017578125],[-0.0015869140625,-0.1968017578125],[-0.0015869140625,-0.1968017578125],[-0.0015869140625,-0.195634765625],[-0.0054736328125,-0.1818994140625],[-0.019072265625,-0.1465283203125],[-0.03677734375,-0.101591796875],[-0.0593115234375,-0.041162109375],[-0.0846435546875,0.0284912109375],[-0.1059130859375,0.0906298828125],[-0.120849609375,0.134853515625],[-0.1360205078125,0.195673828125],[-0.143310546875,0.2285205078125],[-0.1460546875,0.2432861328125],[-0.147998046875,0.256962890625],[-0.1490966796875,0.2657568359375],[-0.1506591796875,0.27244140625],[-0.1511083984375,0.2769775390625],[-0.15150390625,0.2788671875],[-0.15150390625,0.27990234375],[-0.15150390625,0.2805517578125],[-0.15150390625,0.2808642578125],[-0.15150390625,0.2808642578125],[-0.15150390625,0.281162109375],[-0.15150390625,0.281162109375],[-0.15150390625,0.281162109375],[-0.15150390625,0.281162109375],[-0.15150390625,0.281162109375]]]",1,[36],,,,,,,,,,,,,,sidewalk2.jpg,space,1.71422,0,12,12,84,1,readingroom5.jpg,restaurant13.jpg,sandDunes_desert_outdoor.jpg,rooftop2.jpg,,
Image_List_2,,,,,,,,,,,,,,,,44607,2020-11-24_13h00.00.763,analogCatScenes,2020.1.3,MacIntel,60,"[1280,800]","[[[-0.0029931640625,-0.2030419921875],[-0.0029931640625,-0.2030419921875],[-0.0029931640625,-0.2030419921875],[-0.0029931640625,-0.2030419921875],[-0.0029931640625,-0.2030419921875],[-0.0029931640625,-0.2030419921875],[-0.0029931640625,-0.2030419921875],[-0.0029931640625,-0.2030419921875],[0.0026806640625,-0.2030419921875],[0.028779296875,-0.1961865234375],[0.098818359375,-0.159130859375],[0.2383642578125,-0.082587890625],[0.3070556640625,-0.0439990234375]],[[0.007607421875,-0.198095703125],[0.007607421875,-0.198095703125],[0.007607421875,-0.198095703125],[0.007607421875,-0.198095703125],[0.007607421875,-0.198095703125],[0.007607421875,-0.198095703125],[0.007607421875,-0.198095703125],[0.007607421875,-0.198095703125],[0.006435546875,-0.196630859375],[-0.0079150390625,-0.1804541015625],[-0.0486474609375,-0.131337890625],[-0.1096240234375,-0.057080078125],[-0.1425,-0.0216845703125],[-0.1633447265625,-0.00083984375],[-0.2076904296875,0.03984375],[-0.2216259765625,0.0515576171875],[-0.2383837890625,0.0644775390625],[-0.253583984375,0.075341796875],[-0.266298828125,0.0846875],[-0.2746142578125,0.0907568359375],[-0.281767578125,0.0962451171875],[-0.2858837890625,0.0989892578125],[-0.2869287109375,0.099677734375],[-0.287255859375,0.099677734375],[-0.286962890625,0.099677734375]]]",2,"[13,25]",,,,,,,,,,,,,,bowlingalley3.jpg,space,5.596635,0,13,13,13,1,balconyIN2.jpg,beach2.jpg,boardwalk4.jpg,backyard6.jpg,,
Image_List_2,,,,,,,,,,,,,,,,44607,2020-11-24_13h00.00.763,analogCatScenes,2020.1.3,MacIntel,60,"[1280,800]","[[[-0.00572265625,-0.2075439453125],[-0.00572265625,-0.2075439453125],[-0.00572265625,-0.2075439453125],[-0.00572265625,-0.2075439453125],[-0.00572265625,-0.2075439453125],[-0.00572265625,-0.2075439453125],[-0.00572265625,-0.2075439453125],[-0.00671875,-0.2075439453125],[-0.012705078125,-0.2045361328125],[-0.0418310546875,-0.18044921875],[-0.09982421875,-0.128916015625],[-0.1754345703125,-0.060673828125],[-0.2264501953125,-0.0121240234375],[-0.26302734375,0.0232177734375],[-0.290244140625,0.0498681640625],[-0.3127587890625,0.0733349609375],[-0.325068359375,0.0877978515625],[-0.331572265625,0.0933837890625],[-0.337587890625,0.099921875],[-0.3426708984375,0.1045068359375],[-0.3463720703125,0.1072802734375],[-0.3487353515625,0.11],[-0.349423828125,0.111044921875],[-0.349423828125,0.11169921875],[-0.349423828125,0.1120263671875]]]",1,[25],,,,,,,,,,,,,,wineVineyard2.jpg,space,1.913625,0,14,14,97,1,warehouseoutside4.jpg,waitingroom4.jpg,winebarrel3.jpg,warehouseoutside3.jpg,,
Image_List_2,,,,,,,,,,,,,,,,44607,2020-11-24_13h00.00.763,analogCatScenes,2020.1.3,MacIntel,60,"[1280,800]","[[[-0.00521484375,-0.200556640625],[-0.00521484375,-0.200556640625],[-0.00521484375,-0.200556640625],[-0.00521484375,-0.200556640625],[-0.00521484375,-0.200556640625],[-0.00521484375,-0.200556640625],[-0.00521484375,-0.200556640625],[-0.00521484375,-0.1956640625],[-0.00521484375,-0.1587451171875],[-0.00521484375,-0.115771484375],[-0.00521484375,-0.079794921875],[-0.00521484375,-0.0498779296875],[-0.00521484375,-0.0198583984375],[-0.00521484375,0.0019287109375],[-0.00521484375,0.0112646484375],[-0.00521484375,0.0196142578125],[-0.00521484375,0.02490234375],[-0.00564453125,0.027783203125],[-0.00564453125,0.029677734375],[-0.00564453125,0.03111328125],[-0.00564453125,0.0320947265625],[-0.00564453125,0.03240234375],[-0.00564453125,0.0327099609375],[-0.00564453125,0.033017578125],[-0.00564453125,0.033671875],[-0.00564453125,0.034326171875],[-0.00564453125,0.03498046875],[-0.00564453125,0.0390283203125],[-0.00564453125,0.0507958984375],[-0.002626953125,0.0710888671875],[0.0001904296875,0.0883056640625],[0.002373046875,0.1064013671875],[0.003076171875,0.121142578125],[0.003076171875,0.14021484375],[-0.0007421875,0.1529296875],[-0.004560546875,0.16564453125],[-0.006689453125,0.173154296875],[-0.009453125,0.18140625],[-0.010947265625,0.18736328125],[-0.0114111328125,0.191337890625],[-0.0114111328125,0.1942236328125],[-0.0114111328125,0.19572265625],[-0.0114111328125,0.196767578125],[-0.0114111328125,0.1970947265625],[-0.01173828125,0.1973974609375],[-0.01173828125,0.1973974609375],[-0.0130810546875,0.1980615234375]]]",1,[47],,,,,,,,,,,,,,cornfield4.jpg,space,1.993975,0,15,15,26,1,campusquad2.jpg,church4.jpg,churchInside3.jpg,botanicalGarden7.jpg,,
Image_List_2,,,,,,,,,,,,,,,,44607,2020-11-24_13h00.00.763,analogCatScenes,2020.1.3,MacIntel,60,"[1280,800]","[[[-0.0041455078125,-0.189267578125],[-0.0041455078125,-0.189267578125],[-0.0041455078125,-0.189267578125],[-0.0041455078125,-0.189267578125],[-0.0041455078125,-0.189267578125],[-0.0041455078125,-0.189267578125],[-0.00208984375,-0.189267578125],[0.0159130859375,-0.189267578125],[0.0719580078125,-0.1791064453125],[0.1623974609375,-0.1547314453125],[0.2804345703125,-0.1180078125]],[[-0.00626953125,-0.194189453125],[-0.00626953125,-0.194189453125],[-0.00626953125,-0.194189453125],[-0.00626953125,-0.194189453125],[-0.00626953125,-0.194189453125],[-0.00626953125,-0.1927197265625],[-0.00626953125,-0.1837548828125],[-0.00626953125,-0.1558935546875],[-0.00626953125,-0.105126953125],[-0.00626953125,-0.0406787109375],[-0.0039453125,0.0195361328125],[0.000595703125,0.0756591796875],[0.0025048828125,0.115244140625],[0.004560546875,0.1595263671875],[0.004560546875,0.1818798828125],[0.004560546875,0.1948779296875],[0.004560546875,0.2059765625],[0.004560546875,0.2121240234375],[0.004560546875,0.2135595703125],[0.0042333984375,0.2142138671875],[0.0031884765625,0.2152587890625],[0.001689453125,0.2171484375]]]",2,"[11,22]",,,,,,,,,,,,,,cafeteria5.jpg,space,2.98315,0,16,16,15,1,bambooforest4.jpg,bleachers8.jpg,cabinIndoors.jpg,bar8.jpg,,
Image_List_2,,,,,,,,,,,,,,,,44607,2020-11-24_13h00.00.763,analogCatScenes,2020.1.3,MacIntel,60,"[1280,800]","[[[-0.004921875,-0.2071533203125],[-0.004921875,-0.2071533203125],[-0.004921875,-0.2071533203125],[-0.004921875,-0.2071533203125],[-0.004921875,-0.2071533203125],[-0.004921875,-0.2071533203125],[-0.004921875,-0.2071533203125],[-0.0039404296875,-0.2030029296875],[0.0034619140625,-0.1895166015625],[0.0300537109375,-0.1535986328125],[0.078388671875,-0.0910498046875],[0.1187646484375,-0.0448681640625],[0.1435400390625,-0.0161767578125],[0.1903955078125,0.0331591796875],[0.221103515625,0.06591796875],[0.2450244140625,0.0887548828125],[0.2585400390625,0.1026123046875],[0.2743701171875,0.117705078125],[0.2831396484375,0.1261474609375],[0.2870703125,0.130087890625],[0.291650390625,0.13517578125],[0.294189453125,0.137724609375],[0.296171875,0.139365234375],[0.2968115234375,0.1396923828125],[0.2974560546875,0.1396923828125],[0.2974560546875,0.1396923828125],[0.2974560546875,0.1396923828125],[0.2974560546875,0.1396923828125],[0.296279296875,0.1407763671875]]]",1,[29],,,,,,,,,,,,,,alley2.jpg,space,1.744335,0,17,17,0,1,airplanecabin1.jpg,appleorchard4.jpg,airplanecabin5.jpg,airplanecabin3.jpg,,
Image_List_2,,,,,,,,,,,,,,,,44607,2020-11-24_13h00.00.763,analogCatScenes,2020.1.3,MacIntel,60,"[1280,800]","[[[-0.0024267578125,-0.2022265625],[-0.0024267578125,-0.2022265625],[-0.0024267578125,-0.2022265625],[-0.0024267578125,-0.2022265625],[-0.0024267578125,-0.2022265625],[-0.0024267578125,-0.2022265625],[0.002421875,-0.2022265625],[0.0294921875,-0.2022265625],[0.105126953125,-0.2022265625],[0.217236328125,-0.198974609375]]]",1,[10],,,,,,,,,,,,,,diningroom1.jpg,space,2.22723,0,18,18,33,1,deck1.jpg,courthouse2.jpg,diner10.jpg,cabinIndoors5.jpg,,
Image_List_2,,,,,,,,,,,,,,,,44607,2020-11-24_13h00.00.763,analogCatScenes,2020.1.3,MacIntel,60,"[1280,800]","[[[0.0048828125,-0.1962451171875],[0.0048828125,-0.1962451171875],[0.0048828125,-0.1962451171875],[0.0048828125,-0.1962451171875],[0.0048828125,-0.1962451171875],[0.0048828125,-0.1962451171875],[0.0048828125,-0.1962451171875],[0.0048828125,-0.1933544921875],[0.0048828125,-0.17875],[0.0048828125,-0.139970703125],[0.0048828125,-0.0877978515625],[0.0048828125,0.01138671875],[0.008505859375,0.0758349609375],[0.0108642578125,0.121220703125],[0.0142578125,0.1759619140625],[0.0153125,0.224326171875],[0.0179150390625,0.2508642578125],[0.019462890625,0.27525390625],[0.0201318359375,0.286279296875],[0.0212939453125,0.2963427734375],[0.0217822265625,0.30099609375],[0.0217822265625,0.3024755859375],[0.0217822265625,0.3031298828125],[0.0217822265625,0.3031298828125],[0.0204541015625,0.303486328125],[0.0185595703125,0.3038818359375]],[[0.0022021484375,-0.20708984375],[0.0022021484375,-0.20708984375],[0.0022021484375,-0.20708984375],[0.0022021484375,-0.20708984375],[0.0022021484375,-0.20708984375],[0.0022021484375,-0.20708984375],[0.0022021484375,-0.20708984375],[0.0022021484375,-0.20248046875],[0.012119140625,-0.178798828125],[0.0477001953125,-0.1139306640625],[0.1027392578125,-0.02783203125],[0.1544140625,0.044169921875],[0.21716796875,0.1323974609375],[0.2506787109375,0.18],[0.2742822265625,0.2134130859375],[0.2862646484375,0.23435546875],[0.2966943359375,0.2531591796875],[0.2989794921875,0.2567138671875],[0.2997216796875,0.25859375],[0.3003955078125,0.2596337890625],[0.3007177734375,0.260283203125],[0.3010400390625,0.2609375],[0.3013623046875,0.2612646484375],[0.3013623046875,0.261572265625],[0.3013623046875,0.2618798828125],[0.3013623046875,0.2618798828125],[0.3007568359375,0.2621826171875]],[[0.0086669921875,-0.1965087890625],[0.0086669921875,-0.1965087890625],[0.0086669921875,-0.1965087890625],[0.0086669921875,-0.1965087890625],[0.0086669921875,-0.1965087890625],[0.008076171875,-0.194443359375],[-0.003994140625,-0.1795654296875],[-0.03533203125,-0.1404541015625],[-0.0666259765625,-0.10154296875],[-0.1130517578125,-0.045078125],[-0.1549267578125,0.0078271484375],[-0.1809326171875,0.039169921875],[-0.2109814453125,0.0744482421875],[-0.2343359375,0.1015380859375],[-0.2538720703125,0.1227734375],[-0.2764013671875,0.1434033203125],[-0.2922900390625,0.1577783203125],[-0.3059130859375,0.1692138671875],[-0.31162109375,0.1739990234375],[-0.315556640625,0.1779345703125],[-0.316279296875,0.1794384765625],[-0.316279296875,0.179765625],[-0.316279296875,0.179765625],[-0.3152734375,0.179765625]]]",3,"[26,27,24]",,,,,,,,,,,,,,parkinglot.jpg,space,4.696625,0,19,19,68,1,liquorstore7.jpg,lightingstore4.jpg,lockerroom2.jpg,hospitalroom3.jpg,,
Image_List_2,,,,,,,,,,,,,,,,44607,2020-11-24_13h00.00.763,analogCatScenes,2020.1.3,MacIntel,60,"[1280,800]","[[[-0.00404296875,-0.1993408203125],[-0.00404296875,-0.1993408203125],[-0.00404296875,-0.1993408203125],[-0.00404296875,-0.1993408203125],[-0.00404296875,-0.1993408203125],[-0.00404296875,-0.1993408203125],[-0.0049169921875,-0.1993408203125],[-0.012626953125,-0.1993408203125],[-0.02650390625,-0.1993408203125],[-0.0586279296875,-0.1993408203125],[-0.1032373046875,-0.1993408203125],[-0.14884765625,-0.1993408203125],[-0.2011083984375,-0.1993408203125],[-0.23955078125,-0.1993408203125],[-0.2962939453125,-0.2001123046875],[-0.33783203125,-0.2040625]]]",1,[16],,,,,,,,,,,,,,diningroom5.jpg,space,1.76144,0,20,20,34,1,deck4.jpg,courthouse4.jpg,diner11.jpg,campusquad1.jpg,,
Image_List_2,,,,,,,,,,,,,,,,44607,2020-11-24_13h00.00.763,analogCatScenes,2020.1.3,MacIntel,60,"[1280,800]","[[[-0.00138671875,-0.20240234375],[-0.00138671875,-0.20240234375],[-0.00138671875,-0.20240234375],[-0.00138671875,-0.20240234375],[-0.00138671875,-0.20240234375],[-0.00138671875,-0.20240234375],[-0.0022802734375,-0.20240234375],[-0.0144677734375,-0.2009912109375],[-0.061533203125,-0.1790966796875],[-0.1368310546875,-0.144091796875],[-0.2053515625,-0.1143408203125],[-0.2916796875,-0.07615234375],[-0.3316455078125,-0.0593505859375],[-0.3448193359375,-0.0534130859375]],[[0.002431640625,-0.2005322265625],[0.002431640625,-0.2005322265625],[0.002431640625,-0.2005322265625],[0.002431640625,-0.2005322265625],[0.002431640625,-0.2005322265625],[0.002431640625,-0.2005322265625],[0.01734375,-0.1923828125],[0.0508349609375,-0.1751220703125],[0.134287109375,-0.1327197265625],[0.224443359375,-0.095498046875],[0.285498046875,-0.0716650390625],[0.33779296875,-0.0500537109375]]]",2,"[14,12]",,,,,,,,,,,,,,bar2.jpg,space,3.0484,0,21,21,9,1,auto_showroom3.jpg,ballroom2.jpg,basement5.jpg,arcade2.jpg,,
Image_List_2,,,,,,,,,,,,,,,,44607,2020-11-24_13h00.00.763,analogCatScenes,2020.1.3,MacIntel,60,"[1280,800]","[[[0.0029296875,-0.1946044921875],[0.0029296875,-0.1946044921875],[0.0029296875,-0.1946044921875],[0.0029296875,-0.1946044921875],[0.0029296875,-0.1943115234375],[0.0029296875,-0.1884228515625],[0.0029296875,-0.1748095703125],[0.0029296875,-0.136806640625],[0.0029296875,-0.0594873046875],[0.0029296875,0.028876953125],[0.0029296875,0.1702978515625],[0.0029296875,0.21802734375],[0.0029296875,0.27529296875],[0.0029296875,0.313232421875],[0.0029296875,0.325419921875],[0.0029296875,0.333671875],[0.0029296875,0.3365576171875],[0.0029296875,0.3380615234375],[0.0026025390625,0.3387158203125],[0.001884765625,0.3390771484375],[0.001884765625,0.3393798828125],[0.001884765625,0.33970703125],[0.00125,0.3406640625],[-0.00017578125,0.3410205078125],[-0.001611328125,0.3417431640625]]]",1,[25],,,,,,,,,,,,,,frontLawn5.jpg,space,2.09862,0,22,22,46,1,flowershop.jpg,farmersmarket4.jpg,fountain4.jpg,dormroom6.jpg,,
Image_List_2,,,,,,,,,,,,,,,,44607,2020-11-24_13h00.00.763,analogCatScenes,2020.1.3,MacIntel,60,"[1280,800]","[[[0.001533203125,-0.20423828125],[0.001533203125,-0.20423828125],[0.001533203125,-0.20423828125],[0.001533203125,-0.20423828125],[0.001533203125,-0.20423828125],[0.001533203125,-0.20423828125],[0.001533203125,-0.20423828125],[-0.010634765625,-0.1912744140625],[-0.034873046875,-0.1670361328125],[-0.0990576171875,-0.104130859375],[-0.146826171875,-0.0563623046875],[-0.2133837890625,0.0074658203125],[-0.2539306640625,0.0466357421875],[-0.2770068359375,0.0697119140625],[-0.290234375,0.083818359375],[-0.299208984375,0.0933935546875],[-0.302578125,0.0977197265625],[-0.3040087890625,0.0987939453125],[-0.3043359375,0.0994482421875],[-0.3046435546875,0.099755859375],[-0.3049658203125,0.1000830078125],[-0.3056201171875,0.1007373046875],[-0.3062744140625,0.1013916015625],[-0.3066015625,0.10171875],[-0.3066015625,0.1020458984375],[-0.3066015625,0.1020458984375]],[[0.005556640625,-0.19138671875],[0.005556640625,-0.19138671875],[0.005556640625,-0.19138671875],[0.005556640625,-0.19138671875],[0.005556640625,-0.19138671875],[0.005556640625,-0.19138671875],[0.005556640625,-0.19138671875],[0.005556640625,-0.19138671875],[0.005556640625,-0.19138671875],[0.008515625,-0.1805810546875],[0.0296435546875,-0.1500537109375],[0.127822265625,-0.039033203125],[0.175693359375,0.0112841796875],[0.23576171875,0.0673193359375],[0.2639208984375,0.093623046875],[0.2809716796875,0.10849609375],[0.290185546875,0.115849609375],[0.2983837890625,0.122265625],[0.301259765625,0.1234814453125],[0.30275390625,0.1234814453125],[0.3033984375,0.1234814453125],[0.3033984375,0.1234814453125],[0.3033984375,0.1244921875],[0.3015478515625,0.128740234375]]]",2,"[26,24]",,,,,,,,,,,,,,banquetHall4.jpg,space,3.36399,0,23,23,7,1,attic2.jpg,backstage1.jpg,baggageClaim3.jpg,applestore2.jpg,,
Image_List_2,,,,,,,,,,,,,,,,44607,2020-11-24_13h00.00.763,analogCatScenes,2020.1.3,MacIntel,60,"[1280,800]","[[[0.0085302734375,-0.1996142578125],[0.0085302734375,-0.1996142578125],[0.0085302734375,-0.1996142578125],[0.0085302734375,-0.1996142578125],[0.0085302734375,-0.1996142578125],[0.010009765625,-0.188466796875],[0.0351611328125,-0.1403271484375],[0.0847412109375,-0.06251953125],[0.157958984375,0.0416357421875],[0.2318408203125,0.146787109375],[0.2562939453125,0.178115234375],[0.2987890625,0.2365869140625],[0.30810546875,0.248447265625],[0.3173828125,0.26009765625],[0.3191552734375,0.263125],[0.31947265625,0.2637744140625],[0.31947265625,0.2637744140625],[0.31947265625,0.2637744140625],[0.31947265625,0.2637744140625],[0.31947265625,0.2637744140625],[0.31947265625,0.2640673828125],[0.318447265625,0.264736328125],[0.3165625,0.2651318359375]]]",1,[23],,,,,,,,,,,,,,yogastudio4.jpg,space,3.282795,0,24,24,99,1,wineVineyard9.jpg,windmill2.jpg,wrestlingring7.jpg,yogastudio1.jpg,,
Image_List_2,,,,,,,,,,,,,,,,44607,2020-11-24_13h00.00.763,analogCatScenes,2020.1.3,MacIntel,60,"[1280,800]","[[[-0.0075048828125,-0.192236328125],[-0.0075048828125,-0.192236328125],[-0.0075048828125,-0.192236328125],[-0.0075048828125,-0.192236328125],[-0.01607421875,-0.1902978515625],[-0.0500634765625,-0.171240234375],[-0.1140966796875,-0.1368408203125],[-0.1661083984375,-0.107412109375],[-0.2375830078125,-0.0688720703125],[-0.276953125,-0.04708984375],[-0.3047119140625,-0.0344873046875],[-0.330771484375,-0.023564453125],[-0.3459228515625,-0.0166162109375]],[[-0.004091796875,-0.192265625],[-0.004091796875,-0.192265625],[-0.004091796875,-0.192265625],[-0.004091796875,-0.192265625],[-0.004091796875,-0.192265625],[-0.002890625,-0.192265625],[0.0157958984375,-0.192265625],[0.0749072265625,-0.184013671875],[0.1717822265625,-0.162197265625],[0.2892822265625,-0.1338232421875]]]",2,"[13,10]",,,,,,,,,,,,,,grocerystore6.jpg,space,3.31601,0,25,25,50,1,frontLawn4.jpg,forestpath6.jpg,hallway2.jpg,fireplace4.jpg,,
Image_List_2,,,,,,,,,,,,,,,,44607,2020-11-24_13h00.00.763,analogCatScenes,2020.1.3,MacIntel,60,"[1280,800]","[[[0.0088134765625,-0.194443359375],[0.0088134765625,-0.194443359375],[0.0088134765625,-0.194443359375],[0.0088134765625,-0.194443359375],[0.0088134765625,-0.194443359375],[0.0088134765625,-0.194150390625],[0.0088134765625,-0.1878076171875],[0.0088134765625,-0.1550830078125],[0.0077197265625,-0.1134765625],[0.0039697265625,-0.0468212890625],[-0.000302734375,0.0435400390625],[-0.0045361328125,0.1338232421875],[-0.00587890625,0.1889892578125],[-0.0082080078125,0.253583984375],[-0.0082080078125,0.28703125],[-0.009091796875,0.3065380859375],[-0.0112060546875,0.3224462890625],[-0.0134716796875,0.3301416015625],[-0.015185546875,0.3336279296875],[-0.0161962890625,0.3349951171875],[-0.0165234375,0.335322265625],[-0.0168505859375,0.3356494140625],[-0.0175048828125,0.3359765625],[-0.0185400390625,0.33666015625],[-0.0199755859375,0.3377392578125]]]",1,[25],,,,,,,,,,,,,,bambooforest.jpg,space,2.09438,0,26,26,5,1,artStudio3.jpg,auto_showroom4.jpg,attic4.jpg,amusement3.jpg,,
Image_List_2,,,,,,,,,,,,,,,,44607,2020-11-24_13h00.00.763,analogCatScenes,2020.1.3,MacIntel,60,"[1280,800]","[[[-0.00537109375,-0.199501953125],[-0.00537109375,-0.199501953125],[-0.00537109375,-0.199501953125],[-0.00537109375,-0.199501953125],[-0.00537109375,-0.199501953125],[-0.00537109375,-0.199501953125],[-0.007373046875,-0.199501953125],[-0.0167138671875,-0.194228515625],[-0.0316259765625,-0.1849072265625],[-0.0655615234375,-0.163564453125],[-0.1057177734375,-0.138203125],[-0.16583984375,-0.0972021484375],[-0.2402734375,-0.0490380859375],[-0.313154296875,-0.0066064453125]]]",1,[14],,,,,,,,,,,,,,horsebarn11.jpg,space,1.8789,0,27,27,54,1,greenhouse2.jpg,gazebo2.jpg,homegarage4.jpg,frontFoyer.jpg,,
Image_List_2,,,,,,,,,,,,,,,,44607,2020-11-24_13h00.00.763,analogCatScenes,2020.1.3,MacIntel,60,"[1280,800]","[[[-0.003251953125,-0.2001513671875],[-0.003251953125,-0.2001513671875],[-0.003251953125,-0.2001513671875],[-0.003251953125,-0.2001513671875],[-0.003251953125,-0.1948876953125],[-0.003251953125,-0.177880859375],[-0.003251953125,-0.135859375],[0.001396484375,-0.079736328125],[0.017119140625,-0.012958984375],[0.0386572265625,0.0554736328125],[0.050625,0.096796875],[0.0565576171875,0.1214501953125],[0.05939453125,0.135927734375],[0.06,0.149541015625],[0.06,0.1518701171875],[0.06,0.15291015625],[0.06,0.15291015625],[0.06,0.15291015625],[0.06,0.15291015625],[0.06,0.153203125],[0.06,0.153203125],[0.06,0.153505859375],[0.06,0.154140625],[0.0596728515625,0.154462890625]]]",1,[24],,,,,,,,,,,,,,bedroom6.jpg,space,2.07944,0,28,28,12,1,baggageClaim4.jpg,bambooforest5.jpg,bleachers7.jpg,backyard5.jpg,,
Image_List_2,,,,,,,,,,,,,,,,44607,2020-11-24_13h00.00.763,analogCatScenes,2020.1.3,MacIntel,60,"[1280,800]","[[[0.0033349609375,-0.2015869140625],[0.0033349609375,-0.2015869140625],[0.0033349609375,-0.2015869140625],[0.0033349609375,-0.2015869140625],[0.0033349609375,-0.2015869140625],[0.0033349609375,-0.2015869140625],[0.0033349609375,-0.1955859375],[0.0033349609375,-0.1818505859375],[0.0033349609375,-0.1435888671875],[0.0033349609375,-0.113671875],[0.0033349609375,-0.068974609375],[0.0033349609375,-0.0005859375],[0.0033349609375,0.03208984375],[0.0033349609375,0.056865234375],[0.0033349609375,0.0812548828125],[0.0033349609375,0.089794921875],[0.0033349609375,0.0988818359375],[0.0033349609375,0.1035009765625],[0.0015869140625,0.1086865234375],[0.000439453125,0.11111328125],[-0.0007275390625,0.113447265625],[-0.0022314453125,0.115341796875],[-0.0033056640625,0.1167724609375]]]",1,[23],,,,,,,,,,,,,,pharmacy4.jpg,space,1.29544,0,29,29,72,1,museum5.jpg,musicStore1.jpg,museum4.jpg,kindergarten_classroom.jpg,,
Image_List_2,,,,,,,,,,,,,,,,44607,2020-11-24_13h00.00.763,analogCatScenes,2020.1.3,MacIntel,60,"[1280,800]","[[[-0.0033837890625,-0.198427734375],[-0.0033837890625,-0.198427734375],[-0.0033837890625,-0.198427734375],[-0.0033837890625,-0.198427734375],[-0.0022216796875,-0.198427734375],[0.0144189453125,-0.198427734375],[0.0537890625,-0.1872412109375],[0.154716796875,-0.15263671875],[0.2567236328125,-0.1136181640625],[0.3403369140625,-0.0819140625]],[[-0.00412109375,-0.202998046875],[-0.00412109375,-0.202998046875],[-0.00412109375,-0.202998046875],[-0.00412109375,-0.202998046875],[-0.00412109375,-0.202998046875],[-0.00412109375,-0.202998046875],[-0.0052880859375,-0.202998046875],[-0.0186376953125,-0.201513671875],[-0.06865234375,-0.1842236328125],[-0.1514501953125,-0.15671875],[-0.229375,-0.131064453125],[-0.33263671875,-0.102265625]]]",2,"[10,12]",,,,,,,,,,,,,,pavilion.jpg,space,3.130125,0,30,30,70,1,lockerroom4.jpg,lockerroom3.jpg,minigolf8.jpg,igloo.jpg,,
Image_List_2,,,,,,,,,,,,,,,,44607,2020-11-24_13h00.00.763,analogCatScenes,2020.1.3,MacIntel,60,"[1280,800]","[[[-0.0057763671875,-0.200947265625],[-0.0057763671875,-0.200947265625],[-0.0057763671875,-0.200947265625],[-0.0057763671875,-0.200947265625],[-0.0057763671875,-0.200947265625],[-0.0057763671875,-0.200947265625],[-0.0057763671875,-0.19943359375],[0.000703125,-0.18517578125],[0.0332421875,-0.1456005859375],[0.0946826171875,-0.0874609375],[0.1710302734375,-0.022607421875],[0.261982421875,0.046298828125],[0.311572265625,0.082890625],[0.3294384765625,0.096923828125],[0.3494091796875,0.112265625]]]",1,[15],,,,,,,,,,,,,,photographer_studio2.jpg,space,5.700065,0,31,31,73,1,musicStore3.jpg,nursery.jpg,nursery4.jpg,library_aisle9.jpg,,
Image_List_2,,,,,,,,,,,,,,,,44607,2020-11-24_13h00.00.763,analogCatScenes,2020.1.3,MacIntel,60,"[1280,800]","[[[-0.0067578125,-0.1915625],[-0.0067578125,-0.1915625],[-0.0067578125,-0.1915625],[-0.0067578125,-0.1915625],[-0.0067578125,-0.1897998046875],[-0.0067578125,-0.179833984375],[-0.0067578125,-0.145751953125],[-0.0067578125,-0.0628076171875],[-0.0067578125,0.0016552734375],[-0.0067578125,0.0864453125],[-0.0067578125,0.1585791015625],[-0.0067578125,0.2052490234375],[-0.0067578125,0.240771484375],[-0.00912109375,0.2718408203125],[-0.010859375,0.282939453125],[-0.0116845703125,0.2858251953125],[-0.012080078125,0.287001953125],[-0.0123876953125,0.287001953125],[-0.0133642578125,0.2873291015625],[-0.0144091796875,0.2883740234375],[-0.0164794921875,0.2908349609375],[-0.019111328125,0.293916015625]]]",1,[22],,,,,,,,,,,,,,banquetHall2.jpg,space,2.033575,0,32,32,6,1,ATM1.jpg,auto_showroom5.jpg,baggageClaim1.jpg,apartmentBuilding3.jpg,,
Image_List_2,,,,,,,,,,,,,,,,44607,2020-11-24_13h00.00.763,analogCatScenes,2020.1.3,MacIntel,60,"[1280,800]","[[[0.003056640625,-0.2010498046875],[0.003056640625,-0.2010498046875],[0.003056640625,-0.2010498046875],[0.003056640625,-0.2010498046875],[0.003056640625,-0.2010498046875],[0.003056640625,-0.2010498046875],[0.0036376953125,-0.2010498046875],[0.0174658203125,-0.1974462890625],[0.0658447265625,-0.1841015625],[0.1486328125,-0.157900390625],[0.270625,-0.12537109375]]]",1,[11],,,,,,,,,,,,,,newsstand5.jpg,space,1.92951,0,33,33,64,1,igloo2.jpg,jewelrystore8.jpg,lab5.jpg,homegarage2.jpg,,
Image_List_2,,,,,,,,,,,,,,,,44607,2020-11-24_13h00.00.763,analogCatScenes,2020.1.3,MacIntel,60,"[1280,800]","[[[-0.0085791015625,-0.1914208984375],[-0.0085791015625,-0.1914208984375],[-0.0085791015625,-0.1914208984375],[-0.0085791015625,-0.1914208984375],[-0.0085791015625,-0.1914208984375],[-0.0085791015625,-0.1893896484375],[-0.0085791015625,-0.1755859375],[-0.0097802734375,-0.11931640625],[-0.012431640625,-0.0235009765625],[-0.0152783203125,0.0702880859375],[-0.0172119140625,0.18427734375],[-0.0172119140625,0.25115234375],[-0.0172119140625,0.3180419921875],[-0.0172119140625,0.3319189453125],[-0.0172119140625,0.3560107421875],[-0.0172119140625,0.3668994140625],[-0.0172119140625,0.370361328125],[-0.0172119140625,0.3717919921875],[-0.0172119140625,0.3717919921875],[-0.0178515625,0.3724169921875],[-0.018486328125,0.372744140625],[-0.0195263671875,0.373427734375],[-0.02060546875,0.3745068359375]]]",1,[23],,,,,,,,,,,,,,greenhouse5.jpg,space,2.88116,0,34,34,49,1,frontDoor3.jpg,flowershop3.jpg,greenhouse.jpg,farm2.jpg,,
Image_List_2,,,,,,,,,,,,,,,,44607,2020-11-24_13h00.00.763,analogCatScenes,2020.1.3,MacIntel,60,"[1280,800]","[[[-0.004580078125,-0.1928955078125],[-0.004580078125,-0.1928955078125],[-0.004580078125,-0.1928955078125],[-0.004580078125,-0.1928955078125],[-0.004580078125,-0.1928955078125],[-0.004580078125,-0.1928955078125],[-0.004580078125,-0.1928955078125],[-0.01140625,-0.183154296875],[-0.0374755859375,-0.1541748046875],[-0.09607421875,-0.0857470703125],[-0.1387646484375,-0.0393212890625],[-0.1941845703125,0.021357421875],[-0.244931640625,0.0771533203125],[-0.2752685546875,0.110693359375],[-0.3113134765625,0.1512451171875],[-0.33796875,0.1828369140625]],[[-0.003876953125,-0.196044921875],[-0.003876953125,-0.196044921875],[-0.003876953125,-0.196044921875],[-0.003876953125,-0.196044921875],[-0.003876953125,-0.196044921875],[-0.003876953125,-0.196044921875],[-0.0017431640625,-0.1945166015625],[0.0218212890625,-0.17689453125],[0.0949658203125,-0.128251953125],[0.191845703125,-0.072978515625]]]",2,"[16,10]",,,,,,,,,,,,,,volleyballcourt4.jpg,space,3.29829,0,35,35,93,1,tollbooth8.jpg,staircase4.jpg,warehouseoutside2.jpg,tenniscourt.jpg,,
Image_List_2,,,,,,,,,,,,,,,,44607,2020-11-24_13h00.00.763,analogCatScenes,2020.1.3,MacIntel,60,"[1280,800]","[[[-0.0100390625,-0.2024267578125],[-0.0100390625,-0.2024267578125],[-0.0100390625,-0.2024267578125],[-0.0100390625,-0.2024267578125],[-0.0100390625,-0.2024267578125],[-0.0100390625,-0.2024267578125],[-0.0100390625,-0.2006591796875],[-0.0100390625,-0.1868212890625],[0.0020068359375,-0.1555322265625],[0.03892578125,-0.0765966796875],[0.0670947265625,-0.0228173828125],[0.108876953125,0.0566015625],[0.1459228515625,0.12798828125],[0.170126953125,0.1701904296875],[0.187060546875,0.2020458984375],[0.20080078125,0.2295556640625],[0.20556640625,0.2389990234375],[0.2073388671875,0.242958984375],[0.2080419921875,0.244443359375],[0.2080419921875,0.245478515625],[0.2080419921875,0.2473681640625],[0.2066552734375,0.2508447265625]]]",1,[22],,,,,,,,,,,,,,poolhall1.jpg,space,1.830025,0,36,36,78,1,parkinglot3.jpg,pier5.jpg,pavilion3.jpg,observatory1.jpg,,
Image_List_2,,,,,,,,,,,,,,,,44607,2020-11-24_13h00.00.763,analogCatScenes,2020.1.3,MacIntel,60,"[1280,800]","[[[-0.0043212890625,-0.2004052734375],[-0.0043212890625,-0.2011083984375],[-0.0043212890625,-0.2011083984375],[-0.0043212890625,-0.2011083984375],[-0.0043212890625,-0.2011083984375],[-0.0043212890625,-0.2011083984375],[-0.0043212890625,-0.2011083984375],[-0.0043212890625,-0.2011083984375],[-0.0011328125,-0.20064453125],[0.01953125,-0.1914501953125],[0.080029296875,-0.164541015625],[0.2124951171875,-0.1068359375],[0.3185986328125,-0.0652783203125]]]",1,[13],,,,,,,,,,,,,,church6.jpg,space,1.799045,0,37,37,22,1,bowlingalley5.jpg,cargo5.jpg,cemetery.jpg,bistrooutdoor6.jpg,,
Image_List_2,,,,,,,,,,,,,,,,44607,2020-11-24_13h00.00.763,analogCatScenes,2020.1.3,MacIntel,60,"[1280,800]","[[[-0.0047509765625,-0.1959423828125],[-0.0047509765625,-0.1959423828125],[-0.0047509765625,-0.1959423828125],[-0.0047509765625,-0.1959423828125],[-0.0047509765625,-0.1959423828125],[-0.0146826171875,-0.1959423828125],[-0.0400244140625,-0.1959423828125],[-0.0934033203125,-0.1959423828125],[-0.215556640625,-0.1959423828125],[-0.294716796875,-0.1959423828125]]]",1,[10],,,,,,,,,,,,,,firestation3.jpg,space,1.614305,0,38,38,42,1,exerciseequipment3.jpg,drymountains6.jpg,farm4.jpg,desertvegetation2.jpg,,
Image_List_2,,,,,,,,,,,,,,,,44607,2020-11-24_13h00.00.763,analogCatScenes,2020.1.3,MacIntel,60,"[1280,800]","[[[0.0084130859375,-0.1964306640625],[0.0084130859375,-0.1964306640625],[0.0084130859375,-0.1964306640625],[0.0084130859375,-0.1964306640625],[0.0084130859375,-0.1964306640625],[0.0084130859375,-0.1916748046875],[0.0084130859375,-0.1817333984375],[0.01029296875,-0.155361328125],[0.02091796875,-0.125859375],[0.033056640625,-0.0950244140625],[0.0434765625,-0.07173828125],[0.0593896484375,-0.039892578125],[0.0735546875,-0.01029296875],[0.0791650390625,-0.0006787109375],[0.0836865234375,0.0078173828125],[0.0858349609375,0.011279296875],[0.0870361328125,0.0136962890625],[0.0877490234375,0.014736328125],[0.0883935546875,0.0150634765625],[0.0890673828125,0.01578125],[0.0890673828125,0.0160888671875],[0.0893896484375,0.0160888671875],[0.0896923828125,0.016396484375],[0.0899951171875,0.0167041015625],[0.0899951171875,0.01701171875]]]",1,[25],,,,,,,,,,,,,,hallway5.jpg,space,1.812665,0,39,39,51,1,gasstation6.jpg,frontDoor5.jpg,hayfield4.jpg,firestation5.jpg,,
Image_List_2,,,,,,,,,,,,,,,,44607,2020-11-24_13h00.00.763,analogCatScenes,2020.1.3,MacIntel,60,"[1280,800]","[[[-0.0028955078125,-0.20259765625],[-0.0028955078125,-0.20259765625],[-0.0028955078125,-0.20259765625],[-0.0028955078125,-0.20259765625],[-0.0028955078125,-0.20259765625],[-0.0028955078125,-0.20259765625],[-0.0028955078125,-0.2017236328125],[-0.0028955078125,-0.1923876953125],[-0.0028955078125,-0.1594091796875],[-0.007373046875,-0.107236328125],[-0.0096435546875,-0.064208984375],[-0.0111083984375,0.027587890625],[-0.0111083984375,0.0600830078125],[-0.0111083984375,0.0916845703125],[-0.0111083984375,0.1038720703125],[-0.0111083984375,0.1130029296875],[-0.01150390625,0.117158203125],[-0.0118994140625,0.119052734375],[-0.0126171875,0.1197412109375],[-0.013662109375,0.1207861328125],[-0.0148095703125,0.1226806640625]]]",1,[21],,,,,,,,,,,,,,trainStation1.jpg,space,1.812815,0,40,40,90,1,savanna5.jpg,sidewalk1.jpg,stripmall3.jpg,shoestore4.jpg,,
Image_List_2,,,,,,,,,,,,,,,,44607,2020-11-24_13h00.00.763,analogCatScenes,2020.1.3,MacIntel,60,"[1280,800]","[[[0.0024560546875,-0.1969091796875],[0.0024560546875,-0.1969091796875],[0.0024560546875,-0.1969091796875],[0.0024560546875,-0.1969091796875],[0.0024560546875,-0.1969091796875],[0.0024560546875,-0.1969091796875],[0.0024560546875,-0.1969091796875],[0.0024560546875,-0.1969091796875],[0.0182373046875,-0.189287109375],[0.0685693359375,-0.15935546875],[0.1382958984375,-0.116484375],[0.1997607421875,-0.08015625],[0.246669921875,-0.0487353515625],[0.27826171875,-0.0258740234375],[0.2942626953125,-0.01275390625],[0.30294921875,-0.003857421875],[0.30607421875,-0.00072265625],[0.30607421875,-0.0000048828125],[0.30607421875,-0.0000048828125],[0.30607421875,0.0006005859375],[0.30607421875,0.000908203125],[0.3046142578125,0.003115234375]]]",1,[22],,,,,,,,,,,,,,homeoffice.jpg,space,1.629985,0,41,41,53,1,gazebo3.jpg,frontLawn3.jpg,homegarage3.jpg,fountain.jpg,,
Image_List_2,,,,,,,,,,,,,,,,44607,2020-11-24_13h00.00.763,analogCatScenes,2020.1.3,MacIntel,60,"[1280,800]","[[[-0.003759765625,-0.202431640625],[-0.003759765625,-0.202431640625],[-0.003759765625,-0.202431640625],[-0.003759765625,-0.202431640625],[-0.003759765625,-0.2018505859375],[-0.003759765625,-0.1897412109375],[-0.003759765625,-0.162373046875],[-0.003759765625,-0.1228515625],[-0.000380859375,-0.0513720703125],[0.014765625,0.0454833984375],[0.0339013671875,0.1592431640625],[0.0546337890625,0.24978515625],[0.0666064453125,0.2995751953125],[0.0777978515625,0.3344384765625],[0.083427734375,0.35462890625],[0.0867236328125,0.3693994140625],[0.0883056640625,0.3762109375],[0.0883056640625,0.3786376953125],[0.0889501953125,0.3792919921875],[0.0889501953125,0.379619140625],[0.0892431640625,0.379619140625],[0.0892431640625,0.379619140625],[0.0892431640625,0.379619140625],[0.0892431640625,0.3802392578125],[0.0880859375,0.381728515625]]]",1,[25],,,,,,,,,,,,,,barbershop3.jpg,space,1.748035,0,42,42,10,1,backstage2.jpg,ballroom4.jpg,basketballcourt3.jpg,ATM4.jpg,,
Image_List_2,,,,,,,,,,,,,,,,44607,2020-11-24_13h00.00.763,analogCatScenes,2020.1.3,MacIntel,60,"[1280,800]","[[[0.0001220703125,-0.201640625],[0.0001220703125,-0.201640625],[0.0001220703125,-0.201640625],[0.0001220703125,-0.201640625],[0.0001220703125,-0.201640625],[0.0001220703125,-0.201640625],[0.0001220703125,-0.1943896484375],[0.0035009765625,-0.168701171875],[0.02578125,-0.1066796875],[0.0474072265625,-0.0581201171875],[0.0813134765625,0.011005859375],[0.102451171875,0.0505810546875],[0.122529296875,0.089091796875],[0.1380615234375,0.118583984375],[0.14455078125,0.13087890625],[0.148193359375,0.1377197265625],[0.151201171875,0.143125],[0.151982421875,0.145478515625],[0.152626953125,0.1461328125],[0.152626953125,0.1467822265625],[0.1529443359375,0.147431640625],[0.1529443359375,0.1488671875],[0.1529443359375,0.1535107421875]]]",1,[23],,,,,,,,,,,,,,cave.jpg,space,1.444305,0,43,43,20,1,boardwalk6.jpg,campsite3.jpg,cave4.jpg,basketballcourt7.jpg,,
Image_List_2,,,,,,,,,,,,,,,,44607,2020-11-24_13h00.00.763,analogCatScenes,2020.1.3,MacIntel,60,"[1280,800]","[[[-0.0047802734375,-0.2031005859375],[-0.0047802734375,-0.2031005859375],[-0.0047802734375,-0.2031005859375],[-0.0047802734375,-0.2031005859375],[-0.0047802734375,-0.2031005859375],[-0.0047802734375,-0.2031005859375],[-0.000478515625,-0.2031005859375],[0.024462890625,-0.1930517578125],[0.1023876953125,-0.1547607421875],[0.2275146484375,-0.094169921875]]]",1,[10],,,,,,,,,,,,,,baggageClaim2.jpg,space,1.380085,0,44,44,4,1,artStudio1.jpg,auto_showroom1.jpg,appleorchard3.jpg,alley4.jpg,,
Image_List_2,,,,,,,,,,,,,,,,44607,2020-11-24_13h00.00.763,analogCatScenes,2020.1.3,MacIntel,60,"[1280,800]","[[[0.0094677734375,-0.1993505859375],[0.0094677734375,-0.1993505859375],[0.0094677734375,-0.1993505859375],[0.0094677734375,-0.1993505859375],[0.0094677734375,-0.1993505859375],[0.0094677734375,-0.197734375],[0.01396484375,-0.1892724609375],[0.0368896484375,-0.1645068359375],[0.1229541015625,-0.08509765625],[0.137216796875,-0.072734375],[0.2271240234375,0.0149267578125],[0.2674755859375,0.06111328125],[0.3004736328125,0.1052587890625],[0.316884765625,0.1325341796875],[0.3273486328125,0.1521044921875],[0.3347705078125,0.1641845703125],[0.3397314453125,0.1725048828125],[0.3412890625,0.174853515625],[0.3419677734375,0.1758984375],[0.3422900390625,0.1758984375],[0.3422900390625,0.1758984375],[0.3422900390625,0.1758984375],[0.3422900390625,0.1758984375],[0.3422900390625,0.1758984375],[0.3422900390625,0.1758984375],[0.3422900390625,0.1758984375],[0.3422900390625,0.1758984375],[0.3422900390625,0.1758984375]]]",1,[28],,,,,,,,,,,,,,farm3.jpg,space,1.781915,0,45,45,41,1,dugout4.jpg,drymountains3.jpg,fabricstore1.jpg,dentist2.jpg,,
Image_List_2,,,,,,,,,,,,,,,,44607,2020-11-24_13h00.00.763,analogCatScenes,2020.1.3,MacIntel,60,"[1280,800]","[[[-0.00484375,-0.20669921875],[-0.00484375,-0.20669921875],[-0.00484375,-0.20669921875],[-0.00484375,-0.20669921875],[-0.00484375,-0.20669921875],[-0.00484375,-0.20669921875],[-0.00484375,-0.20669921875],[-0.002353515625,-0.1876806640625],[0.0194091796875,-0.1380810546875],[0.0447705078125,-0.0886083984375],[0.0872802734375,-0.0181640625],[0.135478515625,0.0536376953125],[0.19185546875,0.131494140625],[0.241572265625,0.198681640625],[0.27494140625,0.241572265625],[0.29755859375,0.2741357421875],[0.3125927734375,0.296416015625],[0.324150390625,0.31494140625],[0.32849609375,0.3220361328125],[0.3301318359375,0.3250634765625],[0.33080078125,0.32609375],[0.33080078125,0.32609375],[0.33080078125,0.32609375],[0.33080078125,0.3267138671875],[0.3293701171875,0.32814453125]]]",1,[25],,,,,,,,,,,,,,golfcourse6.jpg,space,1.511155,0,46,46,48,1,frontDoor2.jpg,fittingroom5.jpg,golfcourse7.jpg,fabricstore2.jpg,,
Image_List_2,,,,,,,,,,,,,,,,44607,2020-11-24_13h00.00.763,analogCatScenes,2020.1.3,MacIntel,60,"[1280,800]","[[[-0.003662109375,-0.1941845703125],[-0.003662109375,-0.1941845703125],[-0.003662109375,-0.1941845703125],[-0.003662109375,-0.1941845703125],[-0.003662109375,-0.1941845703125],[-0.003662109375,-0.1941845703125],[-0.0053515625,-0.188251953125],[-0.022998046875,-0.158486328125],[-0.0614501953125,-0.1027685546875],[-0.0980615234375,-0.043798828125],[-0.1677978515625,0.0511083984375],[-0.1892431640625,0.07751953125],[-0.213623046875,0.1037646484375],[-0.2255126953125,0.1158203125],[-0.2403955078125,0.128447265625],[-0.2478271484375,0.1331201171875],[-0.2552099609375,0.1393701171875],[-0.259228515625,0.141611328125],[-0.261435546875,0.1437109375],[-0.262119140625,0.1447509765625],[-0.2624462890625,0.145400390625],[-0.2624462890625,0.1460546875]]]",1,[22],,,,,,,,,,,,,,library_aisle8.jpg,space,1.662795,0,47,47,59,1,homegarden7.jpg,highway4.jpg,kindergarten_classroom5.jpg,grocerystore3.jpg,,
Image_List_2,,,,,,,,,,,,,,,,44607,2020-11-24_13h00.00.763,analogCatScenes,2020.1.3,MacIntel,60,"[1280,800]","[[[0.0022412109375,-0.1965283203125],[0.0022412109375,-0.1965283203125],[0.0022412109375,-0.1965283203125],[0.0022412109375,-0.1965283203125],[0.0022412109375,-0.1965283203125],[0.0022412109375,-0.1965283203125],[0.0022412109375,-0.1965283203125],[0.0022412109375,-0.192958984375],[0.0022412109375,-0.1762841796875],[0.0022412109375,-0.1365478515625],[0.00767578125,-0.0644775390625],[0.0321484375,0.0289013671875],[0.0571533203125,0.107763671875],[0.071240234375,0.146376953125],[0.084658203125,0.185283203125],[0.0871728515625,0.1962451171875],[0.0888623046875,0.205205078125],[0.089287109375,0.2080908203125],[0.089609375,0.2091357421875],[0.089609375,0.2101708984375],[0.089609375,0.2108251953125],[0.0882568359375,0.2142529296875],[0.0863525390625,0.2194921875]]]",1,[23],,,,,,,,,,,,,,playroom4.jpg,space,1.346625,0,48,48,76,1,parkinggarage.jpg,parkinggarage3.jpg,park2.jpg,lookout4.jpg,,
Image_List_2,,,,,,,,,,,,,,,,44607,2020-11-24_13h00.00.763,analogCatScenes,2020.1.3,MacIntel,60,"[1280,800]","[[[0.0021484375,-0.2082080078125],[0.0021484375,-0.2082080078125],[0.0021484375,-0.2082080078125],[0.0021484375,-0.2082080078125],[0.0021484375,-0.2082080078125],[0.0021484375,-0.200947265625],[-0.0080029296875,-0.176875],[-0.0463134765625,-0.10822265625],[-0.0986279296875,-0.0186328125],[-0.142216796875,0.0509130859375],[-0.17234375,0.1003271484375],[-0.2058984375,0.15337890625],[-0.219677734375,0.174453125],[-0.226689453125,0.1859326171875],[-0.229462890625,0.1900927734375],[-0.2324462890625,0.194990234375],[-0.2336279296875,0.19734375],[-0.2336279296875,0.197998046875],[-0.2336279296875,0.1983251953125],[-0.233330078125,0.1983251953125],[-0.231904296875,0.1983251953125]]]",1,[21],,,,,,,,,,,,,,ruralroad5.jpg,space,1.398765,0,49,49,81,1,promenadeDeck.jpg,promenadeDeck2.jpg,rainforest5.jpg,pasture8.jpg,,
Image_List_2,,,,,,,,,,,,,,,,44607,2020-11-24_13h00.00.763,analogCatScenes,2020.1.3,MacIntel,60,"[1280,800]","[[[0.0044677734375,-0.2033544921875],[0.0044677734375,-0.2033544921875],[0.0044677734375,-0.2033544921875],[0.0044677734375,-0.2033544921875],[0.0044677734375,-0.2033544921875],[0.0044677734375,-0.2033544921875],[0.0044677734375,-0.20216796875],[0.0044677734375,-0.1855517578125],[0.0044677734375,-0.1511181640625],[0.0044677734375,-0.0815576171875],[0.0044677734375,0.057060546875],[0.0044677734375,0.145390625],[0.0044677734375,0.18181640625],[0.0044677734375,0.2331005859375],[0.003828125,0.2487939453125],[0.002373046875,0.254052734375],[0.001259765625,0.2555908203125],[0.0005419921875,0.2566650390625],[-0.0001416015625,0.257705078125],[-0.001572265625,0.2591357421875]]]",1,[20],,,,,,,,,,,,,,volleyballcourt.jpg,space,2.099225,0,50,50,92,1,staircase.jpg,skatepark7.jpg,tvstudio2.jpg,soccerfield2.jpg,,
Image_List_2,,,,,,,,,,,,,,,,44607,2020-11-24_13h00.00.763,analogCatScenes,2020.1.3,MacIntel,60,"[1280,800]","[[[-0.0048828125,-0.19611328125],[-0.0048828125,-0.19611328125],[-0.0048828125,-0.19611328125],[-0.0048828125,-0.19611328125],[-0.0048828125,-0.19611328125],[-0.0048828125,-0.19611328125],[0.00330078125,-0.187177734375],[0.130654296875,-0.072255859375],[0.2277685546875,0.0076513671875]],[[0.002666015625,-0.20513671875],[0.002666015625,-0.20513671875],[0.002666015625,-0.20513671875],[0.002666015625,-0.20513671875],[0.002666015625,-0.20513671875],[0.002666015625,-0.20513671875],[0.0016845703125,-0.2016015625],[-0.00783203125,-0.1801708984375],[-0.02435546875,-0.144169921875],[-0.05970703125,-0.0667626953125],[-0.076884765625,-0.0285498046875],[-0.0908056640625,0.0007421875],[-0.1052880859375,0.0295947265625],[-0.1132958984375,0.04638671875],[-0.1164892578125,0.0532275390625],[-0.1201416015625,0.059501953125],[-0.1217822265625,0.0623876953125],[-0.1228466796875,0.06380859375],[-0.1228466796875,0.0641357421875]]]",2,"[9,19]",,,,,,,,,,,,,,playground10.jpg,space,2.630135,0,51,51,74,1,newsstand2.jpg,observatory4.jpeg,operatingroom1.jpg,lightingstore2.jpg,,
Image_List_2,,,,,,,,,,,,,,,,44607,2020-11-24_13h00.00.763,analogCatScenes,2020.1.3,MacIntel,60,"[1280,800]","[[[-0.0057373046875,-0.1987109375],[-0.0057373046875,-0.1987109375],[-0.0057373046875,-0.1987109375],[-0.0057373046875,-0.1987109375],[-0.0057373046875,-0.1987109375],[-0.0057373046875,-0.1987109375],[-0.0057373046875,-0.1987109375],[0.0033837890625,-0.1908349609375],[0.0829052734375,-0.1310546875],[0.173935546875,-0.0688818359375],[0.2402001953125,-0.025849609375],[0.2920703125,0.0071044921875],[0.3411767578125,0.0408935546875]]]",1,[13],,,,,,,,,,,,,,arcade1.jpg,space,1.44583,0,52,52,2,1,alley1.jpg,applestore6.jpg,apartmentBuilding4.jpg,airportTerminal6.jpg,,
Image_List_2,,,,,,,,,,,,,,,,44607,2020-11-24_13h00.00.763,analogCatScenes,2020.1.3,MacIntel,60,"[1280,800]","[[[-0.0087353515625,-0.2002587890625],[-0.0087353515625,-0.2002587890625],[-0.0087353515625,-0.2002587890625],[-0.0087353515625,-0.1999658203125],[-0.0087353515625,-0.1917138671875],[-0.0087353515625,-0.15927734375],[0.008671875,-0.0772705078125],[0.04390625,0.0357568359375],[0.1021728515625,0.1836767578125],[0.141142578125,0.281689453125],[0.1843408203125,0.386572265625],[0.1907177734375,0.4107470703125],[0.1986767578125,0.4459326171875]]]",1,[13],,,,,,,,,,,,,,farm1.jpg,space,2.131685,0,53,53,40,1,drycleaners4.jpg,drymountains.jpg,dugout1.jpg,clothingstore3.jpg,,
Image_List_2,,,,,,,,,,,,,,,,44607,2020-11-24_13h00.00.763,analogCatScenes,2020.1.3,MacIntel,60,"[1280,800]","[[[0.001904296875,-0.2086376953125],[0.001904296875,-0.2086376953125],[0.001904296875,-0.2086376953125],[0.001904296875,-0.2086376953125],[0.001904296875,-0.2083447265625],[0.001904296875,-0.1957373046875],[0.0050048828125,-0.1803466796875],[0.019619140625,-0.1353955078125],[0.037275390625,-0.0858203125],[0.0495166015625,-0.051474609375],[0.0640576171875,-0.0088525390625],[0.07314453125,0.0152978515625],[0.078701171875,0.0312109375],[0.082626953125,0.0443798828125],[0.082626953125,0.0467724609375],[0.082626953125,0.0474267578125],[0.082626953125,0.0474267578125],[0.0814501953125,0.0491845703125]]]",1,[18],,,,,,,,,,,,,,hut3.jpg,space,1.111665,0,54,54,56,1,grocerystore5.jpg,golfcourse10.jpg,hut1.jpg,gasstation2.jpg,,
Image_List_2,,,,,,,,,,,,,,,,44607,2020-11-24_13h00.00.763,analogCatScenes,2020.1.3,MacIntel,60,"[1280,800]","[[[-0.002626953125,-0.1970703125],[-0.002626953125,-0.1970703125],[-0.002626953125,-0.1970703125],[-0.002626953125,-0.1970703125],[-0.002626953125,-0.1958984375],[-0.002626953125,-0.1881787109375],[-0.0117041015625,-0.1634765625],[-0.0356201171875,-0.0946044921875],[-0.0595703125,-0.0056201171875],[-0.07642578125,0.0653564453125],[-0.09798828125,0.1425537109375],[-0.1058154296875,0.169091796875],[-0.11375,0.1915087890625],[-0.1172900390625,0.200595703125],[-0.119912109375,0.20810546875],[-0.121484375,0.2105322265625],[-0.121484375,0.2120361328125],[-0.121484375,0.2120361328125],[-0.121484375,0.212333984375],[-0.121484375,0.212333984375],[-0.121484375,0.21263671875]]]",1,[21],,,,,,,,,,,,,,forestpath10.jpg,space,1.460805,0,55,55,43,1,exerciseequipment5.jpg,dugout2.jpg,foodcourt.jpg,diningroom3.jpg,,
Image_List_2,,,,,,,,,,,,,,,,44607,2020-11-24_13h00.00.763,analogCatScenes,2020.1.3,MacIntel,60,"[1280,800]","[[[0.002861328125,-0.1996533203125],[0.002861328125,-0.1996533203125],[0.002861328125,-0.1996533203125],[0.002861328125,-0.1996533203125],[0.002861328125,-0.1996533203125],[0.002861328125,-0.1996533203125],[0.002861328125,-0.1996533203125],[0.002861328125,-0.1996533203125],[-0.0017236328125,-0.19595703125],[-0.0283251953125,-0.1748486328125],[-0.09001953125,-0.1225634765625],[-0.16322265625,-0.05517578125],[-0.2193408203125,-0.00056640625],[-0.2641064453125,0.04193359375],[-0.3102099609375,0.0878369140625],[-0.331904296875,0.1085107421875]]]",1,[16],,,,,,,,,,,,,,pavilion5.jpg,space,1.32871,0,56,56,71,1,metroInside2.jpg,metroInside3.jpg,museum3.jpg,jewelrystore.jpg,,
Image_List_2,,,,,,,,,,,,,,,,44607,2020-11-24_13h00.00.763,analogCatScenes,2020.1.3,MacIntel,60,"[1280,800]","[[[-0.003544921875,-0.1994189453125],[-0.003544921875,-0.1994189453125],[-0.003544921875,-0.1994189453125],[-0.003544921875,-0.1994189453125],[-0.003544921875,-0.1994189453125],[-0.003544921875,-0.1994189453125],[-0.003544921875,-0.1979052734375],[-0.00439453125,-0.17984375],[-0.0120458984375,-0.1143896484375],[-0.01765625,-0.0213720703125],[-0.01765625,0.108203125],[-0.01765625,0.1924609375],[-0.01765625,0.2444775390625],[-0.01765625,0.2737060546875],[-0.01857421875,0.2924853515625],[-0.02310546875,0.3079296875],[-0.025400390625,0.312041015625],[-0.02689453125,0.3139208984375],[-0.0276123046875,0.3149658203125],[-0.0276123046875,0.31529296875],[-0.0276123046875,0.31529296875],[-0.0276123046875,0.31529296875],[-0.0276123046875,0.3155908203125],[-0.0276123046875,0.31630859375]]]",1,[24],,,,,,,,,,,,,,parkinglot2.jpg,space,1.58102,0,57,57,69,1,liquorstore8.jpg,livingroom.jpg,metroInside1.jpg,icecream2.jpg,,
Image_List_2,,,,,,,,,,,,,,,,44607,2020-11-24_13h00.00.763,analogCatScenes,2020.1.3,MacIntel,60,"[1280,800]","[[[-0.00068359375,-0.19234375],[-0.00068359375,-0.19234375],[-0.00068359375,-0.19234375],[-0.00068359375,-0.19234375],[-0.00068359375,-0.19234375],[-0.00068359375,-0.19234375],[-0.00068359375,-0.1908740234375],[-0.00068359375,-0.1862158203125],[-0.00068359375,-0.17064453125],[-0.00068359375,-0.1328466796875],[-0.00068359375,-0.0805322265625],[-0.00068359375,0.004384765625],[-0.00068359375,0.0289892578125],[-0.00068359375,0.05078125],[-0.00068359375,0.067333984375],[-0.0011474609375,0.0741748046875],[-0.00193359375,0.07658203125],[-0.0025830078125,0.0772314453125]]]",1,[18],,,,,,,,,,,,,,apartmentBuilding1.jpg,space,2.445965,0,58,58,1,1,airportTerminal4.jpg,applestore1.jpg,airportTerminal3.jpg,airportTerminal2.jpg,,
Image_List_2,,,,,,,,,,,,,,,,44607,2020-11-24_13h00.00.763,analogCatScenes,2020.1.3,MacIntel,60,"[1280,800]","[[[0.0053955078125,-0.197646484375],[0.0053955078125,-0.197646484375],[0.0053955078125,-0.197646484375],[0.0053955078125,-0.197646484375],[0.0016552734375,-0.1923681640625],[-0.025693359375,-0.159873046875],[-0.1065283203125,-0.066171875],[-0.164189453125,-0.00181640625],[-0.2129248046875,0.0473046875],[-0.2456884765625,0.0794921875],[-0.2650390625,0.0975048828125],[-0.2765625,0.1086376953125],[-0.283671875,0.1163818359375],[-0.2876171875,0.1208154296875],[-0.2876171875,0.1218505859375]]]",1,[15],,,,,,,,,,,,,,sculpturegarden1.jpg,space,1.481485,0,59,59,83,1,readingroom1.jpg,promenadeDeck6.jpg,restaurant8.jpg,readingroom2.jpg,,
Image_List_2,,,,,,,,,,,,,,,,44607,2020-11-24_13h00.00.763,analogCatScenes,2020.1.3,MacIntel,60,"[1280,800]","[[[0.00447265625,-0.19919921875],[0.00447265625,-0.19919921875],[0.00447265625,-0.19919921875],[0.00447265625,-0.19919921875],[0.00447265625,-0.19919921875],[0.0038525390625,-0.1973486328125],[-0.010283203125,-0.1748291015625],[-0.036455078125,-0.135078125],[-0.073203125,-0.086630859375],[-0.1073046875,-0.0422900390625],[-0.1266796875,-0.01552734375],[-0.1448876953125,0.0126953125],[-0.1518994140625,0.0264697265625],[-0.157939453125,0.036328125],[-0.162470703125,0.0442578125],[-0.164453125,0.0470654296875],[-0.164453125,0.047392578125],[-0.164453125,0.047392578125],[-0.164453125,0.047392578125]]]",1,[19],,,,,,,,,,,,,,campsite6.jpg,space,1.397005,0,60,60,17,1,bikerack1.jpg,breakroom4.jpg,carmechanic.jpg,baseball6.jpg,,
Image_List_2,,,,,,,,,,,,,,,,44607,2020-11-24_13h00.00.763,analogCatScenes,2020.1.3,MacIntel,60,"[1280,800]","[[[-0.0055419921875,-0.2028759765625],[-0.0055419921875,-0.2028759765625],[-0.0055419921875,-0.2028759765625],[-0.0055419921875,-0.2028759765625],[-0.0055419921875,-0.2028759765625],[-0.0055419921875,-0.2028759765625],[-0.0061328125,-0.2028759765625],[-0.0234326171875,-0.19017578125],[-0.0714599609375,-0.1445458984375],[-0.109755859375,-0.104345703125],[-0.1462109375,-0.0648583984375],[-0.18482421875,-0.024130859375],[-0.2018212890625,-0.0077685546875],[-0.21220703125,0.0018408203125],[-0.2196044921875,0.00810546875],[-0.22216796875,0.010205078125],[-0.2224951171875,0.0105322265625],[-0.2224951171875,0.0105322265625],[-0.2224951171875,0.0105322265625],[-0.2222021484375,0.0105322265625]]]",1,[20],,,,,,,,,,,,,,breakroom5.jpg,space,1.29404,0,61,61,14,1,ballroom1.jpg,bistrooutdoor5.jpg,botanicalGarden5.jpg,ballroom3.jpg,,
Image_List_2,,,,,,,,,,,,,,,,44607,2020-11-24_13h00.00.763,analogCatScenes,2020.1.3,MacIntel,60,"[1280,800]","[[[0.0069091796875,-0.199912109375],[0.0069091796875,-0.199912109375],[0.0069091796875,-0.199912109375],[0.0069091796875,-0.199912109375],[0.0069091796875,-0.199912109375],[0.0069091796875,-0.198388671875],[0.0179150390625,-0.1723876953125],[0.0866259765625,-0.054853515625],[0.1581201171875,0.0433447265625],[0.2068115234375,0.1041357421875],[0.2399169921875,0.1439990234375],[0.259150390625,0.1673974609375],[0.2690966796875,0.1812451171875],[0.274892578125,0.189453125],[0.2761279296875,0.19232421875],[0.2761279296875,0.1926513671875],[0.2761279296875,0.1936767578125],[0.275361328125,0.195546875],[0.2734375,0.20314453125]]]",1,[19],,,,,,,,,,,,,,casino3.jpg,space,2.39681,0,62,62,19,1,boardwalk2.jpg,cafeteria1.jpg,castle4.jpg,basketballcourt.jpg,,
Image_List_2,,,,,,,,,,,,,,,,44607,2020-11-24_13h00.00.763,analogCatScenes,2020.1.3,MacIntel,60,"[1280,800]","[[[0.0053564453125,-0.1934130859375],[0.0053564453125,-0.1934130859375],[0.0053564453125,-0.1934130859375],[0.0053564453125,-0.1934130859375],[0.0053564453125,-0.1934130859375],[0.0053564453125,-0.1931201171875],[0.0053564453125,-0.1831787109375],[0.0030517578125,-0.1382568359375],[-0.002958984375,-0.0691552734375],[-0.0044091796875,-0.00169921875],[-0.00935546875,0.05775390625],[-0.0204248046875,0.1244287109375],[-0.0292431640625,0.1532568359375],[-0.0385986328125,0.1796240234375],[-0.042236328125,0.1898681640625],[-0.04556640625,0.1975537109375],[-0.0469580078125,0.2021728515625],[-0.047744140625,0.2045263671875],[-0.048427734375,0.20673828125],[-0.0487548828125,0.2070654296875],[-0.0487548828125,0.2070654296875]]]",1,[21],,,,,,,,,,,,,,park7.jpg,space,1.42838,0,63,63,67,1,library_aisle3.jpg,laundromat4.jpg,liquorstore2.jpg,hospitalroom2.jpg,,
Image_List_2,,,,,,,,,,,,,,,,44607,2020-11-24_13h00.00.763,analogCatScenes,2020.1.3,MacIntel,60,"[1280,800]","[[[-0.0033984375,-0.2050146484375],[-0.0033984375,-0.2050146484375],[-0.0033984375,-0.2050146484375],[-0.0033984375,-0.2050146484375],[-0.0033984375,-0.202412109375],[-0.009423828125,-0.1820654296875],[-0.0240576171875,-0.1439990234375],[-0.0607958984375,-0.056484375],[-0.102265625,0.0464013671875],[-0.157275390625,0.1754150390625],[-0.16388671875,0.1924072265625],[-0.1900439453125,0.2549658203125],[-0.2003369140625,0.281396484375],[-0.205419921875,0.2994921875],[-0.2066259765625,0.3072119140625],[-0.2081201171875,0.3131689453125],[-0.208515625,0.3160546875],[-0.208515625,0.3167724609375],[-0.208515625,0.3167724609375]]]",1,[19],,,,,,,,,,,,,,racecarcourse2.jpg,space,2.28256,0,64,64,80,1,pavilion2.jpg,porch.jpg,poolhall5.jpg,parkinggarage4.jpg,,
Image_List_2,,,,,,,,,,,,,,,,44607,2020-11-24_13h00.00.763,analogCatScenes,2020.1.3,MacIntel,60,"[1280,800]","[[[-0.0087109375,-0.1968115234375],[-0.0087109375,-0.1968115234375],[-0.0087109375,-0.1968115234375],[-0.0087109375,-0.1968115234375],[-0.0087109375,-0.189140625],[-0.0087109375,-0.1641845703125],[-0.0087109375,-0.0905517578125],[-0.0087109375,-0.0264697265625],[-0.0087109375,0.0367431640625],[-0.0087109375,0.05498046875],[-0.0087109375,0.0839111328125],[-0.0087109375,0.0957421875],[-0.0087109375,0.09876953125],[-0.0087109375,0.0994873046875],[-0.0087109375,0.0994873046875],[-0.0087109375,0.0994873046875],[-0.010546875,0.1006005859375]]]",1,[17],,,,,,,,,,,,,,courtroom3.jpg,space,1.48139,0,65,65,27,1,castle3.jpg,churchInside4.jpg,closet.jpg,brewery2.jpg,,
Image_List_2,,,,,,,,,,,,,,,,44607,2020-11-24_13h00.00.763,analogCatScenes,2020.1.3,MacIntel,60,"[1280,800]","[[[0.0066455078125,-0.2057666015625],[0.0066455078125,-0.2057666015625],[0.0066455078125,-0.2057666015625],[0.0066455078125,-0.2057666015625],[0.0066455078125,-0.20517578125],[0.0066455078125,-0.195234375],[0.0066455078125,-0.16376953125],[0.0066455078125,-0.08609375],[0.0066455078125,-0.0340771484375],[0.0066455078125,0.010107421875],[0.0066455078125,0.0619873046875],[0.0066455078125,0.0864013671875],[0.0066455078125,0.11353515625],[0.0066455078125,0.1390087890625],[0.0066455078125,0.152744140625],[0.0066455078125,0.1636328125],[0.00609375,0.170341796875],[0.00609375,0.175029296875],[0.00609375,0.1779150390625],[0.00609375,0.178564453125],[0.00609375,0.178564453125],[0.00609375,0.178564453125],[0.0054931640625,0.178564453125]]]",1,[23],,,,,,,,,,,,,,dock3.jpg,space,1.36536,0,66,66,35,1,deck5.jpg,cubicle7.jpg,dining_car6.jpg,carmechanic2.jpg,,
Image_List_2,,,,,,,,,,,,,,,,44607,2020-11-24_13h00.00.763,analogCatScenes,2020.1.3,MacIntel,60,"[1280,800]","[[[0.00701171875,-0.204921875],[0.00701171875,-0.204921875],[0.00701171875,-0.204921875],[0.00701171875,-0.204921875],[0.00701171875,-0.204921875],[0.00701171875,-0.204921875],[0.00701171875,-0.204921875],[0.00701171875,-0.204921875],[0.00701171875,-0.19888671875],[0.0036572265625,-0.1325390625],[-0.0046484375,-0.0115869140625],[-0.0097412109375,0.1240966796875],[-0.0097412109375,0.1649853515625],[-0.0097412109375,0.2019775390625],[-0.0097412109375,0.2204052734375],[-0.0097412109375,0.2333154296875],[-0.0110107421875,0.237451171875],[-0.0110107421875,0.2381689453125],[-0.0110107421875,0.2381689453125],[-0.0110107421875,0.2381689453125],[-0.0110107421875,0.2381689453125],[-0.0110107421875,0.2381689453125]],[[0.0018701171875,-0.20283203125],[0.0018701171875,-0.20283203125],[0.0018701171875,-0.20283203125],[0.0018701171875,-0.20283203125],[0.0018701171875,-0.20283203125],[0.0018701171875,-0.2019384765625],[0.0025537109375,-0.1840966796875],[0.0231396484375,-0.134296875],[0.063046875,-0.0572119140625],[0.133310546875,0.052294921875],[0.190576171875,0.1344287109375],[0.2543212890625,0.22791015625],[0.2813134765625,0.2709228515625],[0.2879443359375,0.2840966796875],[0.3011572265625,0.3053466796875],[0.3058154296875,0.3135693359375],[0.3061328125,0.313896484375],[0.3061328125,0.313896484375],[0.305771484375,0.3149169921875]],[[-0.0008935546875,-0.18765625],[-0.0008935546875,-0.18765625],[-0.0008935546875,-0.18765625],[-0.0008935546875,-0.18765625],[-0.0008935546875,-0.18765625],[-0.0008935546875,-0.18765625],[-0.003671875,-0.1853759765625],[-0.0216015625,-0.170791015625],[-0.078359375,-0.1275048828125],[-0.1559130859375,-0.0659130859375],[-0.25830078125,0.0213525390625],[-0.318193359375,0.0720068359375],[-0.3369775390625,0.0868505859375]]]",3,"[22,19,13]",,,,,,,,,,,,,,sandDunes_desert_outdoor9.jpg,space,3.74887,0,67,67,82,1,publicrestroom2.jpg,promenadeDeck3.jpg,readingroom4.jpg,postoffice4.jpg,,
Image_List_2,,,,,,,,,,,,,,,,44607,2020-11-24_13h00.00.763,analogCatScenes,2020.1.3,MacIntel,60,"[1280,800]","[[[-0.0082373046875,-0.203408203125],[-0.0082373046875,-0.203408203125],[-0.0082373046875,-0.203408203125],[-0.0082373046875,-0.203408203125],[-0.0082373046875,-0.203408203125],[-0.0082373046875,-0.203408203125],[-0.0082373046875,-0.203408203125],[-0.0082373046875,-0.1988671875],[-0.0104736328125,-0.1578369140625],[-0.0167431640625,-0.0755029296875],[-0.020283203125,0.063134765625],[-0.021767578125,0.1610400390625],[-0.021767578125,0.210830078125],[-0.023955078125,0.2433251953125],[-0.023955078125,0.264345703125],[-0.025927734375,0.2779443359375],[-0.0264599609375,0.2846435546875],[-0.027177734375,0.286181640625],[-0.0278955078125,0.2876171875],[-0.0285498046875,0.2879443359375]]]",1,[20],,,,,,,,,,,,,,metroInside4.jpg,space,1.71388,0,68,68,61,1,HorseRaceTrack.jpg,homegarden6.jpg,kindergarten_classroom7.jpg,hayfield6.jpg,,
Image_List_2,,,,,,,,,,,,,,,,44607,2020-11-24_13h00.00.763,analogCatScenes,2020.1.3,MacIntel,60,"[1280,800]","[[[0.0015673828125,-0.1962255859375],[0.0015673828125,-0.1962255859375],[0.0015673828125,-0.1962255859375],[0.0015673828125,-0.1962255859375],[0.0015673828125,-0.1962255859375],[0.0015673828125,-0.195634765625],[-0.00482421875,-0.18517578125],[-0.021279296875,-0.1607958984375],[-0.0517626953125,-0.1154638671875],[-0.087177734375,-0.05216796875],[-0.1060205078125,-0.01169921875],[-0.1186376953125,0.020478515625],[-0.1301123046875,0.049306640625],[-0.1356201171875,0.06529296875],[-0.1387109375,0.0727099609375],[-0.1394970703125,0.0746044921875],[-0.13982421875,0.0746044921875],[-0.13982421875,0.0746044921875]]]",1,[18],,,,,,,,,,,,,,deck2.jpg,space,1.32824,0,69,69,29,1,cornfield2.jpg,cliff2.jpg,constructionSite4.jpg,bridalboutique3.jpg,,
