image_list,key_resp_intructions.keys,key_resp_intructions.rt,key_resp_intructions_3.keys,key_resp_intructions_3.rt,PracticeComplete_2.keys,PracticeComplete_2.rt,PracticeComplete_3.keys,PracticeComplete_3.rt,demo_trials.thisRepN,demo_trials.thisTrialN,demo_trials.thisN,demo_trials.thisIndex,demo_trials.ran,demo_images,path_images,participant,date,expName,psychopyVersion,OS,frameRate,windowSize,drawing,numDrawings,drawingSizes,practice_complete.keys,practice_complete.rt,PracticeComplete.keys,PracticeComplete.rt,practice_trials.thisRepN,practice_trials.thisTrialN,practice_trials.thisN,practice_trials.thisIndex,practice_trials.ran,practice_images,feedback_images,key_resp_intructions_2.keys,key_resp_intructions_2.rt,Image_List_4,trial_complete.keys,trial_complete.rt,trials.thisRepN,trials.thisTrialN,trials.thisN,trials.thisIndex,trials.ran,Image_List_1,Image_List_2,Image_List_3,Image_List_5,key_resp.keys,key_resp.rt
Image_List_4,space,1.897905,space,0.660875,space,1.15862,space,1.020485,0,0,0,4,1,left.jpg,left_path.jpg,44614,2020-11-24_20h26.32.131,analogCatScenes,2020.1.3,MacIntel,60,,,,,,,,,,,,,,,,,,,,,,,,,,,,,,,
Image_List_4,,,,,space,0.59176,space,0.458305,0,1,1,0,1,ahead.jpg,ahead_path.jpg,44614,2020-11-24_20h26.32.131,analogCatScenes,2020.1.3,MacIntel,60,,,,,,,,,,,,,,,,,,,,,,,,,,,,,,,
Image_List_4,,,,,space,0.41757,space,1.48713,0,2,2,2,1,ahead_right.jpg,ahead_right_path.jpg,44614,2020-11-24_20h26.32.131,analogCatScenes,2020.1.3,MacIntel,60,,,,,,,,,,,,,,,,,,,,,,,,,,,,,,,
Image_List_4,,,,,space,0.626975,space,0.95714,0,3,3,3,1,ahead_right_left.jpg,ahead_right_left_path.jpg,44614,2020-11-24_20h26.32.131,analogCatScenes,2020.1.3,MacIntel,60,,,,,,,,,,,,,,,,,,,,,,,,,,,,,,,
Image_List_4,,,,,space,0.530155,space,0.530585,0,4,4,5,1,right.jpg,right_path.jpg,44614,2020-11-24_20h26.32.131,analogCatScenes,2020.1.3,MacIntel,60,,,,,,,,,,,,,,,,,,,,,,,,,,,,,,,
Image_List_4,,,,,space,0.4494,space,0.362665,0,5,5,1,1,ahead_left.jpg,ahead_left_path.jpg,44614,2020-11-24_20h26.32.131,analogCatScenes,2020.1.3,MacIntel,60,,,,,,,,,,,,,,,,,,,,,,,,,,,,,,,
Image_List_4,,,,,space,0.43504,space,0.50236,0,6,6,6,1,right_left.jpg,right_left_path.jpg,44614,2020-11-24_20h26.32.131,analogCatScenes,2020.1.3,MacIntel,60,,,,,,,,,,,,,,,,,,,,,,,,,,,,,,,
Image_List_4,,,,,,,,,,,,,,,,44614,2020-11-24_20h26.32.131,analogCatScenes,2020.1.3,MacIntel,60,"[1440,900]",[],0,[],space,0.40415,space,0.479875,0,0,0,1,1,ahead_left_2.jpg,ahead_left_2_path.jpg,,,,,,,,,,,,,,,,
Image_List_4,,,,,,,,,,,,,,,,44614,2020-11-24_20h26.32.131,analogCatScenes,2020.1.3,MacIntel,60,"[1440,900]",[],0,[],space,0.462425,space,0.532845,0,1,1,6,1,right_left_2.jpg,right_left_2_path.jpg,,,,,,,,,,,,,,,,
Image_List_4,,,,,,,,,,,,,,,,44614,2020-11-24_20h26.32.131,analogCatScenes,2020.1.3,MacIntel,60,"[1440,900]",[],0,[],space,0.42947,space,0.326385,0,2,2,4,1,left_2.jpg,left_2_path.jpg,,,,,,,,,,,,,,,,
Image_List_4,,,,,,,,,,,,,,,,44614,2020-11-24_20h26.32.131,analogCatScenes,2020.1.3,MacIntel,60,"[1440,900]","[[[0.0022612847222222223,-0.19993489583333332],[0.0022612847222222223,-0.19993489583333332],[0.0022612847222222223,-0.19993489583333332],[0.0022612847222222223,-0.19993489583333332],[0.0022612847222222223,-0.19993489583333332],[0.0022612847222222223,-0.19993489583333332],[0.0022612847222222223,-0.19940972222222222],[0.0022612847222222223,-0.1973263888888889],[0.0022612847222222223,-0.1937934027777778],[0.0022612847222222223,-0.1895659722222222],[0.0009635416666666667,-0.18421006944444446],[-0.00004774305555555556,-0.17609375],[-0.0011197916666666667,-0.16647569444444443],[-0.0027994791666666667,-0.1496831597222222],[-0.0033550347222222224,-0.1384765625],[-0.003927951388888889,-0.13012586805555557],[-0.003927951388888889,-0.11771267361111111],[-0.003927951388888889,-0.11163194444444445],[-0.003927951388888889,-0.10504340277777778],[-0.003927951388888889,-0.09974826388888888],[-0.0047395833333333335,-0.0956640625],[-0.0047395833333333335,-0.0920920138888889],[-0.0047395833333333335,-0.08952690972222223],[-0.0047395833333333335,-0.08786024305555555],[-0.005060763888888889,-0.08658854166666667],[-0.005347222222222222,-0.08629774305555556],[-0.005638020833333333,-0.08600694444444444],[-0.006501736111111111,-0.08600694444444444],[-0.0077734375,-0.08600694444444444],[-0.009045138888888889,-0.08600694444444444],[-0.0093359375,-0.08629340277777778]]]",1,[31],space,2.461025,space,1.846265,0,3,3,2,1,ahead_right_2.jpg,ahead_right_2_path.jpg,,,,,,,,,,,,,,,,
Image_List_4,,,,,,,,,,,,,,,,44614,2020-11-24_20h26.32.131,analogCatScenes,2020.1.3,MacIntel,60,"[1440,900]","[[[0.0003862847222222222,-0.21133680555555556],[0.0003862847222222222,-0.21133680555555556],[0.0003862847222222222,-0.21133680555555556],[0.0003862847222222222,-0.21133680555555556],[0.0003862847222222222,-0.21133680555555556],[0.0003862847222222222,-0.21133680555555556],[0.0003862847222222222,-0.21133680555555556],[0.0003862847222222222,-0.21133680555555556],[0.0003862847222222222,-0.21133680555555556],[0.0003862847222222222,-0.21133680555555556],[0.0003862847222222222,-0.21133680555555556],[0.0003862847222222222,-0.21133680555555556],[0.0003862847222222222,-0.21133680555555556],[0.0003862847222222222,-0.21107638888888888],[0.0003862847222222222,-0.21051649305555556],[0.0003862847222222222,-0.20987847222222222],[0.0003862847222222222,-0.2093185763888889],[0.0003862847222222222,-0.2090451388888889],[0.0003862847222222222,-0.20875434027777778],[0.0003862847222222222,-0.20817708333333335],[0.0003862847222222222,-0.20817708333333335],[0.0003862847222222222,-0.20817708333333335],[0.0003862847222222222,-0.20817708333333335],[0.0003862847222222222,-0.20817708333333335],[0.0003862847222222222,-0.20817708333333335],[0.0003862847222222222,-0.20817708333333335],[0.0003862847222222222,-0.20817708333333335],[0.0003862847222222222,-0.20817708333333335],[0.0003862847222222222,-0.20817708333333335],[0.0003862847222222222,-0.20817708333333335],[0.0003862847222222222,-0.20817708333333335],[0.0003862847222222222,-0.20817708333333335],[0.0003862847222222222,-0.20817708333333335],[0.0003862847222222222,-0.20817708333333335],[0.0003862847222222222,-0.20817708333333335],[0.0003862847222222222,-0.20766059027777778],[0.0006684027777777777,-0.20736979166666666],[0.0012717013888888888,-0.2064409722222222],[0.0022222222222222222,-0.20516493055555557],[0.0034895833333333333,-0.2038888888888889],[0.0048177083333333336,-0.2022048611111111],[0.007717013888888889,-0.19885416666666667],[0.010833333333333334,-0.1939670138888889],[0.014704861111111111,-0.1876605902777778],[0.01919704861111111,-0.18016927083333334],[0.02437934027777778,-0.17236979166666666],[0.03009548611111111,-0.16510416666666666],[0.03613715277777778,-0.156328125],[0.04415364583333333,-0.14656684027777778],[0.052395833333333336,-0.13596354166666666],[0.062204861111111114,-0.12495659722222222],[0.0716970486111111,-0.11545572916666667],[0.0853125,-0.10467881944444445],[0.09303385416666667,-0.10003472222222222],[0.09731770833333334,-0.09747829861111111],[0.10342881944444444,-0.09416666666666666],[0.10871527777777777,-0.09151909722222222],[0.11400173611111111,-0.08974826388888889],[0.11869357638888889,-0.08803819444444444],[0.12278645833333333,-0.08680121527777777],[0.1263454861111111,-0.08601128472222222],[0.12890190972222224,-0.08527777777777777],[0.13098524305555556,-0.08527777777777777],[0.13225260416666668,-0.08495659722222222],[0.1335199652777778,-0.08495659722222222],[0.1347829861111111,-0.08495659722222222],[0.135703125,-0.08495659722222222],[0.13627604166666665,-0.08495659722222222],[0.13684895833333333,-0.08495659722222222],[0.13684895833333333,-0.08468315972222222]],[[0.0011067708333333333,-0.1929730902777778],[0.0011067708333333333,-0.1929730902777778],[0.0011067708333333333,-0.1929730902777778],[0.0011067708333333333,-0.1929730902777778],[0.0011067708333333333,-0.1929730902777778],[0.0011067708333333333,-0.1929730902777778],[-0.0001996527777777778,-0.19262152777777777],[-0.00765625,-0.18969184027777777],[-0.02622829861111111,-0.18269097222222222],[-0.056024305555555556,-0.1702734375],[-0.08272569444444444,-0.1578168402777778],[-0.10171440972222222,-0.1486328125],[-0.1227517361111111,-0.13993489583333332],[-0.13084635416666668,-0.1384027777777778],[-0.1398046875,-0.13726996527777777],[-0.14858940972222223,-0.136796875],[-0.15687065972222222,-0.13588541666666668],[-0.16102864583333334,-0.13544270833333333],[-0.16697048611111112,-0.13452690972222223],[-0.16961805555555556,-0.13452690972222223],[-0.17878038194444446,-0.1331640625],[-0.18293836805555555,-0.13272135416666667],[-0.18821614583333332,-0.13227864583333335],[-0.19224826388888888,-0.13227864583333335],[-0.19581597222222222,-0.13227864583333335],[-0.19883680555555555,-0.13227864583333335],[-0.20182725694444445,-0.13339409722222223],[-0.20391927083333333,-0.1344357638888889],[-0.20600694444444445,-0.13512586805555554],[-0.2076779513888889,-0.1361284722222222],[-0.20825520833333333,-0.13669704861111112],[-0.20854600694444445,-0.137265625],[-0.20854600694444445,-0.137265625],[-0.20854600694444445,-0.137265625],[-0.20854600694444445,-0.137265625],[-0.20854600694444445,-0.137265625],[-0.20854600694444445,-0.137265625],[-0.20854600694444445,-0.137265625],[-0.20854600694444445,-0.137265625],[-0.20854600694444445,-0.137265625],[-0.20854600694444445,-0.137265625],[-0.20854600694444445,-0.137265625],[-0.20854600694444445,-0.137265625],[-0.20854600694444445,-0.137265625]],[[-0.0025260416666666665,-0.20012586805555554],[-0.0025260416666666665,-0.20012586805555554],[-0.0025260416666666665,-0.20012586805555554],[-0.0025260416666666665,-0.20012586805555554],[-0.0025260416666666665,-0.20012586805555554],[-0.0025260416666666665,-0.20012586805555554],[-0.0025260416666666665,-0.20012586805555554],[-0.0025260416666666665,-0.20012586805555554],[-0.0025260416666666665,-0.20012586805555554],[-0.0025260416666666665,-0.20012586805555554],[-0.0025260416666666665,-0.20012586805555554],[-0.0025260416666666665,-0.19853732638888888],[-0.0025260416666666665,-0.19001736111111112],[-0.0025260416666666665,-0.18330295138888889],[-0.0025260416666666665,-0.17294270833333333],[-0.0025260416666666665,-0.1633984375],[-0.0025260416666666665,-0.1547439236111111],[-0.0010503472222222223,-0.14771267361111112],[0.00045138888888888887,-0.13965711805555556],[0.0031727430555555554,-0.12443576388888888],[0.005368923611111111,-0.11397569444444444],[0.006875,-0.10651909722222222],[0.007838541666666667,-0.09924479166666667],[0.008272569444444445,-0.09457465277777778],[0.008272569444444445,-0.09100260416666667],[0.008272569444444445,-0.08796440972222222],[0.008272569444444445,-0.08587239583333334],[0.008272569444444445,-0.08378038194444444],[0.008619791666666666,-0.08168836805555556],[0.009344618055555556,-0.07912326388888889],[0.010069444444444445,-0.07655815972222223],[0.011171875,-0.07399305555555556],[0.012239583333333333,-0.0714453125],[0.012934027777777777,-0.06935329861111111],[0.013598090277777778,-0.06766927083333334],[0.013914930555555555,-0.06639322916666666],[0.013914930555555555,-0.06575520833333333],[0.013914930555555555,-0.06548177083333333],[0.013914930555555555,-0.06548177083333333],[0.013914930555555555,-0.06548177083333333],[0.013914930555555555,-0.06548177083333333],[0.013914930555555555,-0.06548177083333333],[0.01365451388888889,-0.06548177083333333]]]",3,"[70,44,43]",space,5.715545,space,0.61524,0,4,4,3,1,ahead_right_left_2.jpg,ahead_right_left_2_path.jpg,,,,,,,,,,,,,,,,
Image_List_4,,,,,,,,,,,,,,,,44614,2020-11-24_20h26.32.131,analogCatScenes,2020.1.3,MacIntel,60,"[1440,900]","[[[0.0016102430555555555,-0.20672743055555556],[0.0016102430555555555,-0.20672743055555556],[0.0016102430555555555,-0.20672743055555556],[0.0016102430555555555,-0.20646701388888888],[0.0033029513888888887,-0.20231770833333335],[0.010572916666666666,-0.18942708333333333],[0.02140625,-0.16928819444444446],[0.035620659722222225,-0.14479166666666668],[0.054348958333333336,-0.11269965277777778],[0.0723220486111111,-0.08351996527777777],[0.08353732638888889,-0.06803385416666667],[0.09319010416666666,-0.05451822916666667],[0.10110243055555555,-0.046063368055555554],[0.10504774305555556,-0.04252170138888889],[0.10951822916666666,-0.038515625],[0.11358940972222223,-0.036471354166666664],[0.1166015625,-0.0349609375],[0.11962239583333334,-0.03382378472222222],[0.12261284722222222,-0.03306857638888889],[0.12516493055555555,-0.03268663194444445],[0.1268359375,-0.03268663194444445],[0.1299609375,-0.03268663194444445],[0.13058159722222223,-0.03268663194444445],[0.13266493055555556,-0.03268663194444445],[0.1371875,-0.03268663194444445],[0.1413454861111111,-0.03268663194444445],[0.14727864583333333,-0.03268663194444445],[0.15208333333333332,-0.03268663194444445],[0.15735243055555556,-0.03268663194444445],[0.16328559027777778,-0.03268663194444445],[0.16797743055555556,-0.03268663194444445],[0.17326388888888888,-0.032243923611111114],[0.17795572916666666,-0.0309765625],[0.1820269097222222,-0.02974392361111111],[0.18667100694444444,-0.028485243055555557],[0.19022135416666666,-0.026905381944444445],[0.19389322916666665,-0.024856770833333333],[0.19690972222222222,-0.023342013888888888],[0.198984375,-0.022296006944444443],[0.20065538194444443,-0.021280381944444444],[0.20122395833333334,-0.02099392361111111],[0.20151041666666666,-0.020416666666666666],[0.20151041666666666,-0.0194921875]]]",1,[43],space,2.541205,space,0.9464,0,5,5,5,1,right_2.jpg,right_2_path.jpg,,,,,,,,,,,,,,,,
Image_List_4,,,,,,,,,,,,,,,,44614,2020-11-24_20h26.32.131,analogCatScenes,2020.1.3,MacIntel,60,"[1440,900]","[[[0.004036458333333334,-0.19953993055555555],[0.004036458333333334,-0.19953993055555555],[0.004036458333333334,-0.19953993055555555],[0.004036458333333334,-0.1987326388888889],[0.004036458333333334,-0.19516927083333332],[0.004036458333333334,-0.18775173611111112],[0.004036458333333334,-0.17166666666666666],[0.004036458333333334,-0.13385850694444446],[0.004036458333333334,-0.09184895833333333],[0.004743923611111111,-0.05712239583333333],[0.006328125,-0.028016493055555557],[0.007951388888888888,0.0012977430555555555],[0.008702256944444445,0.0217578125],[0.008702256944444445,0.036631944444444446],[0.008702256944444445,0.04859375],[0.008702256944444445,0.06736111111111111],[0.009140625,0.07547743055555556],[0.010520833333333333,0.08212239583333333],[0.012096354166666667,0.08569444444444445],[0.013363715277777778,0.08665364583333333],[0.016046006944444444,0.08811631944444444],[0.016046006944444444,0.08811631944444444]]]",1,[22],space,1.85954,space,0.792455,0,6,6,0,1,ahead_2.jpg,ahead_2_path.jpg,,,,,,,,,,,,,,,,
Image_List_4,,,,,,,,,,,,,,,,44614,2020-11-24_20h26.32.131,analogCatScenes,2020.1.3,MacIntel,60,"[1440,900]","[[[0.000546875,-0.19567274305555554],[0.000546875,-0.19567274305555554],[0.000546875,-0.19567274305555554],[0.000546875,-0.19567274305555554],[0.000546875,-0.19354600694444443],[0.000546875,-0.18825086805555555],[0.000546875,-0.1794140625],[-0.00002170138888888889,-0.16811631944444444],[-0.0021875,-0.14824652777777778],[-0.0021875,-0.1356814236111111],[-0.0021875,-0.11985677083333333],[-0.0021875,-0.10692708333333334],[-0.0021875,-0.10032986111111111],[-0.0021875,-0.09302951388888889],[-0.0021875,-0.0876953125],[-0.0021875,-0.08361545138888889],[-0.0021875,-0.08004340277777777],[-0.0021875,-0.07747829861111111],[-0.0021875,-0.07532552083333334],[-0.0025043402777777776,-0.0730078125],[-0.0037803819444444443,-0.0720486111111111],[-0.005464409722222222,-0.0720486111111111],[-0.006740451388888889,-0.0720486111111111]]]",1,[23],,,,,,,,,,,,space,2.732155,churchInside3.jpg,space,1.951815,0,0,0,26,1,campusquad2.jpg,cornfield4.jpg,church4.jpg,botanicalGarden7.jpg,,
Image_List_4,,,,,,,,,,,,,,,,44614,2020-11-24_20h26.32.131,analogCatScenes,2020.1.3,MacIntel,60,"[1440,900]","[[[-0.0035546875,-0.1996527777777778],[-0.0035546875,-0.1996527777777778],[-0.0035546875,-0.1996527777777778],[-0.0035546875,-0.1996527777777778],[-0.0035546875,-0.1996527777777778],[-0.0035546875,-0.1996527777777778],[-0.0035546875,-0.1996527777777778],[-0.0035546875,-0.1996527777777778],[-0.0035546875,-0.1996527777777778],[-0.0035546875,-0.1996527777777778],[-0.0035546875,-0.1996527777777778],[-0.0035546875,-0.1996527777777778],[-0.0022569444444444442,-0.1996527777777778],[0.0002951388888888889,-0.19895833333333332],[0.005768229166666666,-0.19618055555555555],[0.013311631944444444,-0.19164930555555557],[0.024353298611111112,-0.18584201388888888],[0.04271267361111111,-0.17450086805555556],[0.05919270833333334,-0.16350694444444444],[0.07907552083333333,-0.15100694444444446],[0.10242621527777777,-0.1369878472222222],[0.1271875,-0.12260850694444445],[0.15078993055555556,-0.10764756944444444],[0.16565104166666667,-0.09858940972222222],[0.18225260416666667,-0.08821614583333333],[0.18911024305555554,-0.08424479166666667],[0.1952734375,-0.08040364583333333],[0.1983984375,-0.07842447916666667],[0.19963541666666668,-0.07717447916666667],[0.19963541666666668,-0.07624565972222222],[0.19758246527777779,-0.07542100694444444]],[[0.0020486111111111113,-0.19803819444444445],[0.0020486111111111113,-0.19803819444444445],[0.0020486111111111113,-0.19803819444444445],[0.0020486111111111113,-0.19803819444444445],[0.0020486111111111113,-0.19803819444444445],[0.0020486111111111113,-0.19803819444444445],[0.0020486111111111113,-0.19803819444444445],[0.0020486111111111113,-0.19777777777777777],[0.0020486111111111113,-0.19720052083333334],[0.0020486111111111113,-0.19592881944444446],[0.0020486111111111113,-0.19338541666666667],[0.0020486111111111113,-0.18921875],[0.0020486111111111113,-0.18053385416666667],[0.0020486111111111113,-0.1675954861111111],[0.0020486111111111113,-0.14643663194444445],[0.0020486111111111113,-0.1272222222222222],[0.0020486111111111113,-0.11191840277777777],[0.004040798611111111,-0.09480034722222222],[0.005134548611111111,-0.08396701388888889],[0.0073046875,-0.06940972222222222],[0.008207465277777777,-0.06349392361111111],[0.008645833333333333,-0.05880642361111111],[0.009427083333333334,-0.05524305555555555],[0.01017361111111111,-0.052230902777777775],[0.010520833333333333,-0.04966579861111111],[0.01083767361111111,-0.048389756944444445],[0.01083767361111111,-0.04809895833333333],[0.01083767361111111,-0.04809895833333333],[0.01083767361111111,-0.04809895833333333]],[[-0.00046440972222222223,-0.19297743055555555],[-0.00046440972222222223,-0.19297743055555555],[-0.00046440972222222223,-0.19297743055555555],[-0.00046440972222222223,-0.19297743055555555],[-0.00046440972222222223,-0.19297743055555555],[-0.00046440972222222223,-0.19297743055555555],[-0.00046440972222222223,-0.19243055555555555],[-0.00046440972222222223,-0.1918532986111111],[-0.00046440972222222223,-0.1918532986111111],[-0.0007508680555555555,-0.19158420138888888],[-0.0010243055555555556,-0.19158420138888888],[-0.0012977430555555555,-0.19158420138888888],[-0.001875,-0.19100694444444444],[-0.0027994791666666667,-0.1903689236111111],[-0.0037239583333333335,-0.18973524305555556],[-0.005,-0.18877604166666667],[-0.007786458333333334,-0.18598958333333335],[-0.011076388888888889,-0.18352430555555554],[-0.01579861111111111,-0.17832899305555555],[-0.023155381944444445,-0.16987413194444445],[-0.03610243055555556,-0.15484809027777777],[-0.04914496527777778,-0.13973958333333333],[-0.06533854166666667,-0.12279079861111111],[-0.0758984375,-0.11086805555555555],[-0.0958984375,-0.08948784722222222],[-0.10669704861111111,-0.07680989583333334],[-0.11728732638888889,-0.06621527777777778],[-0.12323784722222222,-0.06124131944444444],[-0.12959635416666668,-0.056831597222222224],[-0.134453125,-0.053728298611111114],[-0.13749131944444445,-0.05258680555555555],[-0.13964409722222224,-0.05188802083333333],[-0.14173177083333333,-0.05084201388888889],[-0.14266059027777778,-0.050551215277777777],[-0.1429470486111111,-0.050551215277777777],[-0.1429470486111111,-0.050551215277777777],[-0.1429470486111111,-0.050551215277777777],[-0.1429470486111111,-0.05081163194444444],[-0.1429470486111111,-0.05081163194444444]]]",3,"[31,29,39]",,,,,,,,,,,,,,sandDunes_desert_outdoor3.jpg,space,5.164975,0,1,1,85,1,recordingstudio4.jpg,sidewalk5.jpg,ruralroad2.jpg,rooftop3.jpg,,
Image_List_4,,,,,,,,,,,,,,,,44614,2020-11-24_20h26.32.131,analogCatScenes,2020.1.3,MacIntel,60,"[1440,900]","[[[0.00024305555555555555,-0.19694010416666666],[0.00024305555555555555,-0.19694010416666666],[0.00024305555555555555,-0.19694010416666666],[0.00024305555555555555,-0.19694010416666666],[0.00024305555555555555,-0.19694010416666666],[0.00024305555555555555,-0.19694010416666666],[0.00024305555555555555,-0.19694010416666666],[0.00024305555555555555,-0.19694010416666666],[0.00024305555555555555,-0.19694010416666666],[0.00024305555555555555,-0.19694010416666666],[0.00024305555555555555,-0.19694010416666666],[0.00024305555555555555,-0.19694010416666666],[0.00024305555555555555,-0.19694010416666666],[0.00024305555555555555,-0.19694010416666666],[0.00024305555555555555,-0.19694010416666666],[0.00024305555555555555,-0.19694010416666666],[0.00024305555555555555,-0.19694010416666666],[0.00078125,-0.1966796875],[0.0013845486111111111,-0.19604166666666667],[0.002638888888888889,-0.19477864583333335],[0.004301215277777778,-0.19345052083333333],[0.0087109375,-0.18991753472222223],[0.014296875,-0.18525607638888889],[0.021419270833333334,-0.1796484375],[0.027799479166666665,-0.17424045138888888],[0.033780381944444444,-0.1683376736111111],[0.03777777777777778,-0.1643315972222222],[0.043480902777777775,-0.1576128472222222],[0.04938802083333333,-0.1477300347222222],[0.05340711805555556,-0.14018229166666665],[0.05807291666666667,-0.13190972222222222],[0.06201388888888889,-0.12401475694444444],[0.0646484375,-0.11867621527777777],[0.06932291666666666,-0.11080729166666667],[0.07260850694444444,-0.1046875],[0.07650173611111111,-0.0983376736111111],[0.08039930555555555,-0.09198350694444445],[0.08476128472222222,-0.08563802083333333],[0.08865885416666666,-0.07927951388888889],[0.09264322916666666,-0.07229166666666667],[0.0952734375,-0.0679513888888889],[0.09741319444444445,-0.06325086805555556],[0.0986328125,-0.05918836805555556],[0.0986328125,-0.05454427083333333],[0.0986328125,-0.05349826388888889],[0.0986328125,-0.05349826388888889],[0.0986328125,-0.05349826388888889],[0.0986328125,-0.05349826388888889],[0.0986328125,-0.05349826388888889],[0.0986328125,-0.05349826388888889],[0.0986328125,-0.05349826388888889],[0.0986328125,-0.05349826388888889],[0.0986328125,-0.05349826388888889],[0.0986328125,-0.05349826388888889],[0.0986328125,-0.05349826388888889],[0.0986328125,-0.05349826388888889],[0.0986328125,-0.05349826388888889],[0.0986328125,-0.05349826388888889],[0.0986328125,-0.05349826388888889],[0.0986328125,-0.05349826388888889],[0.0986328125,-0.05120659722222222],[0.09907118055555555,-0.047039930555555554],[0.10101128472222222,-0.03972222222222222],[0.10313802083333333,-0.03013454861111111],[0.1053342013888889,-0.019674479166666668],[0.10624131944444444,-0.013598090277777778],[0.10761284722222222,-0.007686631944444445],[0.10842447916666667,-0.0035416666666666665],[0.1091796875,-0.0004427083333333333],[0.10989583333333333,0.0020963541666666665],[0.11058159722222222,0.004171006944444444],[0.11092881944444444,0.006245659722222222],[0.11124565972222222,0.0079296875],[0.11187065972222222,0.009192708333333334],[0.11250434027777778,0.011106770833333333],[0.11250434027777778,0.012152777777777778],[0.11351128472222222,0.014878472222222222],[0.11422743055555555,0.01740451388888889],[0.114921875,0.01949652777777778],[0.11555555555555555,0.020772569444444444],[0.11618489583333333,0.022039930555555556],[0.11649739583333334,0.02296440972222222],[0.11649739583333334,0.023237847222222222],[0.11649739583333334,0.023819444444444445],[0.11649739583333334,0.02439670138888889],[0.11649739583333334,0.024670138888888887],[0.11649739583333334,0.024670138888888887],[0.11649739583333334,0.02493923611111111],[0.11649739583333334,0.02521267361111111],[0.11649739583333334,0.025481770833333334],[0.11649739583333334,0.025481770833333334],[0.11649739583333334,0.025481770833333334],[0.11649739583333334,0.025481770833333334],[0.11596788194444445,0.025481770833333334],[0.11596788194444445,0.025481770833333334]]]",1,[95],,,,,,,,,,,,,,diner10.jpg,space,4.53143,0,2,2,33,1,deck1.jpg,diningroom1.jpg,courthouse2.jpg,cabinIndoors5.jpg,,
Image_List_4,,,,,,,,,,,,,,,,44614,2020-11-24_20h26.32.131,analogCatScenes,2020.1.3,MacIntel,60,"[1440,900]","[[[0.0079296875,-0.20489149305555557],[0.0079296875,-0.20489149305555557],[0.0079296875,-0.20489149305555557],[0.0079296875,-0.20489149305555557],[0.0079296875,-0.20489149305555557],[0.0079296875,-0.20489149305555557],[0.0079296875,-0.20489149305555557],[0.0079296875,-0.20489149305555557],[0.00703125,-0.20489149305555557],[0.006393229166666667,-0.20489149305555557],[0.0030772569444444445,-0.20489149305555557],[-0.0004947916666666667,-0.20409722222222224],[-0.004600694444444445,-0.20244791666666667],[-0.0099609375,-0.20026909722222222],[-0.013615451388888889,-0.19869791666666667],[-0.017881944444444443,-0.19659722222222223],[-0.02198784722222222,-0.19536024305555555],[-0.025555555555555557,-0.19415798611111112],[-0.028580729166666666,-0.19302083333333334],[-0.0311328125,-0.1919140625],[-0.034162326388888886,-0.19077690972222222],[-0.037734375,-0.1899826388888889],[-0.04129340277777778,-0.18919270833333332],[-0.04724826388888889,-0.18824652777777778],[-0.05309027777777778,-0.18734375],[-0.059583333333333335,-0.18688802083333333],[-0.0668142361111111,-0.18592447916666666],[-0.07517361111111111,-0.18534722222222222],[-0.08304253472222223,-0.18484375],[-0.09104166666666667,-0.18384114583333333],[-0.09983506944444444,-0.18280381944444443],[-0.11269965277777778,-0.17971788194444444],[-0.11671440972222222,-0.17821180555555555],[-0.13029513888888888,-0.175078125],[-0.13637152777777778,-0.17407118055555557],[-0.14363715277777778,-0.17356770833333332],[-0.14956163194444444,-0.17356770833333332],[-0.15485677083333332,-0.17356770833333332],[-0.15955729166666666,-0.17356770833333332],[-0.16212239583333332,-0.17356770833333332],[-0.16276041666666666,-0.17356770833333332],[-0.16276041666666666,-0.17356770833333332],[-0.16276041666666666,-0.17356770833333332],[-0.16276041666666666,-0.17356770833333332],[-0.16276041666666666,-0.17356770833333332],[-0.16276041666666666,-0.17356770833333332],[-0.16276041666666666,-0.17356770833333332],[-0.16276041666666666,-0.17356770833333332],[-0.16276041666666666,-0.17356770833333332],[-0.16276041666666666,-0.17356770833333332],[-0.16276041666666666,-0.17356770833333332],[-0.16276041666666666,-0.17356770833333332],[-0.16276041666666666,-0.17356770833333332],[-0.16276041666666666,-0.17356770833333332],[-0.16276041666666666,-0.17356770833333332],[-0.16506076388888888,-0.1731857638888889],[-0.16856770833333334,-0.17163194444444443],[-0.17326822916666668,-0.16948350694444445],[-0.17794270833333334,-0.16734809027777778],[-0.18202256944444445,-0.16530381944444444],[-0.1861501736111111,-0.16323784722222223],[-0.18984809027777777,-0.16077256944444446],[-0.19489149305555556,-0.1571137152777778],[-0.19754340277777777,-0.15480902777777777],[-0.20042100694444445,-0.15151909722222223],[-0.20268229166666665,-0.1492578125],[-0.2049652777777778,-0.1469748263888889],[-0.20623697916666667,-0.145703125],[-0.20751302083333334,-0.14442708333333334],[-0.20878472222222222,-0.14315538194444444],[-0.2100607638888889,-0.14219618055555555],[-0.21098958333333334,-0.1412673611111111],[-0.21191840277777776,-0.1409765625],[-0.21249565972222223,-0.14039930555555555],[-0.21307291666666667,-0.14010850694444443],[-0.2136501736111111,-0.13953125],[-0.21422743055555554,-0.13924045138888888],[-0.21450086805555554,-0.13896701388888888],[-0.21477430555555554,-0.13896701388888888],[-0.21504774305555555,-0.13896701388888888],[-0.21504774305555555,-0.13896701388888888],[-0.21504774305555555,-0.13896701388888888],[-0.21504774305555555,-0.13896701388888888],[-0.21504774305555555,-0.13896701388888888]]]",1,[84],,,,,,,,,,,,,,ticket_counter6.jpg,space,3.11486,0,3,3,91,1,shoestore2.jpg,trainStation5.jpg,skatepark5.jpg,sidewalk3.jpg,,
Image_List_4,,,,,,,,,,,,,,,,44614,2020-11-24_20h26.32.131,analogCatScenes,2020.1.3,MacIntel,60,"[1440,900]","[[[0.005711805555555556,-0.1957986111111111],[0.005711805555555556,-0.1957986111111111],[0.005711805555555556,-0.1957986111111111],[0.005711805555555556,-0.1957986111111111],[0.005711805555555556,-0.1957986111111111],[0.005711805555555556,-0.1957986111111111],[0.005711805555555556,-0.1957986111111111],[0.005711805555555556,-0.1957986111111111],[0.005711805555555556,-0.1957986111111111],[0.005711805555555556,-0.1957986111111111],[0.005711805555555556,-0.1957986111111111],[0.005711805555555556,-0.1957986111111111],[0.005711805555555556,-0.19498697916666666],[0.005711805555555556,-0.1937109375],[0.005711805555555556,-0.1906857638888889],[0.005711805555555556,-0.1858984375],[0.005711805555555556,-0.1808246527777778],[0.005711805555555556,-0.17609375],[0.005711805555555556,-0.1701909722222222],[0.005711805555555556,-0.16493055555555555],[0.005711805555555556,-0.16082899305555556],[0.006089409722222223,-0.15726128472222223],[0.007287326388888889,-0.1536892361111111],[0.008385416666666666,-0.1511328125],[0.009895833333333333,-0.14809461805555554],[0.0118359375,-0.14499131944444443],[0.013802083333333333,-0.1414453125],[0.016228298611111112,-0.13819878472222222],[0.018658854166666666,-0.13494357638888888],[0.021475694444444443,-0.13133246527777778],[0.025442708333333335,-0.1278298611111111],[0.033081597222222224,-0.12239149305555555],[0.0377734375,-0.12024305555555556],[0.04509982638888889,-0.11680989583333333],[0.049778645833333336,-0.11467013888888888],[0.05572482638888889,-0.11240017361111111],[0.06317274305555555,-0.10990885416666667],[0.0691189236111111,-0.10855034722222222],[0.07447048611111111,-0.10760416666666667],[0.08191840277777777,-0.10608940972222222],[0.08726128472222222,-0.10520399305555556],[0.09411458333333333,-0.10425347222222223],[0.10220052083333334,-0.10371527777777778],[0.1090234375,-0.10223958333333333],[0.11318142361111111,-0.10141493055555556],[0.11846788194444445,-0.10008680555555556],[0.12262152777777778,-0.09926215277777778],[0.12614583333333335,-0.0988498263888889],[0.1286892361111111,-0.09846788194444445],[0.1312456597222222,-0.09846788194444445],[0.13380208333333332,-0.09811631944444445],[0.13635850694444446,-0.09811631944444445],[0.13801649305555555,-0.09811631944444445],[0.13858940972222222,-0.09782552083333333],[0.13887152777777778,-0.09753472222222222]],[[0.004001736111111111,-0.2016796875],[0.004001736111111111,-0.2016796875],[0.004001736111111111,-0.2016796875],[0.004001736111111111,-0.2016796875],[0.004001736111111111,-0.2016796875],[0.004001736111111111,-0.2016796875],[0.004001736111111111,-0.2016796875],[0.004001736111111111,-0.2016796875],[0.004001736111111111,-0.2016796875],[0.0037369791666666667,-0.20089409722222223],[0.0026302083333333334,-0.1983376736111111],[0.0005815972222222222,-0.19424913194444443],[-0.002065972222222222,-0.18895833333333334],[-0.005941840277777778,-0.18265625],[-0.0108203125,-0.1768359375],[-0.016080729166666665,-0.17159722222222223],[-0.021701388888888888,-0.1673784722222222],[-0.029153645833333332,-0.1638888888888889],[-0.03786458333333333,-0.15979166666666667],[-0.04763020833333333,-0.1548871527777778],[-0.053207465277777775,-0.151640625],[-0.05822048611111111,-0.1480034722222222],[-0.060911458333333335,-0.1468576388888889],[-0.060911458333333335,-0.1468576388888889],[-0.060911458333333335,-0.1468576388888889],[-0.060911458333333335,-0.1468576388888889],[-0.060911458333333335,-0.1468576388888889],[-0.060911458333333335,-0.1468576388888889],[-0.060911458333333335,-0.1468576388888889],[-0.060911458333333335,-0.1468576388888889],[-0.060911458333333335,-0.1468576388888889],[-0.060911458333333335,-0.1468576388888889],[-0.060911458333333335,-0.1468576388888889],[-0.060911458333333335,-0.1468576388888889],[-0.060911458333333335,-0.1468576388888889],[-0.060911458333333335,-0.1468576388888889],[-0.061171875,-0.1468576388888889],[-0.06474392361111111,-0.14565104166666668],[-0.07022569444444444,-0.14286458333333332],[-0.07777777777777778,-0.13934027777777777],[-0.08658420138888889,-0.1351996527777778],[-0.09538628472222223,-0.13106336805555555],[-0.10439670138888889,-0.12676649305555557],[-0.11231770833333334,-0.12333333333333334],[-0.123515625,-0.11974392361111111],[-0.12817708333333333,-0.1180859375],[-0.13501736111111112,-0.11660590277777778],[-0.1403125,-0.11527777777777778],[-0.1444748263888889,-0.114453125],[-0.14799913194444445,-0.114453125],[-0.15009114583333333,-0.114453125],[-0.15177083333333333,-0.114453125],[-0.15303385416666668,-0.114453125],[-0.15395833333333334,-0.114453125],[-0.15424913194444445,-0.11473958333333334],[-0.15424913194444445,-0.11500868055555556],[-0.15424913194444445,-0.11500868055555556],[-0.15424913194444445,-0.11500868055555556],[-0.15424913194444445,-0.11500868055555556],[-0.15424913194444445,-0.11500868055555556],[-0.15424913194444445,-0.11500868055555556],[-0.15424913194444445,-0.11500868055555556],[-0.15424913194444445,-0.11500868055555556],[-0.15424913194444445,-0.11500868055555556],[-0.15424913194444445,-0.11500868055555556],[-0.15424913194444445,-0.11500868055555556],[-0.15476996527777778,-0.11500868055555556],[-0.15947048611111111,-0.11500868055555556],[-0.16466145833333334,-0.114140625],[-0.173984375,-0.11136284722222223],[-0.18346354166666667,-0.10924913194444444],[-0.19194444444444445,-0.10766493055555555],[-0.1996484375,-0.10611979166666667],[-0.20626302083333334,-0.10564670138888889],[-0.21357638888888889,-0.10514322916666667],[-0.21825520833333334,-0.10514322916666667],[-0.22085503472222223,-0.10514322916666667],[-0.22746527777777778,-0.10472222222222222],[-0.23049479166666667,-0.10472222222222222],[-0.23352864583333333,-0.10472222222222222],[-0.23605034722222223,-0.10472222222222222],[-0.23908854166666665,-0.10472222222222222],[-0.24164930555555555,-0.10472222222222222],[-0.2446701388888889,-0.10472222222222222],[-0.24766493055555555,-0.10546440972222222],[-0.2507638888888889,-0.10621961805555556],[-0.2537847222222222,-0.10697048611111111],[-0.2572786458333333,-0.10811631944444444],[-0.26028645833333336,-0.10886284722222223],[-0.26283854166666665,-0.10958333333333334],[-0.26586805555555554,-0.11071180555555556],[-0.26792100694444443,-0.11139322916666666],[-0.27,-0.11208333333333333],[-0.2716796875,-0.11208333333333333],[-0.27260416666666665,-0.11208333333333333],[-0.2731814236111111,-0.11208333333333333],[-0.2731814236111111,-0.11121527777777777]],[[-0.004184027777777778,-0.19628472222222224],[-0.004184027777777778,-0.19628472222222224],[-0.004184027777777778,-0.19628472222222224],[-0.004184027777777778,-0.19628472222222224],[-0.004184027777777778,-0.19628472222222224],[-0.004184027777777778,-0.19628472222222224],[-0.004184027777777778,-0.19628472222222224],[-0.004184027777777778,-0.19628472222222224],[-0.004184027777777778,-0.19628472222222224],[-0.004184027777777778,-0.19628472222222224],[-0.004184027777777778,-0.19628472222222224],[-0.004184027777777778,-0.19628472222222224],[-0.004184027777777778,-0.1934592013888889],[-0.004184027777777778,-0.1892925347222222],[-0.004184027777777778,-0.184609375],[-0.004184027777777778,-0.1806640625],[-0.004184027777777778,-0.17533854166666665],[-0.004184027777777778,-0.1706423611111111],[-0.004184027777777778,-0.1665581597222222],[-0.003372395833333333,-0.16246527777777778],[-0.001796875,-0.15889322916666668],[-0.0006684027777777777,-0.15586805555555555],[0.0010590277777777779,-0.15158854166666666],[0.0030642361111111113,-0.14755208333333333],[0.005112847222222223,-0.14345052083333334],[0.007087673611111111,-0.14029947916666666],[0.008650173611111112,-0.13675347222222223],[0.010221354166666667,-0.13319444444444445],[0.01267795138888889,-0.12950086805555555],[0.014253472222222223,-0.12592881944444445],[0.01576388888888889,-0.122890625],[0.017204861111111112,-0.1203342013888889],[0.018333333333333333,-0.11731770833333334],[0.018680555555555554,-0.11523003472222222],[0.018680555555555554,-0.11459201388888889],[0.018680555555555554,-0.11459201388888889],[0.018680555555555554,-0.11459201388888889],[0.018680555555555554,-0.11459201388888889],[0.018680555555555554,-0.11459201388888889],[0.018680555555555554,-0.11459201388888889],[0.018680555555555554,-0.11459201388888889],[0.018680555555555554,-0.11459201388888889],[0.018680555555555554,-0.11459201388888889],[0.018680555555555554,-0.11459201388888889],[0.018680555555555554,-0.11459201388888889],[0.018680555555555554,-0.11459201388888889],[0.018680555555555554,-0.11459201388888889],[0.018680555555555554,-0.11459201388888889],[0.018680555555555554,-0.11459201388888889],[0.018680555555555554,-0.11459201388888889],[0.018680555555555554,-0.11381510416666667],[0.018680555555555554,-0.10970920138888889],[0.01958767361111111,-0.10375434027777777],[0.020863715277777778,-0.09842447916666666],[0.022191840277777777,-0.09252604166666667],[0.023480902777777778,-0.08731336805555556],[0.025112847222222224,-0.08322916666666667],[0.026297743055555555,-0.07970486111111111],[0.027430555555555555,-0.07666666666666666],[0.028502604166666667,-0.07305555555555555],[0.029539930555555555,-0.07096788194444445],[0.030260416666666668,-0.06840711805555555],[0.03092013888888889,-0.06673177083333333],[0.031931423611111114,-0.06504774305555555],[0.032560763888888886,-0.06371527777777777],[0.032907986111111114,-0.062035590277777775],[0.03357204861111111,-0.0603515625],[0.033919270833333334,-0.058259548611111114],[0.034296875,-0.05569444444444444],[0.03498697916666667,-0.05360677083333333],[0.03526909722222222,-0.05227430555555555],[0.03526909722222222,-0.05169270833333333],[0.03526909722222222,-0.05169270833333333],[0.03526909722222222,-0.05169270833333333],[0.03526909722222222,-0.05169270833333333],[0.03526909722222222,-0.05169270833333333],[0.03526909722222222,-0.05169270833333333],[0.03526909722222222,-0.05169270833333333],[0.03526909722222222,-0.05169270833333333],[0.03526909722222222,-0.05169270833333333],[0.03526909722222222,-0.05169270833333333],[0.03526909722222222,-0.05169270833333333],[0.03526909722222222,-0.05169270833333333],[0.03526909722222222,-0.05169270833333333],[0.03526909722222222,-0.05169270833333333],[0.03526909722222222,-0.05169270833333333],[0.03526909722222222,-0.05169270833333333],[0.03526909722222222,-0.05169270833333333],[0.03526909722222222,-0.05169270833333333],[0.03526909722222222,-0.04965711805555555],[0.03564236111111111,-0.046640625],[0.03671440972222222,-0.04407986111111111],[0.037725694444444444,-0.042395833333333334],[0.03835503472222222,-0.04112847222222222],[0.03930555555555556,-0.039852430555555554],[0.03990451388888889,-0.03892795138888889],[0.040824652777777776,-0.037999131944444445],[0.04177083333333333,-0.03673177083333334],[0.04272135416666667,-0.035772569444444444],[0.04364149305555556,-0.03484375],[0.04461371527777778,-0.03316840277777778],[0.04593315972222222,-0.03149739583333333],[0.04725260416666666,-0.02982204861111111],[0.048563368055555556,-0.02815972222222222],[0.049544270833333334,-0.026475694444444444],[0.050798611111111114,-0.02521267361111111],[0.051740451388888886,-0.023949652777777778],[0.05332465277777778,-0.022035590277777777],[0.05424479166666667,-0.021106770833333333],[0.055190972222222225,-0.019835069444444443],[0.056453993055555554,-0.018880208333333332],[0.05739583333333333,-0.01792534722222222],[0.05865885416666667,-0.016653645833333335],[0.06033420138888889,-0.015316840277777778],[0.06200954861111111,-0.014296875],[0.06327256944444444,-0.01334201388888889],[0.06453125,-0.012703993055555555],[0.06545138888888889,-0.012092013888888888],[0.06671006944444445,-0.011137152777777777],[0.06797743055555555,-0.010494791666666666],[0.06889322916666667,-0.009887152777777778],[0.06946180555555556,-0.009309895833333333],[0.07037760416666666,-0.008702256944444445],[0.07094618055555556,-0.008415798611111112],[0.07151475694444444,-0.007838541666666667],[0.07243055555555555,-0.007230902777777778],[0.07334635416666667,-0.006944444444444444],[0.07426649305555555,-0.006332465277777778],[0.07518229166666666,-0.006046006944444444],[0.0760373263888889,-0.0057552083333333335],[0.07661024305555555,-0.005464409722222222],[0.07717881944444445,-0.005464409722222222],[0.07774739583333333,-0.005464409722222222],[0.07802951388888889,-0.0051736111111111115],[0.07831597222222222,-0.0051736111111111115],[0.07858072916666667,-0.0051736111111111115],[0.07858072916666667,-0.0051736111111111115],[0.07858072916666667,-0.0051736111111111115],[0.07670572916666667,-0.0051736111111111115]]]",3,"[55,97,139]",,,,,,,,,,,,,,park8.jpg,space,8.214255,0,4,4,77,1,parkinggarage2.jpg,playroom6.jpg,pasture9.jpg,mallindoor6.jpg,,
Image_List_4,,,,,,,,,,,,,,,,44614,2020-11-24_20h26.32.131,analogCatScenes,2020.1.3,MacIntel,60,"[1440,900]","[[[0.0014192708333333334,-0.20109809027777778],[0.0014192708333333334,-0.20109809027777778],[0.0014192708333333334,-0.20109809027777778],[0.0014192708333333334,-0.20109809027777778],[0.0014192708333333334,-0.2008376736111111],[0.0030598958333333333,-0.1980859375],[0.010703125,-0.19045572916666667],[0.023975694444444445,-0.17859375],[0.0446875,-0.1632595486111111],[0.06694878472222222,-0.1502300347222222],[0.08254340277777777,-0.14502604166666666],[0.10614149305555555,-0.13733940972222222],[0.12012586805555556,-0.1336892361111111],[0.13329427083333334,-0.13192708333333333],[0.1429644097222222,-0.1303515625],[0.14961371527777778,-0.12984809027777777],[0.15555989583333332,-0.1284592013888889],[0.1638454861111111,-0.1264453125],[0.1704513888888889,-0.12502604166666667],[0.17514322916666666,-0.12331597222222222],[0.18042534722222223,-0.12154947916666667],[0.18449652777777778,-0.11991319444444444],[0.19006510416666667,-0.11666666666666667],[0.1953515625,-0.11401909722222223],[0.20127604166666666,-0.11128472222222222],[0.20809895833333333,-0.1078515625],[0.2134375,-0.10561631944444444],[0.21936631944444446,-0.10288194444444444],[0.22404947916666668,-0.10032986111111111],[0.22810329861111112,-0.09829427083333334],[0.23179253472222222,-0.09623697916666667],[0.2354470486111111,-0.09379340277777778],[0.2387282986111111,-0.091328125],[0.2424001736111111,-0.08846788194444444],[0.24624565972222223,-0.08505642361111111],[0.2512890625,-0.07955729166666667],[0.25427951388888886,-0.07529513888888889],[0.2567361111111111,-0.07159722222222223],[0.25871961805555554,-0.06802517361111111],[0.26016927083333335,-0.06546006944444445],[0.2608333333333333,-0.06377604166666667],[0.2614670138888889,-0.0625],[0.2614670138888889,-0.061575520833333335],[0.2614670138888889,-0.06099826388888889],[0.2614670138888889,-0.060421006944444446]]]",1,[45],,,,,,,,,,,,,,sculpturegarden2.jpg,space,2.147985,0,5,5,87,1,restaurantkitchen2.jpg,theater2.jpg,savanna.jpg,RVinside2.jpg,,
Image_List_4,,,,,,,,,,,,,,,,44614,2020-11-24_20h26.32.131,analogCatScenes,2020.1.3,MacIntel,60,"[1440,900]","[[[0.00006076388888888889,-0.2020703125],[0.00006076388888888889,-0.2020703125],[0.00006076388888888889,-0.2020703125],[0.00006076388888888889,-0.2020703125],[0.00006076388888888889,-0.2020703125],[0.00006076388888888889,-0.2020703125],[0.00006076388888888889,-0.2020703125],[0.00006076388888888889,-0.2020703125],[0.00006076388888888889,-0.2020703125],[0.00006076388888888889,-0.2020703125],[0.00006076388888888889,-0.2020703125],[0.00006076388888888889,-0.2020703125],[0.00006076388888888889,-0.2020703125],[0.00006076388888888889,-0.2020703125],[0.00006076388888888889,-0.2020703125],[0.00006076388888888889,-0.2020703125],[0.00006076388888888889,-0.2020703125],[0.00006076388888888889,-0.2020703125],[0.00006076388888888889,-0.2020703125],[0.00006076388888888889,-0.2020703125],[0.00006076388888888889,-0.2020703125],[0.00006076388888888889,-0.2020703125],[0.00006076388888888889,-0.2020703125],[0.00006076388888888889,-0.2020703125],[0.00006076388888888889,-0.2020703125],[0.00006076388888888889,-0.2020703125],[0.00006076388888888889,-0.2020703125],[0.00006076388888888889,-0.2020703125],[0.00006076388888888889,-0.2020703125],[0.00006076388888888889,-0.2020703125],[0.00006076388888888889,-0.2020703125],[0.00006076388888888889,-0.2020703125],[0.00006076388888888889,-0.2020703125],[0.00006076388888888889,-0.2020703125],[0.00006076388888888889,-0.2020703125],[0.00006076388888888889,-0.2020703125],[0.00006076388888888889,-0.2020703125],[0.00006076388888888889,-0.2020703125],[0.00006076388888888889,-0.2020703125],[0.00006076388888888889,-0.2020703125],[0.00006076388888888889,-0.2020703125],[0.00006076388888888889,-0.2020703125],[0.00006076388888888889,-0.2020703125],[0.00006076388888888889,-0.2020703125],[0.00006076388888888889,-0.2020703125],[0.00006076388888888889,-0.2020703125],[-0.0001996527777777778,-0.2020703125],[-0.0004904513888888889,-0.20120225694444444],[-0.0008116319444444445,-0.1999262152777778],[-0.0008116319444444445,-0.19783854166666667],[-0.0008116319444444445,-0.19481770833333334],[-0.0008116319444444445,-0.19178385416666666],[-0.000030381944444444444,-0.18809895833333334],[0.0019444444444444444,-0.18454427083333333],[0.003919270833333334,-0.18140190972222223],[0.005017361111111111,-0.17884548611111112],[0.006024305555555555,-0.17716579861111112],[0.006688368055555556,-0.17548177083333333],[0.007005208333333333,-0.17421006944444445],[0.007005208333333333,-0.17188802083333332],[0.007005208333333333,-0.17020399305555556],[0.007352430555555556,-0.16811197916666668],[0.008077256944444444,-0.165546875],[0.008862847222222222,-0.16197482638888888],[0.010846354166666667,-0.15840277777777778],[0.012829861111111111,-0.15523871527777777],[0.014752604166666667,-0.15254774305555555],[0.017118055555555556,-0.14976128472222222],[0.019891493055555556,-0.14739149305555554],[0.022573784722222223,-0.14546006944444445],[0.02570746527777778,-0.1434765625],[0.028862847222222224,-0.141484375],[0.032413194444444446,-0.1399045138888889],[0.035442708333333336,-0.13838541666666668],[0.037999131944444445,-0.13765190972222222],[0.04055555555555555,-0.13730034722222223],[0.04223090277777778,-0.13694878472222222],[0.04431423611111111,-0.13694878472222222],[0.0462109375,-0.13694878472222222],[0.0468359375,-0.13694878472222222],[0.04872395833333333,-0.13694878472222222],[0.04963541666666667,-0.13754774305555556],[0.050551215277777777,-0.13814670138888888],[0.05115451388888889,-0.13906684027777777],[0.05144097222222222,-0.13963975694444444],[0.05172743055555556,-0.14021267361111112],[0.05172743055555556,-0.1407855902777778],[0.05172743055555556,-0.14135850694444443],[0.05172743055555556,-0.1419314236111111],[0.05172743055555556,-0.14250434027777778],[0.05172743055555556,-0.14307725694444445],[0.05201388888888889,-0.1436501736111111],[0.05201388888888889,-0.14422309027777777],[0.052300347222222224,-0.14479166666666668],[0.05258680555555555,-0.1450737847222222],[0.05287326388888889,-0.1450737847222222],[0.05314236111111111,-0.1450737847222222],[0.05340711805555556,-0.1450737847222222],[0.05340711805555556,-0.1450737847222222],[0.05340711805555556,-0.14480902777777777],[0.05340711805555556,-0.14353298611111112],[0.05340711805555556,-0.14260416666666667],[0.05340711805555556,-0.141328125],[0.05340711805555556,-0.14005208333333333],[0.05340711805555556,-0.13813802083333335],[0.0530859375,-0.1375],[0.05276475694444444,-0.13594184027777778],[0.05215277777777778,-0.13501302083333333],[0.05183159722222222,-0.13373697916666666],[0.051219618055555555,-0.13280815972222224],[0.05029079861111111,-0.13219618055555554],[0.049331597222222225,-0.13123697916666666],[0.047239583333333335,-0.13018663194444444],[0.04467447916666667,-0.12907552083333335],[0.04163628472222222,-0.1275564236111111],[0.03907118055555556,-0.12682291666666667],[0.03651041666666666,-0.12609375],[0.03347222222222222,-0.1253298611111111],[0.03092013888888889,-0.12460069444444444],[0.02835503472222222,-0.1238671875],[0.025802951388888887,-0.12313802083333333],[0.02373263888888889,-0.12244357638888889],[0.021649305555555557,-0.12174479166666667],[0.019969618055555555,-0.12139322916666667],[0.017890625,-0.12069444444444444],[0.016206597222222223,-0.12002170138888889],[0.014522569444444444,-0.11934895833333334],[0.012847222222222222,-0.11868055555555555],[0.010529513888888889,-0.11769097222222222],[0.008862847222222222,-0.11671006944444444],[0.007183159722222222,-0.11572482638888888],[0.005503472222222222,-0.11473958333333334],[0.0038194444444444443,-0.11340277777777778],[0.001640625,-0.11157118055555555],[-0.000625,-0.10930555555555556],[-0.0024522569444444444,-0.10713541666666666],[-0.004717881944444445,-0.10486979166666667],[-0.007504340277777778,-0.10249565972222222],[-0.010282118055555555,-0.10013020833333333],[-0.013563368055555556,-0.09766927083333334],[-0.01726128472222222,-0.09520399305555556],[-0.020538194444444446,-0.09274739583333333],[-0.02423611111111111,-0.09028211805555555],[-0.02701388888888889,-0.08791232638888889],[-0.029704861111111112,-0.08598090277777778],[-0.03236545138888889,-0.08407986111111111],[-0.03455295138888889,-0.08223958333333334],[-0.03674045138888889,-0.08039930555555555],[-0.038832465277777777,-0.07900173611111111],[-0.040924479166666666,-0.07760416666666667],[-0.042703993055555556,-0.07614149305555555],[-0.044383680555555555,-0.07480902777777777],[-0.04638888888888889,-0.07315104166666667],[-0.047664930555555554,-0.071875],[-0.04900173611111111,-0.07019097222222222],[-0.05078125,-0.06841145833333333],[-0.05262152777777778,-0.06622395833333333],[-0.05407986111111111,-0.06366319444444445],[-0.05592013888888889,-0.061475694444444444],[-0.056940104166666665,-0.05979166666666667],[-0.05796006944444444,-0.05810763888888889],[-0.05860243055555556,-0.056831597222222224],[-0.05918402777777778,-0.05654079861111111],[-0.05918402777777778,-0.05625],[-0.05918402777777778,-0.05625],[-0.05918402777777778,-0.05625]],[[-0.0002690972222222222,-0.20244357638888888],[-0.0002690972222222222,-0.20244357638888888],[-0.0002690972222222222,-0.20244357638888888],[-0.0002690972222222222,-0.20244357638888888],[-0.0002690972222222222,-0.20244357638888888],[-0.0007942708333333334,-0.20244357638888888],[-0.002131076388888889,-0.20244357638888888],[-0.0038151041666666667,-0.20244357638888888],[-0.006371527777777778,-0.20244357638888888],[-0.00845920138888889,-0.20174479166666667],[-0.012026909722222222,-0.20095052083333334],[-0.01505642361111111,-0.1994357638888889],[-0.018155381944444444,-0.19832465277777778],[-0.021727430555555555,-0.19712239583333332],[-0.026080729166666667,-0.19547743055555555],[-0.03078125,-0.19462239583333332],[-0.03679253472222222,-0.19280815972222223],[-0.04094618055555556,-0.1923654513888889],[-0.04649305555555556,-0.19135850694444445],[-0.054565972222222224,-0.1903515625],[-0.06118055555555556,-0.18893229166666667],[-0.0665407986111111,-0.188046875],[-0.0718359375,-0.18716145833333334],[-0.0718359375,-0.18716145833333334],[-0.0718359375,-0.18716145833333334],[-0.0718359375,-0.18716145833333334],[-0.0718359375,-0.18716145833333334],[-0.0718359375,-0.18716145833333334],[-0.0718359375,-0.18716145833333334],[-0.0718359375,-0.18716145833333334],[-0.0718359375,-0.18716145833333334],[-0.0718359375,-0.18716145833333334],[-0.0718359375,-0.18716145833333334],[-0.0718359375,-0.18716145833333334],[-0.0718359375,-0.18716145833333334],[-0.0718359375,-0.18716145833333334],[-0.0718359375,-0.18716145833333334],[-0.07467013888888889,-0.18633680555555557],[-0.07934027777777777,-0.1842013888888889],[-0.08551215277777778,-0.18036024305555556],[-0.09254340277777778,-0.1753342013888889],[-0.09697916666666667,-0.17137152777777778],[-0.10196180555555556,-0.16729166666666667],[-0.10653211805555556,-0.1631640625],[-0.10982204861111111,-0.15987413194444444],[-0.11269097222222223,-0.15700086805555555],[-0.1154296875,-0.15426215277777777],[-0.11830729166666666,-0.1513845486111111],[-0.1206640625,-0.14862413194444443],[-0.123203125,-0.145390625],[-0.12459635416666667,-0.14330295138888888],[-0.1256076388888889,-0.141171875],[-0.12665798611111112,-0.13907986111111112],[-0.12778211805555556,-0.1360763888888889],[-0.1285720486111111,-0.13251736111111112],[-0.12933159722222223,-0.1294921875],[-0.12967881944444445,-0.12740451388888888],[-0.12967881944444445,-0.1253125],[-0.12967881944444445,-0.12362847222222222],[-0.12967881944444445,-0.12154947916666667],[-0.12967881944444445,-0.11899305555555556],[-0.12967881944444445,-0.1164279513888889],[-0.12967881944444445,-0.11388020833333333],[-0.12967881944444445,-0.11179253472222223],[-0.12898871527777778,-0.10971354166666666],[-0.12829427083333333,-0.10762152777777778],[-0.12760416666666666,-0.10554253472222222],[-0.12690972222222222,-0.10345052083333334],[-0.12625,-0.1017795138888889],[-0.12590277777777778,-0.10009548611111112],[-0.12555555555555556,-0.09841145833333333],[-0.12524305555555557,-0.09714409722222223],[-0.12492621527777778,-0.09586805555555555],[-0.12395399305555556,-0.09355902777777778],[-0.12360677083333334,-0.091875],[-0.12297743055555556,-0.0906032986111111],[-0.12231336805555555,-0.08891927083333333],[-0.1216796875,-0.08764322916666667],[-0.12073350694444444,-0.08637152777777778],[-0.12007378472222222,-0.08469184027777778],[-0.11909288194444445,-0.0830078125],[-0.11811631944444445,-0.081328125],[-0.11678819444444444,-0.07964409722222222],[-0.11580729166666667,-0.07796006944444445],[-0.11476996527777777,-0.0758767361111111],[-0.11338107638888889,-0.07378472222222222],[-0.11194444444444444,-0.07124131944444445],[-0.11055989583333334,-0.06915364583333333],[-0.1092404513888889,-0.06747829861111111],[-0.10826822916666666,-0.06581163194444445],[-0.10766493055555555,-0.0648828125],[-0.10737847222222222,-0.06430121527777778],[-0.10709201388888889,-0.06372395833333333],[-0.10709201388888889,-0.06345052083333333],[-0.10709201388888889,-0.06317708333333333],[-0.10709201388888889,-0.06317708333333333],[-0.10682725694444445,-0.0629079861111111],[-0.10682725694444445,-0.06263888888888888],[-0.1065625,-0.06236979166666667],[-0.1065625,-0.06236979166666667],[-0.1065625,-0.06236979166666667],[-0.1065625,-0.06236979166666667],[-0.1065625,-0.06366319444444445],[-0.1065625,-0.06366319444444445]]]",2,"[166,104]",,,,,,,,,,,,,,cave5.jpg,space,8.900445,0,6,6,21,1,botanicalGarden6.jpg,cemetery6.jpg,campusquad3.jpg,beach1.jpeg,,
Image_List_4,,,,,,,,,,,,,,,,44614,2020-11-24_20h26.32.131,analogCatScenes,2020.1.3,MacIntel,60,"[1440,900]","[[[-0.0006293402777777778,-0.1991015625],[-0.0006293402777777778,-0.1991015625],[-0.0006293402777777778,-0.1991015625],[-0.0006293402777777778,-0.1991015625],[-0.0006293402777777778,-0.1991015625],[-0.0014149305555555556,-0.1991015625],[-0.003975694444444444,-0.1991015625],[-0.011315104166666666,-0.19691840277777778],[-0.017977430555555556,-0.1945920138888889],[-0.027061631944444445,-0.1903125],[-0.03615451388888889,-0.18548177083333334],[-0.04370659722222222,-0.18195746527777779],[-0.04840711805555555,-0.18024739583333332],[-0.052473958333333334,-0.17862847222222222],[-0.05503038194444444,-0.17787326388888888],[-0.05566840277777778,-0.17787326388888888],[-0.05566840277777778,-0.17787326388888888],[-0.05566840277777778,-0.17787326388888888],[-0.05566840277777778,-0.17787326388888888],[-0.05566840277777778,-0.17787326388888888],[-0.05566840277777778,-0.17787326388888888],[-0.05566840277777778,-0.17787326388888888],[-0.05566840277777778,-0.17787326388888888],[-0.05566840277777778,-0.17787326388888888],[-0.05566840277777778,-0.17787326388888888],[-0.05566840277777778,-0.17787326388888888],[-0.05566840277777778,-0.17787326388888888],[-0.05566840277777778,-0.17787326388888888],[-0.055928819444444444,-0.17787326388888888],[-0.05849392361111111,-0.17787326388888888],[-0.06323784722222223,-0.17656684027777778],[-0.06734809027777777,-0.17494357638888888],[-0.07404513888888889,-0.17243489583333332],[-0.07874565972222222,-0.17031684027777777],[-0.08339409722222223,-0.16819444444444445],[-0.08809461805555556,-0.16604600694444444],[-0.09123697916666666,-0.1640625],[-0.09580729166666667,-0.16169704861111112],[-0.09989149305555556,-0.15924479166666666],[-0.10305555555555555,-0.15725260416666667],[-0.10513454861111111,-0.15620659722222222],[-0.10681857638888889,-0.15486979166666667],[-0.1080859375,-0.15391927083333334],[-0.10901475694444444,-0.15330729166666668],[-0.10993923611111112,-0.15269965277777778],[-0.11052083333333333,-0.15211805555555555],[-0.11081163194444445,-0.15182725694444443],[-0.11110243055555556,-0.15153645833333335],[-0.11110243055555556,-0.15153645833333335],[-0.11110243055555556,-0.1512717013888889]],[[-0.0017230902777777778,-0.19727430555555556],[-0.0017230902777777778,-0.19727430555555556],[-0.0017230902777777778,-0.19727430555555556],[-0.0017230902777777778,-0.19727430555555556],[-0.0017230902777777778,-0.19727430555555556],[-0.0017230902777777778,-0.19727430555555556],[-0.0017230902777777778,-0.19727430555555556],[-0.0005685763888888889,-0.19727430555555556],[0.0011067708333333333,-0.19727430555555556],[0.005264756944444444,-0.19815538194444443],[0.010082465277777777,-0.1994748263888889],[0.014769965277777778,-0.201171875],[0.020677083333333332,-0.20341579861111111],[0.024835069444444444,-0.20505208333333333],[0.029513888888888888,-0.20671006944444445],[0.03683159722222222,-0.20928385416666667],[0.04181423611111111,-0.21061631944444445],[0.0466015625,-0.2124001736111111],[0.05188802083333333,-0.21371961805555556],[0.05657986111111111,-0.21456597222222223],[0.06125,-0.21585069444444444],[0.0648046875,-0.2170095486111111],[0.06836805555555556,-0.21779513888888888],[0.07138454861111111,-0.2189236111111111],[0.07394097222222222,-0.2196484375],[0.07697048611111111,-0.22040364583333333],[0.0795095486111111,-0.22112413194444444],[0.08253038194444444,-0.221875],[0.08508246527777778,-0.22225260416666667],[0.08763454861111111,-0.22297309027777779],[0.09018663194444444,-0.2236935763888889],[0.09274305555555555,-0.22441840277777778],[0.09482638888888889,-0.224765625],[0.09689236111111112,-0.22545138888888888],[0.09815972222222222,-0.22576822916666667],[0.09942708333333333,-0.22608506944444445],[0.1,-0.22608506944444445],[0.1,-0.22608506944444445],[0.1,-0.22608506944444445]],[[0.0013802083333333333,-0.19717447916666667],[0.0013802083333333333,-0.19717447916666667],[0.0013802083333333333,-0.19717447916666667],[0.0013802083333333333,-0.19717447916666667],[0.0013802083333333333,-0.19717447916666667],[0.0013802083333333333,-0.19717447916666667],[0.0013802083333333333,-0.19717447916666667],[0.0013802083333333333,-0.19717447916666667],[0.0013802083333333333,-0.19717447916666667],[0.0013802083333333333,-0.19717447916666667],[0.0013802083333333333,-0.19717447916666667],[0.0013802083333333333,-0.19717447916666667],[0.0013802083333333333,-0.1969140625],[0.0013802083333333333,-0.196640625],[0.0013802083333333333,-0.1963671875],[0.0013802083333333333,-0.1963671875],[0.0013802083333333333,-0.1963671875],[0.0013802083333333333,-0.19582899305555557],[0.001935763888888889,-0.19582899305555557],[0.001935763888888889,-0.1952517361111111],[0.0022222222222222222,-0.1952517361111111],[0.0024913194444444444,-0.1952517361111111],[0.002756076388888889,-0.1949826388888889],[0.002756076388888889,-0.1949826388888889],[0.0030164930555555557,-0.1949826388888889],[0.0030164930555555557,-0.1949826388888889],[0.0030164930555555557,-0.1949826388888889],[0.0030164930555555557,-0.1949826388888889],[0.0030164930555555557,-0.1949826388888889],[0.0030164930555555557,-0.1949826388888889],[0.0030164930555555557,-0.1949826388888889],[0.0030164930555555557,-0.1949826388888889],[0.0030164930555555557,-0.1949826388888889],[0.0030164930555555557,-0.1949826388888889],[0.0030164930555555557,-0.1949826388888889],[0.0030164930555555557,-0.1949826388888889],[0.0030164930555555557,-0.1949826388888889],[0.0030164930555555557,-0.1949826388888889],[0.0030164930555555557,-0.1949826388888889],[0.0030164930555555557,-0.1949826388888889],[0.0030164930555555557,-0.1949826388888889],[0.0030164930555555557,-0.1949826388888889],[0.0030164930555555557,-0.1949826388888889],[0.0030164930555555557,-0.1949826388888889],[0.0030164930555555557,-0.1949826388888889],[0.0030164930555555557,-0.1949826388888889],[0.0030164930555555557,-0.1949826388888889],[0.0030164930555555557,-0.1949826388888889],[0.0030164930555555557,-0.1949826388888889],[0.0030164930555555557,-0.1949826388888889],[0.0030164930555555557,-0.1949826388888889],[0.0030164930555555557,-0.1949826388888889],[0.0030164930555555557,-0.1949826388888889],[0.0030164930555555557,-0.1949826388888889],[0.0030164930555555557,-0.1949826388888889],[0.0030164930555555557,-0.1949826388888889],[0.0030164930555555557,-0.1949826388888889],[0.0030164930555555557,-0.1949826388888889],[0.0030164930555555557,-0.1949826388888889],[0.0030164930555555557,-0.1949826388888889],[0.0030164930555555557,-0.1949826388888889],[0.0030164930555555557,-0.1949826388888889],[0.0030164930555555557,-0.1949826388888889],[0.0030164930555555557,-0.1949826388888889],[0.0030164930555555557,-0.1949826388888889],[0.0030164930555555557,-0.1949826388888889],[0.0030164930555555557,-0.1949826388888889],[0.0030164930555555557,-0.1949826388888889],[0.0030164930555555557,-0.1949826388888889],[0.0030164930555555557,-0.1949826388888889],[0.0030164930555555557,-0.1949826388888889],[0.0030164930555555557,-0.1949826388888889],[0.0030164930555555557,-0.1949826388888889],[0.0030164930555555557,-0.1949826388888889],[0.0030164930555555557,-0.1949826388888889],[0.0030164930555555557,-0.1949826388888889],[0.0030164930555555557,-0.1949826388888889],[0.0030164930555555557,-0.1949826388888889],[0.0030164930555555557,-0.1949826388888889],[0.0030164930555555557,-0.1947222222222222],[0.0030164930555555557,-0.19414496527777778],[0.0027256944444444446,-0.19322048611111112],[0.002092013888888889,-0.19195746527777777],[0.0010416666666666667,-0.18986545138888888],[0.0002777777777777778,-0.18682725694444444],[-0.00010416666666666667,-0.1838064236111111],[-0.0005164930555555555,-0.180234375],[-0.0008984375,-0.1776779513888889],[-0.0008984375,-0.17512586805555555],[-0.0008984375,-0.17256510416666668],[-0.0008984375,-0.16952690972222223],[-0.0008984375,-0.16648871527777778],[-0.0008984375,-0.16346354166666666],[-0.0008984375,-0.15787760416666666],[-0.0008984375,-0.15378038194444443],[-0.0008984375,-0.14969618055555556],[-0.0013020833333333333,-0.14562934027777777],[-0.0017144097222222222,-0.1415234375],[-0.0021223958333333333,-0.13743489583333332],[-0.0028819444444444444,-0.1344140625],[-0.003263888888888889,-0.13137586805555557],[-0.003962673611111111,-0.129296875],[-0.003962673611111111,-0.1272092013888889],[-0.004314236111111111,-0.12552517361111112],[-0.004314236111111111,-0.1242578125],[-0.004605034722222222,-0.12367621527777778],[-0.004605034722222222,-0.12338541666666666],[-0.004605034722222222,-0.12311197916666666],[-0.004605034722222222,-0.12284288194444444],[-0.004605034722222222,-0.12284288194444444],[-0.004605034722222222,-0.12284288194444444],[-0.004605034722222222,-0.12284288194444444],[-0.004605034722222222,-0.12284288194444444],[-0.004865451388888889,-0.12284288194444444],[-0.005138888888888889,-0.12284288194444444],[-0.005412326388888889,-0.12284288194444444]]]",3,"[50,39,116]",,,,,,,,,,,,,,sandDunes_desert_outdoor.jpg,space,6.38485,0,7,7,84,1,readingroom5.jpg,sidewalk2.jpg,restaurant13.jpg,rooftop2.jpg,,
Image_List_4,,,,,,,,,,,,,,,,44614,2020-11-24_20h26.32.131,analogCatScenes,2020.1.3,MacIntel,60,"[1440,900]","[[[0.0006727430555555556,-0.19321180555555556],[0.0006727430555555556,-0.19321180555555556],[0.0006727430555555556,-0.19321180555555556],[0.0006727430555555556,-0.19321180555555556],[0.0006727430555555556,-0.19321180555555556],[0.0006727430555555556,-0.19321180555555556],[0.0006727430555555556,-0.19321180555555556],[0.0006727430555555556,-0.19321180555555556],[0.0006727430555555556,-0.19321180555555556],[0.0006727430555555556,-0.19321180555555556],[0.0006727430555555556,-0.19321180555555556],[0.0006727430555555556,-0.19321180555555556],[0.0006727430555555556,-0.19321180555555556],[0.0006727430555555556,-0.19321180555555556],[0.0006727430555555556,-0.19321180555555556],[0.0006727430555555556,-0.19295138888888888],[0.0006727430555555556,-0.19267795138888888],[0.0006727430555555556,-0.19210069444444444],[0.0006727430555555556,-0.19183159722222223],[0.0006727430555555556,-0.19125434027777777],[0.0009418402777777778,-0.19069010416666668],[0.0015451388888888889,-0.19005208333333334],[0.002144097222222222,-0.18912760416666666],[0.0028081597222222223,-0.1874435763888889],[0.004791666666666666,-0.18427951388888889],[0.007894965277777779,-0.17981770833333333],[0.0127734375,-0.1739887152777778],[0.018333333333333333,-0.16741319444444444],[0.024869791666666665,-0.161875],[0.029327256944444446,-0.15788194444444445],[0.03436197916666667,-0.1537543402777778],[0.038207465277777776,-0.15034288194444445],[0.04161024305555556,-0.14648871527777776],[0.045711805555555554,-0.14146701388888888],[0.048845486111111114,-0.13682291666666666],[0.051844618055555555,-0.13288194444444446],[0.05481770833333333,-0.12864149305555556],[0.057808159722222224,-0.12437934027777778],[0.06026475694444444,-0.12068142361111112],[0.062235243055555556,-0.11712673611111112],[0.06420572916666667,-0.11398003472222222],[0.06647135416666666,-0.10942708333333333],[0.06754340277777778,-0.10686197916666666],[0.067890625,-0.10476996527777778],[0.067890625,-0.10447916666666666],[0.067890625,-0.10447916666666666],[0.067890625,-0.10447916666666666],[0.067890625,-0.10447916666666666],[0.067890625,-0.10447916666666666],[0.067890625,-0.10447916666666666],[0.067890625,-0.10447916666666666],[0.067890625,-0.10447916666666666],[0.067890625,-0.10447916666666666],[0.067890625,-0.10447916666666666],[0.067890625,-0.10447916666666666],[0.067890625,-0.10447916666666666],[0.067890625,-0.10447916666666666],[0.067890625,-0.10218315972222222],[0.067890625,-0.09962673611111111],[0.06861545138888889,-0.09706163194444445],[0.06940104166666666,-0.09336805555555555],[0.07030815972222222,-0.08741319444444444],[0.07237413194444445,-0.07858506944444445],[0.07368923611111111,-0.07251302083333333],[0.07465711805555555,-0.06517795138888889],[0.07700954861111112,-0.0551953125],[0.07794704861111111,-0.048598090277777777],[0.07944878472222222,-0.040542534722222225],[0.08035590277777778,-0.03458767361111111],[0.08123263888888889,-0.02929253472222222],[0.08201388888888889,-0.02573784722222222],[0.08276475694444445,-0.02265190972222222],[0.08317274305555555,-0.018546006944444443],[0.08317274305555555,-0.01384548611111111],[0.08361111111111111,-0.007899305555555555],[0.08361111111111111,-0.003220486111111111],[0.08361111111111111,0.002734375],[0.08361111111111111,0.006814236111111111],[0.08361111111111111,0.011514756944444444],[0.08361111111111111,0.015868055555555555],[0.08361111111111111,0.020568576388888888],[0.08361111111111111,0.023133680555555557],[0.08361111111111111,0.025225694444444443],[0.08361111111111111,0.026497395833333333],[0.08303385416666667,0.026788194444444444],[0.08276041666666667,0.026788194444444444],[0.08248697916666667,0.026788194444444444],[0.08190538194444444,0.026788194444444444]],[[0.0035590277777777777,-0.2034982638888889],[0.0035590277777777777,-0.2034982638888889],[0.0035590277777777777,-0.2034982638888889],[0.0035590277777777777,-0.2034982638888889],[0.0035590277777777777,-0.2034982638888889],[0.0035590277777777777,-0.2034982638888889],[0.0035590277777777777,-0.2034982638888889],[0.0035590277777777777,-0.2034982638888889],[0.0035590277777777777,-0.2034982638888889],[0.0035590277777777777,-0.2034982638888889],[0.0035590277777777777,-0.20438802083333332],[0.002282986111111111,-0.20533854166666668],[0.0012630208333333332,-0.2070138888888889],[-0.0005121527777777778,-0.20878038194444445],[-0.0027821180555555555,-0.2111111111111111],[-0.005151909722222223,-0.21388020833333332],[-0.008441840277777777,-0.21674913194444445],[-0.0112109375,-0.21909722222222222],[-0.015625,-0.2230902777777778],[-0.017222222222222222,-0.22468315972222222],[-0.020099826388888888,-0.22755208333333332],[-0.023780381944444446,-0.23],[-0.030985243055555556,-0.23445746527777778],[-0.03467013888888889,-0.2356814236111111],[-0.038776041666666664,-0.2373220486111111],[-0.042881944444444445,-0.23896267361111112],[-0.04544704861111111,-0.24041232638888888],[-0.04544704861111111,-0.24041232638888888],[-0.04544704861111111,-0.24041232638888888],[-0.04544704861111111,-0.24041232638888888],[-0.04544704861111111,-0.24041232638888888],[-0.04544704861111111,-0.24041232638888888],[-0.04544704861111111,-0.24041232638888888],[-0.04544704861111111,-0.24041232638888888],[-0.04544704861111111,-0.24041232638888888],[-0.04544704861111111,-0.24041232638888888],[-0.04544704861111111,-0.24041232638888888],[-0.04544704861111111,-0.24041232638888888],[-0.04544704861111111,-0.24041232638888888],[-0.04544704861111111,-0.24041232638888888],[-0.04544704861111111,-0.24041232638888888],[-0.04544704861111111,-0.24041232638888888],[-0.048016493055555554,-0.24041232638888888],[-0.056796875,-0.24041232638888888],[-0.07465711805555555,-0.24041232638888888],[-0.0887109375,-0.24041232638888888],[-0.10171875,-0.24041232638888888],[-0.11296440972222223,-0.24041232638888888],[-0.11904513888888889,-0.24041232638888888],[-0.12496961805555555,-0.24041232638888888],[-0.12854166666666667,-0.24041232638888888],[-0.12958767361111112,-0.24041232638888888],[-0.12958767361111112,-0.24041232638888888],[-0.12958767361111112,-0.24041232638888888],[-0.12958767361111112,-0.24041232638888888],[-0.12958767361111112,-0.24041232638888888],[-0.12958767361111112,-0.24041232638888888],[-0.12958767361111112,-0.24041232638888888],[-0.12958767361111112,-0.24041232638888888],[-0.12958767361111112,-0.24041232638888888],[-0.12958767361111112,-0.24041232638888888],[-0.12958767361111112,-0.24041232638888888],[-0.12958767361111112,-0.24041232638888888],[-0.12958767361111112,-0.24041232638888888],[-0.12958767361111112,-0.24041232638888888],[-0.12958767361111112,-0.24041232638888888],[-0.12958767361111112,-0.24041232638888888],[-0.12958767361111112,-0.24041232638888888],[-0.12958767361111112,-0.24041232638888888],[-0.12958767361111112,-0.24041232638888888],[-0.12958767361111112,-0.24041232638888888],[-0.12958767361111112,-0.24041232638888888],[-0.13010416666666666,-0.24041232638888888],[-0.13178385416666666,-0.24041232638888888],[-0.1334592013888889,-0.24041232638888888],[-0.13555121527777778,-0.24041232638888888],[-0.13764322916666666,-0.24041232638888888],[-0.13973524305555557,-0.2400607638888889],[-0.14230034722222223,-0.2400607638888889],[-0.14438802083333332,-0.23971354166666667],[-0.146953125,-0.23971354166666667],[-0.1490451388888889,-0.23971354166666667],[-0.15161024305555557,-0.23971354166666667],[-0.15464409722222222,-0.23933159722222222],[-0.1576736111111111,-0.23894965277777777],[-0.1612326388888889,-0.23815972222222223],[-0.16478732638888888,-0.2365842013888889],[-0.17014322916666666,-0.23434461805555556],[-0.17543402777777778,-0.23169704861111112],[-0.18179253472222223,-0.22779079861111112],[-0.18952690972222222,-0.22208767361111112],[-0.19554253472222222,-0.2183767361111111],[-0.20082899305555554,-0.2152907986111111],[-0.20378472222222221,-0.21417100694444444],[-0.20471354166666667,-0.21417100694444444],[-0.20471354166666667,-0.21417100694444444],[-0.20471354166666667,-0.21417100694444444],[-0.20471354166666667,-0.21417100694444444],[-0.20471354166666667,-0.21417100694444444],[-0.20471354166666667,-0.21417100694444444],[-0.20471354166666667,-0.21417100694444444],[-0.20471354166666667,-0.21417100694444444],[-0.20471354166666667,-0.21417100694444444],[-0.20471354166666667,-0.21417100694444444],[-0.20471354166666667,-0.21417100694444444],[-0.20471354166666667,-0.21417100694444444],[-0.20471354166666667,-0.21391059027777778],[-0.20471354166666667,-0.21033854166666666],[-0.20471354166666667,-0.20498697916666667],[-0.20471354166666667,-0.19615885416666667],[-0.20403211805555554,-0.1800564236111111],[-0.20337673611111112,-0.16293836805555556],[-0.20272135416666667,-0.14872829861111111],[-0.2018793402777778,-0.12785590277777778],[-0.20061197916666668,-0.11194010416666667],[-0.199609375,-0.0990625],[-0.199609375,-0.09244791666666667],[-0.19907552083333332,-0.0850173611111111],[-0.19907552083333332,-0.07840277777777778],[-0.19907552083333332,-0.07359375],[-0.19907552083333332,-0.06830729166666667],[-0.19863715277777777,-0.06301215277777777],[-0.19823350694444444,-0.058932291666666664],[-0.19823350694444444,-0.05637152777777778],[-0.19823350694444444,-0.05427951388888889],[-0.19791666666666666,-0.05259548611111111],[-0.19791666666666666,-0.05091579861111111],[-0.19757378472222223,-0.04923611111111111],[-0.19725694444444444,-0.04796006944444445],[-0.19725694444444444,-0.046684027777777776],[-0.19725694444444444,-0.04610677083333333],[-0.19725694444444444,-0.045182291666666666],[-0.19697048611111112,-0.04425347222222222],[-0.19665364583333333,-0.04332465277777778],[-0.1963671875,-0.04274739583333333],[-0.1963671875,-0.042456597222222225],[-0.1963671875,-0.042456597222222225],[-0.1963671875,-0.042456597222222225],[-0.1963671875,-0.042456597222222225]],[[0.001154513888888889,-0.2070920138888889],[0.001154513888888889,-0.2070920138888889],[0.001154513888888889,-0.2070920138888889],[0.001154513888888889,-0.2070920138888889],[0.001154513888888889,-0.2070920138888889],[0.001154513888888889,-0.2070920138888889],[0.001154513888888889,-0.2070920138888889],[0.001154513888888889,-0.2070920138888889],[0.001154513888888889,-0.2070920138888889],[0.0016710069444444444,-0.2070920138888889],[0.004353298611111111,-0.2070920138888889],[0.007899305555555555,-0.2070920138888889],[0.014500868055555555,-0.2070920138888889],[0.024110243055555557,-0.20655381944444445],[0.036983506944444446,-0.20481770833333332],[0.05182725694444444,-0.20235677083333334],[0.07423611111111111,-0.1972829861111111],[0.0946875,-0.19377170138888888],[0.108984375,-0.1906640625],[0.1250607638888889,-0.18743489583333334],[0.13816840277777778,-0.184453125],[0.14861979166666667,-0.1822482638888889],[0.15907118055555555,-0.17947916666666666],[0.17036458333333335,-0.17721354166666667],[0.1807769097222222,-0.1750173611111111],[0.19120225694444445,-0.17281684027777777],[0.20076388888888888,-0.17121961805555555],[0.20936631944444445,-0.16961371527777777],[0.21471788194444444,-0.1687282986111111],[0.22000434027777777,-0.16784288194444444],[0.22567708333333333,-0.1674609375],[0.22782552083333332,-0.16713975694444444],[0.22839409722222223,-0.16684895833333332],[0.22839409722222223,-0.1662109375]]]",3,"[88,139,34]",,,,,,,,,,,,,,museum3.jpg,space,9.198085,0,8,8,71,1,metroInside2.jpg,pavilion5.jpg,metroInside3.jpg,jewelrystore.jpg,,
Image_List_4,,,,,,,,,,,,,,,,44614,2020-11-24_20h26.32.131,analogCatScenes,2020.1.3,MacIntel,60,"[1440,900]","[[[-0.002204861111111111,-0.1997482638888889],[-0.002204861111111111,-0.1997482638888889],[-0.002204861111111111,-0.1997482638888889],[-0.002204861111111111,-0.1997482638888889],[-0.002204861111111111,-0.1997482638888889],[-0.002204861111111111,-0.1997482638888889],[-0.002204861111111111,-0.1997482638888889],[-0.002204861111111111,-0.1997482638888889],[-0.002204861111111111,-0.1997482638888889],[-0.002204861111111111,-0.1997482638888889],[-0.002204861111111111,-0.1997482638888889],[-0.002204861111111111,-0.1997482638888889],[-0.002204861111111111,-0.1997482638888889],[-0.002204861111111111,-0.1997482638888889],[-0.002204861111111111,-0.1997482638888889],[-0.002204861111111111,-0.1997482638888889],[-0.002204861111111111,-0.1997482638888889],[-0.002204861111111111,-0.1997482638888889],[-0.002204861111111111,-0.1997482638888889],[-0.002204861111111111,-0.1997482638888889],[-0.002204861111111111,-0.1997482638888889],[-0.002204861111111111,-0.1997482638888889],[-0.002204861111111111,-0.1997482638888889],[-0.002204861111111111,-0.1997482638888889],[-0.002204861111111111,-0.1997482638888889],[-0.002204861111111111,-0.1997482638888889],[-0.002204861111111111,-0.1997482638888889],[-0.002204861111111111,-0.1997482638888889],[-0.0019487847222222222,-0.1997482638888889],[-0.0019487847222222222,-0.1997482638888889],[-0.0016840277777777778,-0.1997482638888889],[-0.0016840277777777778,-0.1997482638888889],[-0.0014236111111111112,-0.1997482638888889],[-0.0014236111111111112,-0.1997482638888889],[-0.0011631944444444443,-0.1997482638888889],[-0.0011631944444444443,-0.1997482638888889],[-0.0009027777777777777,-0.1997482638888889],[-0.0009027777777777777,-0.1997482638888889],[-0.0009027777777777777,-0.1997482638888889],[-0.0006423611111111111,-0.1997482638888889],[-0.0006423611111111111,-0.1997482638888889],[-0.0006423611111111111,-0.1997482638888889],[-0.0006423611111111111,-0.1997482638888889],[-0.0006423611111111111,-0.1997482638888889],[-0.0006423611111111111,-0.1994878472222222],[-0.0006423611111111111,-0.1994878472222222],[-0.0006423611111111111,-0.19921875],[-0.0006423611111111111,-0.1989453125],[-0.0006423611111111111,-0.19838541666666668],[-0.0006423611111111111,-0.1978081597222222],[-0.0006423611111111111,-0.1972265625],[-0.0006423611111111111,-0.19595052083333334],[-0.0006423611111111111,-0.19426649305555554],[-0.0002951388888888889,-0.19217447916666666],[0.0004296875,-0.1896137152777778],[0.002109375,-0.18548177083333334],[0.004639756944444445,-0.18081163194444444],[0.00798611111111111,-0.17411892361111111],[0.012087673611111112,-0.16593315972222222],[0.0201953125,-0.15237847222222223],[0.025633680555555555,-0.14309461805555557],[0.030815972222222224,-0.1352951388888889],[0.03530381944444445,-0.1278168402777778],[0.03965277777777778,-0.12148871527777778],[0.04486545138888889,-0.11422309027777777],[0.04854600694444444,-0.109140625],[0.05228298611111111,-0.10352864583333334],[0.05555989583333333,-0.10024305555555556],[0.05748263888888889,-0.09755208333333333],[0.05874131944444445,-0.09628472222222222],[0.059340277777777777,-0.09536024305555556],[0.05991319444444444,-0.09506944444444444],[0.05991319444444444,-0.09477864583333333],[0.05964409722222222,-0.09477864583333333],[0.05964409722222222,-0.09477864583333333]],[[0.0024045138888888888,-0.198203125],[0.0024045138888888888,-0.198203125],[0.0024045138888888888,-0.198203125],[0.0024045138888888888,-0.198203125],[0.0024045138888888888,-0.198203125],[0.0024045138888888888,-0.198203125],[0.0024045138888888888,-0.198203125],[0.0024045138888888888,-0.198203125],[0.0024045138888888888,-0.198203125],[0.0024045138888888888,-0.198203125],[0.0024045138888888888,-0.198203125],[0.005303819444444444,-0.198203125],[0.008394097222222223,-0.198203125],[0.015720486111111112,-0.198203125],[0.03013454861111111,-0.198203125],[0.04618055555555556,-0.198203125],[0.05867621527777778,-0.198203125],[0.07667534722222222,-0.198203125],[0.09075086805555556,-0.198203125],[0.0990407986111111,-0.19876736111111112],[0.112734375,-0.19983072916666667],[0.1168923611111111,-0.20026909722222222],[0.1215625,-0.2011111111111111],[0.12512586805555556,-0.20148871527777779],[0.1272092013888889,-0.2018359375],[0.1284765625,-0.20215277777777776],[0.12876302083333332,-0.20215277777777776],[0.12876302083333332,-0.20215277777777776]]]",2,"[75,28]",,,,,,,,,,,,,,operatingroom1.jpg,space,5.25027,0,9,9,74,1,newsstand2.jpg,playground10.jpg,observatory4.jpeg,lightingstore2.jpg,,
Image_List_4,,,,,,,,,,,,,,,,44614,2020-11-24_20h26.32.131,analogCatScenes,2020.1.3,MacIntel,60,"[1440,900]","[[[0.008025173611111111,-0.1986111111111111],[0.008025173611111111,-0.1986111111111111],[0.008025173611111111,-0.1986111111111111],[0.008025173611111111,-0.1986111111111111],[0.008025173611111111,-0.1986111111111111],[0.008025173611111111,-0.1986111111111111],[0.008025173611111111,-0.1986111111111111],[0.008025173611111111,-0.1986111111111111],[0.008025173611111111,-0.1986111111111111],[0.007764756944444445,-0.1986111111111111],[0.008680555555555556,-0.1986111111111111],[0.010347222222222223,-0.1986111111111111],[0.013424479166666666,-0.19895399305555556],[0.01758246527777778,-0.19895399305555556],[0.022274305555555554,-0.19895399305555556],[0.02884548611111111,-0.19895399305555556],[0.03830295138888889,-0.19791666666666666],[0.05050347222222222,-0.19383246527777778],[0.06528211805555556,-0.18674913194444445],[0.08701388888888889,-0.17628472222222222],[0.10427083333333333,-0.16591145833333334],[0.12288194444444445,-0.15374131944444444],[0.14436197916666665,-0.13914496527777778],[0.1590842013888889,-0.12848524305555556],[0.1749652777777778,-0.11601128472222222],[0.19194010416666665,-0.10207899305555555],[0.2001953125,-0.09491319444444445],[0.20690972222222223,-0.08871961805555556],[0.21090711805555556,-0.08512586805555555],[0.21418836805555555,-0.0822482638888889],[0.21601996527777778,-0.08006076388888889],[0.2169704861111111,-0.07878472222222223],[0.21754340277777778,-0.078203125],[0.21811631944444446,-0.07762152777777778],[0.21838541666666667,-0.07734809027777778],[0.218671875,-0.07734809027777778],[0.21922743055555555,-0.07707465277777778],[0.21922743055555555,-0.07707465277777778],[0.21922743055555555,-0.07680555555555556],[0.21922743055555555,-0.07680555555555556]]]",1,[40],,,,,,,,,,,,,,lab4.jpg,space,1.965685,0,10,10,63,1,hut2.jpg,museum6.jpg,hotelRoom2.jpg,highway2.jpg,,
Image_List_4,,,,,,,,,,,,,,,,44614,2020-11-24_20h26.32.131,analogCatScenes,2020.1.3,MacIntel,60,"[1440,900]","[[[-0.004357638888888889,-0.19735243055555557],[-0.004357638888888889,-0.19735243055555557],[-0.004357638888888889,-0.19735243055555557],[-0.004357638888888889,-0.19735243055555557],[-0.004357638888888889,-0.19735243055555557],[-0.004357638888888889,-0.19735243055555557],[-0.004357638888888889,-0.19735243055555557],[-0.004357638888888889,-0.19735243055555557],[-0.004357638888888889,-0.19735243055555557],[-0.004357638888888889,-0.19735243055555557],[-0.004357638888888889,-0.19735243055555557],[-0.004357638888888889,-0.19735243055555557],[-0.005655381944444445,-0.19735243055555557],[-0.018719618055555557,-0.19611111111111112],[-0.05008246527777778,-0.18690104166666666],[-0.07284288194444444,-0.17782552083333333],[-0.08911892361111111,-0.17060329861111112],[-0.10813802083333333,-0.16215711805555555],[-0.12181423611111111,-0.15597222222222223],[-0.13258680555555555,-0.15085069444444443],[-0.14130208333333333,-0.1467534722222222],[-0.1493576388888889,-0.14272569444444444],[-0.1578732638888889,-0.13740017361111112],[-0.16444444444444445,-0.1318359375],[-0.16981336805555555,-0.1259939236111111],[-0.17361979166666666,-0.120234375],[-0.17560329861111112,-0.11667534722222223],[-0.1772482638888889,-0.112578125],[-0.17804253472222223,-0.10900607638888889],[-0.17839409722222221,-0.10732638888888889],[-0.17839409722222221,-0.10674913194444445],[-0.17839409722222221,-0.10646267361111111],[-0.17839409722222221,-0.10646267361111111],[-0.17839409722222221,-0.10646267361111111],[-0.17839409722222221,-0.10646267361111111]]]",1,[35],,,,,,,,,,,,,,pavilion3.jpg,space,2.064445,0,11,11,78,1,parkinglot3.jpg,poolhall1.jpg,pier5.jpg,observatory1.jpg,,
Image_List_4,,,,,,,,,,,,,,,,44614,2020-11-24_20h26.32.131,analogCatScenes,2020.1.3,MacIntel,60,"[1440,900]","[[[-0.003207465277777778,-0.19608940972222222],[-0.003207465277777778,-0.19608940972222222],[-0.003207465277777778,-0.19608940972222222],[-0.003207465277777778,-0.19608940972222222],[-0.003207465277777778,-0.19608940972222222],[-0.003207465277777778,-0.19608940972222222],[-0.003207465277777778,-0.19608940972222222],[-0.0013802083333333333,-0.19608940972222222],[0.004939236111111111,-0.1939496527777778],[0.019856770833333332,-0.18614149305555555],[0.05074652777777778,-0.1667361111111111],[0.08715277777777777,-0.1450173611111111],[0.1311935763888889,-0.11901909722222222],[0.16085069444444444,-0.1037326388888889],[0.17808159722222222,-0.0954861111111111],[0.19694878472222221,-0.08570746527777778],[0.21380208333333334,-0.07827690972222222],[0.226640625,-0.07216579861111111],[0.2370920138888889,-0.06776475694444445],[0.2431640625,-0.0654296875],[0.24976996527777778,-0.06259114583333333],[0.25505642361111114,-0.060381944444444446],[0.2586111111111111,-0.05877170138888889],[0.2611675347222222,-0.05766059027777778],[0.2617404513888889,-0.057078993055555555]]]",1,[25],,,,,,,,,,,,,,nursery4.jpg,space,1.767495,0,12,12,73,1,musicStore3.jpg,photographer_studio2.jpg,nursery.jpg,library_aisle9.jpg,,
Image_List_4,,,,,,,,,,,,,,,,44614,2020-11-24_20h26.32.131,analogCatScenes,2020.1.3,MacIntel,60,"[1440,900]","[[[0.0022352430555555554,-0.19609375],[0.0022352430555555554,-0.19609375],[0.0022352430555555554,-0.19609375],[0.0022352430555555554,-0.19609375],[0.0022352430555555554,-0.19609375],[0.0022352430555555554,-0.19609375],[0.0022352430555555554,-0.19609375],[0.0022352430555555554,-0.19609375],[0.0022352430555555554,-0.19609375],[0.0022352430555555554,-0.19609375],[0.0022352430555555554,-0.19609375],[0.0022352430555555554,-0.19609375],[0.0022352430555555554,-0.19609375],[0.0022352430555555554,-0.19609375],[0.0022352430555555554,-0.19609375],[0.0022352430555555554,-0.19609375],[0.0022352430555555554,-0.19609375],[0.0022352430555555554,-0.19583333333333333],[0.0022352430555555554,-0.1884939236111111],[0.0004470486111111111,-0.17628472222222222],[-0.004678819444444445,-0.14510416666666667],[-0.013984375,-0.09315538194444445],[-0.016809895833333335,-0.07256944444444445],[-0.02177517361111111,-0.04185329861111111],[-0.02377170138888889,-0.025924479166666667],[-0.02556423611111111,-0.013589409722222221],[-0.026493055555555554,-0.007009548611111111],[-0.027196180555555557,-0.0049175347222222224],[-0.027777777777777776,-0.004626736111111111],[-0.027777777777777776,-0.004626736111111111],[-0.027777777777777776,-0.004626736111111111]],[[0.004440104166666667,-0.19600260416666668],[0.004440104166666667,-0.19600260416666668],[0.004440104166666667,-0.19600260416666668],[0.004440104166666667,-0.19600260416666668],[0.004440104166666667,-0.19600260416666668],[0.004440104166666667,-0.1957421875],[0.009730902777777778,-0.19085503472222223],[0.025729166666666668,-0.17764322916666667],[0.044205729166666666,-0.16366753472222223],[0.0748828125,-0.14525607638888888],[0.11805121527777777,-0.1205859375],[0.13293836805555556,-0.11393663194444445],[0.14302083333333335,-0.10889322916666666],[0.16068142361111112,-0.10063368055555555],[0.16847222222222222,-0.09594618055555555],[0.17413194444444444,-0.09216145833333333],[0.17860243055555555,-0.08903645833333333],[0.1817404513888889,-0.08705729166666666],[0.18319444444444444,-0.08527777777777777]],[[0.005147569444444444,-0.19185763888888888],[0.004622395833333333,-0.19185763888888888],[0.0016145833333333333,-0.19185763888888888],[-0.003650173611111111,-0.19185763888888888],[-0.015985243055555556,-0.18774305555555557],[-0.0334375,-0.18104166666666666],[-0.05545572916666667,-0.1729470486111111],[-0.08159722222222222,-0.16267361111111112],[-0.09970052083333333,-0.15715711805555554],[-0.11880642361111111,-0.15171006944444446],[-0.12681857638888888,-0.14921875],[-0.13444444444444445,-0.14573350694444445],[-0.13866319444444444,-0.14276475694444443],[-0.14125868055555554,-0.13901909722222222],[-0.14125868055555554,-0.13809027777777777],[-0.14125868055555554,-0.13809027777777777]]]",3,"[31,19,16]",,,,,,,,,,,,,,campusquad4.jpg,space,4.199125,0,13,13,16,1,basement.jpg,cafeteria6.jpg,breakroom2.jpg,barbershop2.jpg,,
Image_List_4,,,,,,,,,,,,,,,,44614,2020-11-24_20h26.32.131,analogCatScenes,2020.1.3,MacIntel,60,"[1440,900]","[[[0.0034852430555555557,-0.20509982638888888],[0.0034852430555555557,-0.20509982638888888],[0.0034852430555555557,-0.20509982638888888],[0.0034852430555555557,-0.20509982638888888],[0.0034852430555555557,-0.20509982638888888],[0.0034852430555555557,-0.20509982638888888],[0.0034852430555555557,-0.20509982638888888],[0.0034852430555555557,-0.20509982638888888],[0.0034852430555555557,-0.20509982638888888],[0.0034852430555555557,-0.20509982638888888],[0.0034852430555555557,-0.20509982638888888],[0.0034852430555555557,-0.20509982638888888],[0.0034852430555555557,-0.20509982638888888],[0.0034852430555555557,-0.20509982638888888],[0.0034852430555555557,-0.20509982638888888],[0.0034852430555555557,-0.20509982638888888],[0.0034852430555555557,-0.20509982638888888],[0.0034852430555555557,-0.20509982638888888],[0.0034852430555555557,-0.20509982638888888],[0.0034852430555555557,-0.20509982638888888],[0.0034852430555555557,-0.20509982638888888],[0.0034852430555555557,-0.20509982638888888],[0.0034852430555555557,-0.20458333333333334],[0.0034852430555555557,-0.20458333333333334],[0.0034852430555555557,-0.20458333333333334],[0.0034852430555555557,-0.20458333333333334],[0.0034852430555555557,-0.20458333333333334],[0.0034852430555555557,-0.20458333333333334],[0.0034852430555555557,-0.20458333333333334],[0.0034852430555555557,-0.20458333333333334],[0.0034852430555555557,-0.20458333333333334],[0.0034852430555555557,-0.20458333333333334],[0.0034852430555555557,-0.20458333333333334],[0.0034852430555555557,-0.20458333333333334],[0.0034852430555555557,-0.20458333333333334],[0.0034852430555555557,-0.20458333333333334],[0.0034852430555555557,-0.20458333333333334],[0.0034852430555555557,-0.20458333333333334],[0.0034852430555555557,-0.20458333333333334],[0.0034852430555555557,-0.20458333333333334],[0.0034852430555555557,-0.20458333333333334],[0.0034852430555555557,-0.20458333333333334],[0.0034852430555555557,-0.20458333333333334],[0.0034852430555555557,-0.20458333333333334],[0.0034852430555555557,-0.20458333333333334],[0.0034852430555555557,-0.20458333333333334],[0.0034852430555555557,-0.20458333333333334],[0.0034852430555555557,-0.20458333333333334],[0.0034852430555555557,-0.20458333333333334],[0.0034852430555555557,-0.20458333333333334],[0.0034852430555555557,-0.20458333333333334],[0.0034852430555555557,-0.20458333333333334],[0.0034852430555555557,-0.20458333333333334],[0.0034852430555555557,-0.20458333333333334],[0.0034852430555555557,-0.20458333333333334],[0.0034852430555555557,-0.20458333333333334],[0.0034852430555555557,-0.20458333333333334],[0.0034852430555555557,-0.20406684027777777],[0.004526909722222222,-0.20225694444444445],[0.007170138888888889,-0.19790364583333334],[0.013046875,-0.18989149305555555],[0.023776041666666668,-0.17444010416666667],[0.036458333333333336,-0.15820746527777776],[0.04708767361111111,-0.14687934027777777],[0.05944010416666667,-0.13177083333333334],[0.07138454861111111,-0.11781684027777778],[0.08370225694444444,-0.1044140625],[0.089921875,-0.09765190972222222],[0.09331597222222222,-0.09381076388888888],[0.09476996527777778,-0.09203125],[0.09534288194444444,-0.09144965277777778],[0.09534288194444444,-0.09144965277777778],[0.09534288194444444,-0.09144965277777778],[0.09375868055555556,-0.09144965277777778],[0.09271267361111112,-0.09144965277777778]],[[-0.0009114583333333333,-0.2088888888888889],[-0.0009114583333333333,-0.2088888888888889],[-0.0009114583333333333,-0.2088888888888889],[-0.0009114583333333333,-0.2088888888888889],[-0.0009114583333333333,-0.2088888888888889],[-0.0009114583333333333,-0.2088888888888889],[-0.0009114583333333333,-0.2088888888888889],[-0.0009114583333333333,-0.2088888888888889],[-0.0009114583333333333,-0.2088888888888889],[-0.0009114583333333333,-0.2088888888888889],[-0.0009114583333333333,-0.2088888888888889],[-0.0016927083333333334,-0.2088888888888889],[-0.004709201388888889,-0.2088888888888889],[-0.010004340277777777,-0.20712239583333333],[-0.028116319444444444,-0.20172309027777777],[-0.0497265625,-0.1966796875],[-0.07901909722222222,-0.1893532986111111],[-0.09953125,-0.18446180555555555],[-0.11374131944444445,-0.18135416666666668],[-0.12680989583333332,-0.17836371527777778],[-0.13348524305555556,-0.17836371527777778],[-0.13348524305555556,-0.17836371527777778],[-0.13348524305555556,-0.17836371527777778],[-0.13348524305555556,-0.17836371527777778],[-0.13348524305555556,-0.17836371527777778],[-0.13348524305555556,-0.17836371527777778],[-0.13348524305555556,-0.17836371527777778],[-0.13348524305555556,-0.17836371527777778],[-0.13348524305555556,-0.17836371527777778],[-0.13348524305555556,-0.17836371527777778],[-0.13348524305555556,-0.17836371527777778],[-0.13348524305555556,-0.17836371527777778],[-0.13374565972222222,-0.17836371527777778],[-0.1390407986111111,-0.1774782986111111],[-0.14637586805555555,-0.17505208333333333],[-0.15583767361111112,-0.17294270833333333],[-0.1714279513888889,-0.1685720486111111],[-0.18526041666666668,-0.16435763888888888],[-0.1976388888888889,-0.15903645833333332],[-0.20809895833333333,-0.15463541666666666],[-0.2149609375,-0.15126302083333334],[-0.22356336805555554,-0.14719618055555556],[-0.22821180555555556,-0.14509548611111112],[-0.23190972222222223,-0.14303819444444443],[-0.2356076388888889,-0.14057291666666666],[-0.2383940972222222,-0.13819878472222222],[-0.24095052083333332,-0.13674479166666667],[-0.24260416666666668,-0.13574652777777776],[-0.24387586805555556,-0.13510850694444446],[-0.24483072916666668,-0.13415364583333333],[-0.24610677083333332,-0.13287760416666666],[-0.2475,-0.13078993055555554],[-0.24887586805555556,-0.1287326388888889],[-0.2502083333333333,-0.1270529513888889],[-0.25146267361111113,-0.12579861111111112],[-0.2524782986111111,-0.12411892361111111],[-0.25343315972222225,-0.12284722222222222],[-0.25439236111111113,-0.12188802083333333],[-0.2556684027777778,-0.12061197916666666],[-0.25659288194444446,-0.1196875],[-0.25754340277777776,-0.11873697916666667],[-0.25815538194444443,-0.11780815972222222],[-0.2590798611111111,-0.11688368055555555],[-0.25969184027777775,-0.11595486111111111],[-0.26026475694444445,-0.11566840277777778],[-0.26055555555555554,-0.11508680555555556],[-0.2608463541666667,-0.11508680555555556],[-0.26111545138888886,-0.11508680555555556],[-0.2613888888888889,-0.11508680555555556],[-0.2613888888888889,-0.11508680555555556],[-0.2619444444444444,-0.11508680555555556],[-0.2628168402777778,-0.11479600694444445],[-0.26374131944444446,-0.1144748263888889],[-0.2646614583333333,-0.11387152777777777],[-0.2655859375,-0.11326388888888889],[-0.26653645833333334,-0.11230902777777778],[-0.26749131944444443,-0.11135416666666667],[-0.2681293402777778,-0.11008246527777778],[-0.2690842013888889,-0.10912760416666667],[-0.26969184027777776,-0.108203125],[-0.2703298611111111,-0.10724392361111111],[-0.27065104166666665,-0.10631944444444444],[-0.2712630208333333,-0.105390625],[-0.27155381944444446,-0.10481336805555555],[-0.2721354166666667,-0.10423177083333333],[-0.2724262152777778,-0.10365451388888888],[-0.2726996527777778,-0.1033810763888889],[-0.2726996527777778,-0.1033810763888889],[-0.2726996527777778,-0.1033810763888889],[-0.2726996527777778,-0.1033810763888889],[-0.2724435763888889,-0.1033810763888889],[-0.2711762152777778,-0.10401475694444444],[-0.2711762152777778,-0.10401475694444444]]]",2,"[75,93]",,,,,,,,,,,,,,homegarage4.jpg,space,4.88337,0,14,14,54,1,greenhouse2.jpg,horsebarn11.jpg,gazebo2.jpg,frontFoyer.jpg,,
Image_List_4,,,,,,,,,,,,,,,,44614,2020-11-24_20h26.32.131,analogCatScenes,2020.1.3,MacIntel,60,"[1440,900]","[[[-0.005108506944444444,-0.20383680555555556],[-0.005108506944444444,-0.20383680555555556],[-0.005108506944444444,-0.20383680555555556],[-0.005108506944444444,-0.20383680555555556],[-0.005108506944444444,-0.20383680555555556],[-0.005108506944444444,-0.20383680555555556],[-0.005108506944444444,-0.20383680555555556],[-0.005108506944444444,-0.20383680555555556],[-0.005108506944444444,-0.20383680555555556],[-0.004852430555555555,-0.20383680555555556],[-0.0035850694444444445,-0.20383680555555556],[-0.00005208333333333334,-0.20342881944444444],[0.005190972222222222,-0.2038671875],[0.011740451388888889,-0.20526041666666667],[0.019014756944444444,-0.2057248263888889],[0.025577256944444446,-0.20619357638888888],[0.034375,-0.20619357638888888],[0.043984375,-0.20619357638888888],[0.05443576388888889,-0.20619357638888888],[0.06572916666666667,-0.2050607638888889],[0.0779296875,-0.202734375],[0.09013020833333334,-0.2004079861111111],[0.10058159722222222,-0.1971050347222222],[0.10743489583333334,-0.19426649305555554],[0.1141015625,-0.19143229166666667],[0.119453125,-0.18918836805555556],[0.12352864583333334,-0.18714409722222222],[0.1266840277777778,-0.1855295138888889],[0.1292404513888889,-0.18407118055555555],[0.13132378472222223,-0.18302083333333333],[0.1336284722222222,-0.18171440972222222],[0.1345486111111111,-0.18078559027777777],[0.13512152777777778,-0.18049479166666665],[0.13569444444444445,-0.17991319444444445],[0.13569444444444445,-0.17962239583333334]]]",1,[35],,,,,,,,,,,,,,doctor1.jpg,space,2.53183,0,15,15,36,1,diner14.jpg,dormroom9.jpg,dining_car3.jpg,checkoutcounter9.jpg,,
Image_List_4,,,,,,,,,,,,,,,,44614,2020-11-24_20h26.32.131,analogCatScenes,2020.1.3,MacIntel,60,"[1440,900]","[[[0.004001736111111111,-0.19526475694444445],[0.004001736111111111,-0.19526475694444445],[0.004001736111111111,-0.19526475694444445],[0.004001736111111111,-0.19526475694444445],[0.004001736111111111,-0.19526475694444445],[0.004001736111111111,-0.19526475694444445],[0.004001736111111111,-0.19526475694444445],[0.004001736111111111,-0.19526475694444445],[0.004001736111111111,-0.19526475694444445],[0.004001736111111111,-0.19526475694444445],[0.004001736111111111,-0.19526475694444445],[0.004891493055555555,-0.19410590277777778],[0.008580729166666667,-0.19122829861111112],[0.01802517361111111,-0.18419270833333334],[0.03365451388888889,-0.17331597222222223],[0.05545138888888889,-0.16062934027777778],[0.08120225694444444,-0.1461328125],[0.09843315972222222,-0.13804253472222222],[0.11903645833333333,-0.12770399305555555],[0.13474392361111112,-0.11984375],[0.1551605902777778,-0.10963107638888889],[0.18209635416666667,-0.09515190972222222],[0.18631510416666666,-0.09251302083333333],[0.20358940972222223,-0.08361545138888889],[0.2116449652777778,-0.080078125],[0.21520399305555554,-0.0780859375],[0.21612413194444444,-0.07715711805555556],[0.21644097222222222,-0.0762282986111111]],[[0.00008246527777777778,-0.19453559027777778],[0.00008246527777777778,-0.19453559027777778],[0.00008246527777777778,-0.19453559027777778],[0.00008246527777777778,-0.1942751736111111],[0.00008246527777777778,-0.19058159722222223],[0.00008246527777777778,-0.17921440972222222],[0.00008246527777777778,-0.1668793402777778],[0.00008246527777777778,-0.15089409722222222],[0.00008246527777777778,-0.13377604166666668],[0.00008246527777777778,-0.11987413194444445],[0.00008246527777777778,-0.10680121527777778],[0.00008246527777777778,-0.09641927083333333],[0.00008246527777777778,-0.0868359375],[0.00008246527777777778,-0.08014756944444444],[0.001171875,-0.06973958333333333],[0.0021744791666666666,-0.062421875],[0.0026432291666666666,-0.0570703125],[0.0026432291666666666,-0.05408420138888889],[0.0026432291666666666,-0.052109375],[0.0026432291666666666,-0.052109375],[0.0026432291666666666,-0.052109375]],[[-0.008042534722222222,-0.19879774305555556],[-0.008042534722222222,-0.19879774305555556],[-0.008042534722222222,-0.19879774305555556],[-0.008042534722222222,-0.19879774305555556],[-0.008042534722222222,-0.19879774305555556],[-0.008042534722222222,-0.19879774305555556],[-0.008042534722222222,-0.19879774305555556],[-0.008042534722222222,-0.19879774305555556],[-0.008042534722222222,-0.19879774305555556],[-0.008042534722222222,-0.19879774305555556],[-0.011449652777777777,-0.19879774305555556],[-0.019483506944444444,-0.19622395833333334],[-0.03025607638888889,-0.1905078125],[-0.04711805555555556,-0.18173177083333333],[-0.05880642361111111,-0.1775607638888889],[-0.073984375,-0.17123697916666666],[-0.08806857638888889,-0.16694010416666666],[-0.09848958333333334,-0.16365451388888888],[-0.10439670138888889,-0.16227864583333335],[-0.1158203125,-0.15942274305555557],[-0.12063368055555555,-0.15809895833333334],[-0.1273394097222222,-0.15647135416666666],[-0.12943142361111112,-0.15542100694444444],[-0.1297222222222222,-0.15513020833333332]]]",3,"[28,21,24]",,,,,,,,,,,,,,basement5.jpg,space,4.033255,0,16,16,9,1,auto_showroom3.jpg,bar2.jpg,ballroom2.jpg,arcade2.jpg,,
