image_list,key_resp_intructions.keys,key_resp_intructions.rt,key_resp_intructions_3.keys,key_resp_intructions_3.rt,PracticeComplete_2.keys,PracticeComplete_2.rt,PracticeComplete_3.keys,PracticeComplete_3.rt,demo_trials.thisRepN,demo_trials.thisTrialN,demo_trials.thisN,demo_trials.thisIndex,demo_trials.ran,demo_images,path_images,participant,date,expName,psychopyVersion,OS,frameRate,windowSize,drawing,numDrawings,drawingSizes,practice_complete.keys,practice_complete.rt,PracticeComplete.keys,PracticeComplete.rt,practice_trials.thisRepN,practice_trials.thisTrialN,practice_trials.thisN,practice_trials.thisIndex,practice_trials.ran,practice_images,feedback_images,key_resp_intructions_2.keys,key_resp_intructions_2.rt,Image_List_3,trial_complete.keys,trial_complete.rt,trials.thisRepN,trials.thisTrialN,trials.thisN,trials.thisIndex,trials.ran,Image_List_1,Image_List_2,Image_List_4,Image_List_5,key_resp.keys,key_resp.rt
Image_List_3,space,6.52094,space,0.7632,space,1.910625,space,2.525715,0,0,0,3,1,ahead_right_left.jpg,ahead_right_left_path.jpg,43903,2020-11-08_18h19.45.072,analogCatScenes,2020.1.3,MacIntel,60,,,,,,,,,,,,,,,,,,,,,,,,,,,,,,,
Image_List_3,,,,,space,1.0159,space,0.999265,0,1,1,2,1,ahead_right.jpg,ahead_right_path.jpg,43903,2020-11-08_18h19.45.072,analogCatScenes,2020.1.3,MacIntel,60,,,,,,,,,,,,,,,,,,,,,,,,,,,,,,,
Image_List_3,,,,,space,0.712365,space,0.562045,0,2,2,0,1,ahead.jpg,ahead_path.jpg,43903,2020-11-08_18h19.45.072,analogCatScenes,2020.1.3,MacIntel,60,,,,,,,,,,,,,,,,,,,,,,,,,,,,,,,
Image_List_3,,,,,space,1.43196,space,0.766165,0,3,3,5,1,right.jpg,right_path.jpg,43903,2020-11-08_18h19.45.072,analogCatScenes,2020.1.3,MacIntel,60,,,,,,,,,,,,,,,,,,,,,,,,,,,,,,,
Image_List_3,,,,,space,0.5324,space,0.777095,0,4,4,1,1,ahead_left.jpg,ahead_left_path.jpg,43903,2020-11-08_18h19.45.072,analogCatScenes,2020.1.3,MacIntel,60,,,,,,,,,,,,,,,,,,,,,,,,,,,,,,,
Image_List_3,,,,,space,1.020025,space,0.88189,0,5,5,6,1,right_left.jpg,right_left_path.jpg,43903,2020-11-08_18h19.45.072,analogCatScenes,2020.1.3,MacIntel,60,,,,,,,,,,,,,,,,,,,,,,,,,,,,,,,
Image_List_3,,,,,space,0.568785,space,0.50967,0,6,6,4,1,left.jpg,left_path.jpg,43903,2020-11-08_18h19.45.072,analogCatScenes,2020.1.3,MacIntel,60,,,,,,,,,,,,,,,,,,,,,,,,,,,,,,,
Image_List_3,,,,,,,,,,,,,,,,43903,2020-11-08_18h19.45.072,analogCatScenes,2020.1.3,MacIntel,60,"[1440,900]","[[[0.0023046875,-0.19744791666666667],[0.0023046875,-0.19744791666666667],[0.0023046875,-0.19744791666666667],[0.0023046875,-0.19744791666666667],[0.0023046875,-0.19744791666666667],[0.0023046875,-0.19744791666666667],[0.0023046875,-0.19744791666666667],[0.0023046875,-0.19744791666666667],[0.0023046875,-0.19744791666666667],[0.0023046875,-0.19744791666666667],[0.0023046875,-0.19744791666666667],[0.0023046875,-0.19744791666666667],[0.0023046875,-0.19744791666666667],[0.0023046875,-0.19744791666666667],[0.0023046875,-0.19744791666666667],[0.0023046875,-0.19744791666666667],[0.0023046875,-0.19744791666666667],[0.0023046875,-0.1971875],[0.0025911458333333333,-0.19660590277777779],[0.0031640625,-0.19602430555555556],[0.0034331597222222224,-0.19575086805555555],[0.004006076388888889,-0.19516927083333332],[0.004578993055555556,-0.1948784722222222],[0.005151909722222223,-0.19458767361111112],[0.006358506944444444,-0.1940060763888889],[0.011258680555555555,-0.191015625],[0.023480902777777778,-0.1800737847222222],[0.04191840277777778,-0.16165364583333333],[0.06558159722222222,-0.13798177083333332],[0.08968315972222222,-0.11299479166666666],[0.1032204861111111,-0.10001302083333333],[0.10762586805555556,-0.09641927083333333],[0.11672309027777777,-0.0877560763888889],[0.11890190972222223,-0.08591579861111111],[0.13359375,-0.0725607638888889],[0.1698654513888889,-0.04221354166666667],[0.20424045138888888,-0.014500868055555555],[0.21455729166666668,-0.004835069444444445],[0.22855902777777778,0.0065451388888888885],[0.23465277777777777,0.012113715277777777],[0.23981336805555556,0.015863715277777777],[0.2530121527777778,0.024049479166666665],[0.2615972222222222,0.028880208333333334],[0.26938802083333335,0.033567708333333335],[0.2751866319444444,0.036883680555555555],[0.27686197916666666,0.037235243055555554],[0.2774348958333333,0.037235243055555554],[0.2774348958333333,0.037235243055555554],[0.2774348958333333,0.037235243055555554],[0.2774348958333333,0.037235243055555554],[0.2774348958333333,0.037235243055555554],[0.2774348958333333,0.03669270833333333],[0.2774348958333333,0.036119791666666665],[0.2774348958333333,0.035546875],[0.2774348958333333,0.03497829861111111],[0.2774348958333333,0.034405381944444445],[0.2774348958333333,0.03354600694444444],[0.2774348958333333,0.032625868055555556],[0.2774348958333333,0.03205729166666667],[0.2777517361111111,0.030789930555555556],[0.2783550347222222,0.029869791666666666],[0.27901909722222223,0.028194444444444446],[0.28129340277777776,0.02633246527777778],[0.28447916666666667,0.024375],[0.289765625,0.022174479166666667],[0.29571180555555554,0.0203515625],[0.3023177083333333,0.018467881944444445],[0.3109722222222222,0.015703125],[0.3169184027777778,0.013880208333333333],[0.3216102430555556,0.012178819444444445],[0.3257074652777778,0.010950520833333333],[0.3277907986111111,0.009908854166666667],[0.3291189236111111,0.00927517361111111],[0.3300390625,0.008671875],[0.3306076388888889,0.008103298611111111],[0.3306076388888889,0.008103298611111111],[0.33087239583333333,0.008103298611111111],[0.33087239583333333,0.008103298611111111],[0.33087239583333333,0.008103298611111111],[0.33087239583333333,0.009006076388888888],[0.33087239583333333,0.010282118055555555],[0.33087239583333333,0.010920138888888889]]]",1,[82],space,7.21123,space,1.402955,0,0,0,5,1,right_2.jpg,right_2_path.jpg,,,,,,,,,,,,,,,,
Image_List_3,,,,,,,,,,,,,,,,43903,2020-11-08_18h19.45.072,analogCatScenes,2020.1.3,MacIntel,60,"[1440,900]","[[[-0.0006467013888888889,-0.20455295138888888],[-0.0006467013888888889,-0.20455295138888888],[-0.0006467013888888889,-0.20455295138888888],[-0.0006467013888888889,-0.20455295138888888],[-0.0006467013888888889,-0.20455295138888888],[-0.0006467013888888889,-0.20455295138888888],[-0.0006467013888888889,-0.20455295138888888],[-0.0006467013888888889,-0.20455295138888888],[-0.0006467013888888889,-0.20455295138888888],[-0.0006467013888888889,-0.20455295138888888],[-0.0006467013888888889,-0.19817708333333334],[-0.0006467013888888889,-0.1893402777777778],[-0.0006467013888888889,-0.17525607638888888],[-0.0006467013888888889,-0.16917534722222222],[-0.0006467013888888889,-0.16447482638888888],[-0.0006467013888888889,-0.1623828125],[-0.0006467013888888889,-0.1591015625],[-0.0001779513888888889,-0.15248697916666668],[0.0013194444444444445,-0.1450737847222222],[0.002717013888888889,-0.13856336805555555],[0.0035329861111111113,-0.13445746527777777],[0.003880208333333333,-0.13207465277777777],[0.003880208333333333,-0.13149305555555554],[0.003880208333333333,-0.12820746527777777],[0.004635416666666667,-0.12516927083333335],[0.005013020833333334,-0.12159722222222222],[0.005390625,-0.11856770833333333],[0.005703125,-0.11688802083333333],[0.006076388888888889,-0.11434027777777778],[0.008506944444444444,-0.10710503472222223],[0.012881944444444444,-0.09655815972222222],[0.01908420138888889,-0.08157552083333333],[0.021375868055555556,-0.07562934027777778],[0.022573784722222223,-0.07205729166666666],[0.022890625,-0.07037326388888888],[0.02329861111111111,-0.06768229166666667],[0.025121527777777777,-0.06172743055555555],[0.027543402777777778,-0.05486545138888889],[0.029366319444444445,-0.04891059027777778],[0.03015190972222222,-0.04534288194444445],[0.030963541666666667,-0.0412109375],[0.03177517361111111,-0.037126736111111114],[0.03359375,-0.02845920138888889],[0.034440104166666666,-0.023758680555555557],[0.0351953125,-0.02065972222222222],[0.035481770833333336,-0.019322916666666665],[0.035481770833333336,-0.018684895833333333],[0.035481770833333336,-0.018411458333333332],[0.035481770833333336,-0.018411458333333332],[0.035481770833333336,-0.018146701388888888],[0.035481770833333336,-0.017569444444444443],[0.03490451388888889,-0.0169921875],[0.032174479166666665,-0.015620659722222222],[0.030655381944444445,-0.015238715277777778]],[[-0.0033463541666666667,-0.2019748263888889],[-0.0033463541666666667,-0.2019748263888889],[-0.0033463541666666667,-0.2019748263888889],[-0.0033463541666666667,-0.2019748263888889],[-0.0033463541666666667,-0.2019748263888889],[-0.0033463541666666667,-0.2019748263888889],[-0.0033463541666666667,-0.2019748263888889],[-0.0033463541666666667,-0.2019748263888889],[-0.0033463541666666667,-0.2019748263888889],[-0.0033463541666666667,-0.2019748263888889],[-0.002560763888888889,-0.20118489583333332],[0.006158854166666667,-0.1918923611111111],[0.02314670138888889,-0.1736675347222222],[0.02877170138888889,-0.1670920138888889],[0.03414496527777778,-0.16171006944444444],[0.03547309027777778,-0.16002604166666667],[0.03651475694444444,-0.15938802083333334],[0.03884114583333333,-0.15815972222222222],[0.05075086805555556,-0.14749565972222223],[0.05677951388888889,-0.14139322916666666],[0.0628125,-0.13529079861111112],[0.06677951388888889,-0.13131510416666667],[0.07233940972222222,-0.12593315972222222],[0.08894097222222222,-0.11145833333333334],[0.09569444444444444,-0.10469618055555556],[0.10065972222222222,-0.09874565972222223],[0.105625,-0.09279513888888889],[0.10754774305555556,-0.09010416666666667],[0.11597222222222223,-0.08000868055555556],[0.1253515625,-0.07178385416666666],[0.13072048611111112,-0.06593315972222222],[0.13546875,-0.0607421875],[0.13815104166666667,-0.05881076388888889],[0.1394748263888889,-0.05846354166666667],[0.14004774305555556,-0.05846354166666667],[0.1403125,-0.05846354166666667],[0.1403125,-0.05846354166666667],[0.14057291666666666,-0.05846354166666667],[0.14057291666666666,-0.05846354166666667],[0.14083333333333334,-0.05846354166666667],[0.14083333333333334,-0.05846354166666667],[0.14109809027777778,-0.05846354166666667],[0.14136284722222223,-0.05846354166666667],[0.1419357638888889,-0.05846354166666667],[0.15048177083333333,-0.0520703125],[0.15404513888888888,-0.050078125],[0.1573263888888889,-0.04761284722222222],[0.15960069444444444,-0.0457421875],[0.16086805555555556,-0.04509982638888889],[0.16144097222222223,-0.04480902777777778],[0.16144097222222223,-0.04480902777777778],[0.16170572916666667,-0.04480902777777778],[0.16170572916666667,-0.04453559027777778],[0.16170572916666667,-0.04453559027777778],[0.16170572916666667,-0.04453559027777778],[0.16170572916666667,-0.04453559027777778],[0.16170572916666667,-0.04453559027777778],[0.1614453125,-0.04453559027777778],[0.16039930555555557,-0.04453559027777778]],[[-0.0012369791666666666,-0.19473524305555556],[-0.0012369791666666666,-0.19473524305555556],[-0.0012369791666666666,-0.19473524305555556],[-0.0012369791666666666,-0.19473524305555556],[-0.0012369791666666666,-0.19473524305555556],[-0.0012369791666666666,-0.19473524305555556],[-0.0012369791666666666,-0.19473524305555556],[-0.0025434027777777777,-0.19473524305555556],[-0.007243923611111111,-0.19473524305555556],[-0.013919270833333334,-0.1937890625],[-0.020499131944444443,-0.19190538194444445],[-0.030065104166666665,-0.19030815972222223],[-0.03740017361111111,-0.18788194444444445],[-0.04578125,-0.18498263888888888],[-0.053237847222222225,-0.18151909722222223],[-0.05793836805555556,-0.17896267361111112],[-0.0634201388888889,-0.17574652777777777],[-0.06890190972222222,-0.17253038194444445],[-0.07338107638888888,-0.16940538194444443],[-0.07764322916666666,-0.16640625],[-0.08442274305555555,-0.16142361111111111],[-0.08606770833333334,-0.16019097222222223],[-0.09071614583333333,-0.1570529513888889],[-0.09435763888888889,-0.15502170138888888],[-0.09823784722222222,-0.15243055555555557],[-0.10384114583333333,-0.1496267361111111],[-0.10741319444444444,-0.14804253472222223],[-0.11110677083333333,-0.1463671875],[-0.1142013888888889,-0.14484809027777779],[-0.11676215277777778,-0.14338975694444445],[-0.11980034722222223,-0.1418706597222222],[-0.1223654513888889,-0.1404123263888889],[-0.12454861111111111,-0.1385763888888889],[-0.1271875,-0.13669704861111112],[-0.13133680555555555,-0.13406684027777777],[-0.13453993055555555,-0.131640625],[-0.13842013888888888,-0.12858072916666666],[-0.142265625,-0.1255859375],[-0.14730902777777777,-0.12145833333333333],[-0.15235243055555556,-0.11779947916666667],[-0.15739583333333335,-0.113671875],[-0.16278211805555556,-0.10923177083333334],[-0.1661284722222222,-0.106328125],[-0.16952690972222223,-0.10248697916666667],[-0.17228732638888888,-0.0997265625],[-0.17412760416666667,-0.0975390625],[-0.17543836805555554,-0.09556423611111112],[-0.1760503472222222,-0.09463541666666667],[-0.17634114583333332,-0.09405381944444445],[-0.176953125,-0.093125],[-0.17765190972222222,-0.09103298611111112],[-0.17838541666666666,-0.08846788194444444],[-0.1795269097222222,-0.0854296875],[-0.18117621527777777,-0.08132378472222222],[-0.18237413194444443,-0.0777734375],[-0.1831597222222222,-0.07423611111111111],[-0.1843012152777778,-0.07119791666666667],[-0.1850043402777778,-0.06758680555555556],[-0.1856467013888889,-0.06631076388888889],[-0.1859375,-0.06572916666666667],[-0.18622829861111112,-0.06543836805555556],[-0.18649739583333333,-0.06543836805555556],[-0.18649739583333333,-0.06543836805555556],[-0.18676649305555557,-0.06543836805555556],[-0.18676649305555557,-0.06543836805555556],[-0.18676649305555557,-0.06626302083333334],[-0.18676649305555557,-0.06831163194444445]]]",3,"[54,59,67]",space,5.98101,space,2.29736,0,1,1,3,1,ahead_right_left_2.jpg,ahead_right_left_2_path.jpg,,,,,,,,,,,,,,,,
Image_List_3,,,,,,,,,,,,,,,,43903,2020-11-08_18h19.45.072,analogCatScenes,2020.1.3,MacIntel,60,"[1440,900]","[[[-0.005815972222222222,-0.20919270833333334],[-0.005815972222222222,-0.20919270833333334],[-0.005815972222222222,-0.20919270833333334],[-0.005815972222222222,-0.20919270833333334],[-0.005815972222222222,-0.20919270833333334],[-0.005815972222222222,-0.20919270833333334],[-0.005815972222222222,-0.20919270833333334],[-0.005815972222222222,-0.20919270833333334],[-0.005815972222222222,-0.20919270833333334],[-0.005815972222222222,-0.20919270833333334],[-0.005815972222222222,-0.20840711805555556],[-0.005815972222222222,-0.2001953125],[-0.007174479166666667,-0.18504774305555555],[-0.010056423611111111,-0.16338107638888888],[-0.013003472222222222,-0.140546875],[-0.01576388888888889,-0.11643229166666667],[-0.021223958333333334,-0.09046006944444444],[-0.02705295138888889,-0.06878038194444444],[-0.03895399305555555,-0.03828125],[-0.052734375,-0.00640625],[-0.06907986111111111,0.028098958333333333],[-0.083203125,0.056310763888888886],[-0.09651475694444445,0.07980034722222222],[-0.10951388888888888,0.10202690972222223],[-0.11996961805555556,0.12442708333333333],[-0.13147135416666667,0.15269097222222222],[-0.13608940972222222,0.16323784722222223],[-0.14024305555555555,0.17207465277777778],[-0.14232638888888888,0.17624131944444443],[-0.14340711805555556,0.1783984375],[-0.1439887152777778,0.17868923611111112],[-0.1439887152777778,0.17868923611111112],[-0.1439887152777778,0.17868923611111112],[-0.1439887152777778,0.17868923611111112]],[[-0.010603298611111112,-0.19078993055555554],[-0.010603298611111112,-0.19078993055555554],[-0.010603298611111112,-0.19078993055555554],[-0.010603298611111112,-0.19078993055555554],[-0.010603298611111112,-0.19078993055555554],[-0.010603298611111112,-0.19078993055555554],[-0.010603298611111112,-0.19078993055555554],[-0.010603298611111112,-0.19078993055555554],[-0.010603298611111112,-0.19078993055555554],[-0.010603298611111112,-0.19078993055555554],[-0.006827256944444445,-0.18194010416666667],[-0.00013020833333333333,-0.16919704861111112],[0.004835069444444445,-0.15830729166666666],[0.018489583333333334,-0.1348654513888889],[0.027144097222222222,-0.12253472222222223],[0.04010416666666667,-0.10380208333333334],[0.06437065972222222,-0.06762152777777777],[0.07895833333333334,-0.043125],[0.09770399305555555,-0.010091145833333334],[0.11579427083333334,0.01918402777777778],[0.12556423611111112,0.036779513888888886],[0.1423090277777778,0.06455729166666667],[0.16128038194444444,0.09381510416666666],[0.16718315972222222,0.10186197916666667],[0.1725173611111111,0.11047309027777778],[0.17563368055555556,0.11495225694444444],[0.17702256944444444,0.117109375],[0.17762586805555555,0.11803819444444444],[0.18389322916666667,0.12566840277777777],[0.19273871527777778,0.13442708333333334],[0.19614149305555556,0.13828125],[0.1996527777777778,0.14274305555555555],[0.20157552083333333,0.14543402777777778],[0.20246527777777779,0.14665364583333335],[0.20246527777777779,0.14692708333333335],[0.20246527777777779,0.14692708333333335],[0.20246527777777779,0.14719618055555556],[0.20246527777777779,0.14719618055555556],[0.20246527777777779,0.14719618055555556],[0.19978732638888888,0.14719618055555556]]]",2,"[34,40]",space,4.396385,space,0.780705,0,2,2,6,1,right_left_2.jpg,right_left_2_path.jpg,,,,,,,,,,,,,,,,
Image_List_3,,,,,,,,,,,,,,,,43903,2020-11-08_18h19.45.072,analogCatScenes,2020.1.3,MacIntel,60,"[1440,900]","[[[-0.0006944444444444445,-0.19706163194444445],[-0.0006944444444444445,-0.19706163194444445],[-0.0006944444444444445,-0.19706163194444445],[-0.0006944444444444445,-0.19706163194444445],[-0.0006944444444444445,-0.18177951388888888],[-0.0006944444444444445,-0.14645833333333333],[-0.0006944444444444445,-0.05176215277777778],[-0.0006944444444444445,0.034205729166666664],[-0.0006944444444444445,0.09186631944444444],[0.003936631944444445,0.15917100694444444],[0.005,0.22086805555555555],[0.005,0.2471831597222222],[0.005,0.2597699652777778],[0.005,0.26897569444444447],[0.005,0.27166666666666667],[0.005,0.27195746527777775],[0.005,0.27195746527777775]]]",1,[17],space,1.636065,space,0.522185,0,3,3,0,1,ahead_2.jpg,ahead_2_path.jpg,,,,,,,,,,,,,,,,
Image_List_3,,,,,,,,,,,,,,,,43903,2020-11-08_18h19.45.072,analogCatScenes,2020.1.3,MacIntel,60,"[1440,900]","[[[0.0026822916666666666,-0.20435329861111112],[0.0026822916666666666,-0.20435329861111112],[0.0026822916666666666,-0.20435329861111112],[0.0026822916666666666,-0.20435329861111112],[0.0026822916666666666,-0.20435329861111112],[0.0026822916666666666,-0.20435329861111112],[0.0026822916666666666,-0.20081597222222222],[0.0026822916666666666,-0.16875434027777778],[0.0026822916666666666,-0.08311197916666667],[0.009448784722222223,0.015499131944444444],[0.018663194444444444,0.10507378472222222],[0.03427517361111111,0.241796875],[0.039036458333333336,0.30328993055555553],[0.041480034722222225,0.3542881944444444],[0.041480034722222225,0.3714236111111111],[0.041480034722222225,0.39450086805555556],[0.041480034722222225,0.4041666666666667],[0.041480034722222225,0.40584635416666665],[0.041480034722222225,0.40584635416666665],[0.041480034722222225,0.40584635416666665]]]",1,[20],space,3.07718,space,0.834875,0,4,4,1,1,ahead_left_2.jpg,ahead_left_2_path.jpg,,,,,,,,,,,,,,,,
Image_List_3,,,,,,,,,,,,,,,,43903,2020-11-08_18h19.45.072,analogCatScenes,2020.1.3,MacIntel,60,"[1440,900]","[[[0.005607638888888889,-0.20309461805555556],[0.005607638888888889,-0.20309461805555556],[0.005607638888888889,-0.20309461805555556],[0.005607638888888889,-0.20309461805555556],[0.005607638888888889,-0.20309461805555556],[0.005607638888888889,-0.20309461805555556],[0.005607638888888889,-0.20283420138888889],[0.005607638888888889,-0.18450086805555554],[0.005607638888888889,-0.12708333333333333],[0.005607638888888889,-0.041979166666666665],[0.005607638888888889,0.0227734375],[0.005607638888888889,0.0637717013888889],[0.005607638888888889,0.08736111111111111],[0.005607638888888889,0.11469184027777778],[0.004661458333333333,0.12005208333333334],[0.003459201388888889,0.12421875],[0.0024131944444444444,0.12630208333333334],[0.0021223958333333333,0.12659288194444446],[0.0021223958333333333,0.12659288194444446]],[[0.005651041666666667,-0.19697048611111112],[0.005651041666666667,-0.19697048611111112],[0.005651041666666667,-0.19697048611111112],[0.005651041666666667,-0.19697048611111112],[0.005651041666666667,-0.19697048611111112],[0.005651041666666667,-0.19697048611111112],[0.0124609375,-0.19697048611111112],[0.03485243055555556,-0.1914236111111111],[0.07695746527777778,-0.17795572916666666],[0.11019097222222222,-0.1660546875],[0.13648003472222223,-0.15872395833333333],[0.16078125,-0.1520138888888889],[0.18341145833333333,-0.14570746527777778],[0.1877560763888889,-0.1448828125],[0.1903125,-0.1437717013888889],[0.19135416666666666,-0.1437717013888889],[0.19192708333333333,-0.1437717013888889],[0.1924826388888889,-0.1437717013888889],[0.1924826388888889,-0.1437717013888889],[0.1924826388888889,-0.1437717013888889],[0.1924826388888889,-0.1437717013888889]]]",2,"[19,21]",space,2.87552,space,0.495365,0,5,5,2,1,ahead_right_2.jpg,ahead_right_2_path.jpg,,,,,,,,,,,,,,,,
Image_List_3,,,,,,,,,,,,,,,,43903,2020-11-08_18h19.45.072,analogCatScenes,2020.1.3,MacIntel,60,"[1440,900]","[[[0.010594618055555555,-0.20188802083333332],[0.010594618055555555,-0.20188802083333332],[0.010594618055555555,-0.20188802083333332],[0.010594618055555555,-0.20188802083333332],[0.010594618055555555,-0.20188802083333332],[0.010594618055555555,-0.20188802083333332],[0.010594618055555555,-0.20188802083333332],[0.010594618055555555,-0.20188802083333332],[0.010594618055555555,-0.19560763888888888],[0.010594618055555555,-0.18323784722222222],[0.010594618055555555,-0.15801649305555557],[0.006671006944444445,-0.12980902777777778],[-0.006358506944444444,-0.08665364583333333],[-0.020581597222222223,-0.0631640625],[-0.036809895833333335,-0.045494791666666666],[-0.055199652777777775,-0.0307421875],[-0.07631076388888888,-0.01720920138888889],[-0.09901475694444445,-0.002322048611111111],[-0.12344184027777778,0.013962673611111111],[-0.13702690972222223,0.02372829861111111],[-0.14519965277777777,0.030243055555555554],[-0.15230902777777777,0.035277777777777776],[-0.15563802083333333,0.03784722222222222],[-0.15656684027777779,0.03845920138888889],[-0.1574956597222222,0.03909722222222222],[-0.15877170138888888,0.040056423611111114],[-0.1608637152777778,0.041453993055555555],[-0.16182291666666668,0.04273003472222222],[-0.16243489583333334,0.043658854166666664],[-0.16243489583333334,0.044240451388888886],[-0.16243489583333334,0.04451388888888889],[-0.16186197916666667,0.0448046875],[-0.1612890625,0.045386284722222225],[-0.16065538194444445,0.04776909722222222],[-0.16065538194444445,0.052469618055555556],[-0.1642361111111111,0.0655859375],[-0.17213975694444444,0.08138454861111111],[-0.18008246527777777,0.09290364583333334],[-0.1903689236111111,0.10579427083333333],[-0.19734375,0.11232638888888889],[-0.20389756944444445,0.11794270833333333],[-0.20876302083333334,0.1210546875],[-0.21145399305555557,0.1226388888888889],[-0.21302083333333333,0.12357204861111111],[-0.21302083333333333,0.12357204861111111],[-0.21302083333333333,0.12384114583333333]],[[-0.0027083333333333334,-0.20594618055555555],[-0.0027083333333333334,-0.20594618055555555],[-0.0027083333333333334,-0.20594618055555555],[-0.0027083333333333334,-0.20594618055555555],[-0.0027083333333333334,-0.20594618055555555],[-0.0027083333333333334,-0.20594618055555555],[-0.0027083333333333334,-0.20594618055555555],[-0.0027083333333333334,-0.20515625],[-0.0027083333333333334,-0.20146701388888888],[-0.0027083333333333334,-0.19479166666666667],[-0.0032118055555555554,-0.18346354166666667],[-0.006423611111111111,-0.1738454861111111],[-0.010824652777777779,-0.16338541666666667],[-0.016475694444444446,-0.15321180555555555],[-0.024227430555555554,-0.14188368055555556],[-0.03237413194444445,-0.13260850694444445],[-0.03975694444444444,-0.12350260416666667],[-0.04651909722222222,-0.11727430555555556],[-0.05398871527777778,-0.11087239583333333],[-0.060707465277777775,-0.10468315972222222],[-0.06758680555555556,-0.09779513888888888],[-0.07506944444444444,-0.09084635416666667],[-0.08557291666666667,-0.08141059027777778],[-0.09383680555555556,-0.07480902777777777],[-0.10372395833333334,-0.06667534722222222],[-0.115390625,-0.056449652777777776],[-0.12664930555555556,-0.0464453125],[-0.13569010416666666,-0.03853298611111111],[-0.1430642361111111,-0.0316796875],[-0.14982638888888888,-0.025451388888888888],[-0.15730902777777778,-0.019036458333333332],[-0.16707899305555557,-0.010998263888888889],[-0.18148871527777777,0.00109375],[-0.19102864583333334,0.010633680555555556],[-0.19928819444444446,0.018328993055555555],[-0.20677083333333332,0.025811631944444444],[-0.2128125,0.03185329861111111],[-0.21640625,0.03585503472222222],[-0.21940538194444445,0.039709201388888886],[-0.22185763888888888,0.042981770833333335],[-0.22296440972222223,0.045533854166666665],[-0.22401475694444445,0.047625868055555555],[-0.22494791666666666,0.049192708333333335],[-0.2255295138888889,0.04948350694444444],[-0.2258203125,0.04977430555555556],[-0.22609375,0.04977430555555556],[-0.2263671875,0.04977430555555556],[-0.2263671875,0.04977430555555556],[-0.2263671875,0.04977430555555556],[-0.2263671875,0.04977430555555556],[-0.2263671875,0.04977430555555556],[-0.2263671875,0.04977430555555556],[-0.2263671875,0.04977430555555556],[-0.2263671875,0.04977430555555556],[-0.2263671875,0.04977430555555556]]]",2,"[46,55]",space,6.57654,space,0.558525,0,6,6,4,1,left_2.jpg,left_2_path.jpg,,,,,,,,,,,,,,,,
Image_List_3,,,,,,,,,,,,,,,,43903,2020-11-08_18h19.45.072,analogCatScenes,2020.1.3,MacIntel,60,"[1440,900]","[[[0.004835069444444445,-0.2090798611111111],[0.004835069444444445,-0.2090798611111111],[0.004835069444444445,-0.2090798611111111],[0.004835069444444445,-0.2090798611111111],[0.004835069444444445,-0.2090798611111111],[0.004835069444444445,-0.2090798611111111],[0.002447916666666667,-0.20172743055555556],[-0.007361111111111111,-0.17932725694444446],[-0.027256944444444445,-0.14044704861111112],[-0.054071180555555556,-0.08790364583333334],[-0.0809982638888889,-0.040269097222222223],[-0.10620659722222223,0.0018229166666666667],[-0.11702256944444445,0.019123263888888888],[-0.12473958333333333,0.02982204861111111],[-0.13071180555555556,0.03786892361111111],[-0.1334027777777778,0.04021267361111111],[-0.13372395833333334,0.040850694444444446],[-0.13372395833333334,0.040850694444444446]],[[0.01154513888888889,-0.1992013888888889],[0.01154513888888889,-0.1992013888888889],[0.01154513888888889,-0.1992013888888889],[0.01154513888888889,-0.1992013888888889],[0.01154513888888889,-0.1992013888888889],[0.01154513888888889,-0.1992013888888889],[0.01154513888888889,-0.1992013888888889],[0.01154513888888889,-0.1955295138888889],[0.01154513888888889,-0.17102430555555556],[0.01154513888888889,-0.12341579861111111],[0.01154513888888889,-0.08846354166666667],[0.01154513888888889,-0.07711805555555555],[0.01154513888888889,-0.05275607638888889],[0.01154513888888889,-0.04667534722222222],[0.01154513888888889,-0.03865451388888889],[0.01154513888888889,-0.024652777777777777],[0.013511284722222221,-0.006319444444444444],[0.014696180555555556,0.007009548611111111],[0.016419270833333333,0.01837673611111111],[0.017326388888888888,0.024457465277777778],[0.017326388888888888,0.026614583333333334],[0.017326388888888888,0.0275390625],[0.017326388888888888,0.028467881944444443],[0.016332465277777777,0.03091579861111111],[0.016332465277777777,0.03561631944444445],[0.016332465277777777,0.03978298611111111],[0.016332465277777777,0.04335503472222222],[0.016332465277777777,0.04592013888888889],[0.016332465277777777,0.050065104166666666],[0.016332465277777777,0.05362847222222222],[0.016332465277777777,0.056176215277777775],[0.016332465277777777,0.0578515625],[0.016332465277777777,0.05877604166666667],[0.016332465277777777,0.05877604166666667],[0.016332465277777777,0.05877604166666667]],[[-0.0016579861111111112,-0.1933420138888889],[-0.0016579861111111112,-0.1933420138888889],[-0.0016579861111111112,-0.1933420138888889],[-0.0016579861111111112,-0.1933420138888889],[-0.0016579861111111112,-0.1933420138888889],[0.0036024305555555558,-0.18013020833333335],[0.021792534722222222,-0.15447916666666667],[0.05513888888888889,-0.10967447916666667],[0.11899305555555556,-0.02924045138888889],[0.175078125,0.041453993055555555],[0.18276041666666668,0.05200086805555556],[0.1883767361111111,0.06032552083333333],[0.19333767361111112,0.06626736111111112],[0.19394097222222223,0.06719618055555555],[0.19394097222222223,0.06719618055555555],[0.19394097222222223,0.06719618055555555],[0.19394097222222223,0.06719618055555555],[0.19394097222222223,0.06719618055555555]]]",3,"[18,35,18]",,,,,,,,,,,,space,1.213715,parkinggarage3.jpg,space,4.13425,0,0,0,76,1,parkinggarage.jpg,playroom4.jpg,park2.jpg,lookout4.jpg,,
Image_List_3,,,,,,,,,,,,,,,,43903,2020-11-08_18h19.45.072,analogCatScenes,2020.1.3,MacIntel,60,"[1440,900]","[[[-0.0035416666666666665,-0.20397569444444444],[-0.0035416666666666665,-0.20397569444444444],[-0.0035416666666666665,-0.20397569444444444],[-0.0035416666666666665,-0.20397569444444444],[-0.0035416666666666665,-0.20397569444444444],[-0.0035416666666666665,-0.20397569444444444],[-0.0035416666666666665,-0.20397569444444444],[-0.0035416666666666665,-0.20397569444444444],[-0.0035416666666666665,-0.1934157986111111],[-0.0035416666666666665,-0.1623220486111111],[-0.0035416666666666665,-0.07032552083333334],[-0.0035416666666666665,0.04478732638888889],[0.0014713541666666666,0.11432291666666666],[0.0014713541666666666,0.13978732638888888],[0.0014713541666666666,0.1684027777777778],[0.0014713541666666666,0.175859375],[0.0014713541666666666,0.17754340277777778],[0.0014713541666666666,0.17754340277777778],[0.0014713541666666666,0.17754340277777778],[0.0011892361111111112,0.17641927083333334]]]",1,[20],,,,,,,,,,,,,,tenniscourt3.jpg,space,3.050625,0,1,1,96,1,warehouse4.jpg,warehouseoutside1.jpg,windmill1.jpg,warehouse1.jpg,,
Image_List_3,,,,,,,,,,,,,,,,43903,2020-11-08_18h19.45.072,analogCatScenes,2020.1.3,MacIntel,60,"[1440,900]","[[[0.005008680555555555,-0.195859375],[0.005008680555555555,-0.195859375],[0.005008680555555555,-0.195859375],[0.005008680555555555,-0.195859375],[0.005008680555555555,-0.195859375],[0.005008680555555555,-0.195859375],[0.005008680555555555,-0.195859375],[0.005008680555555555,-0.195859375],[0.005008680555555555,-0.195859375],[0.005008680555555555,-0.195859375],[0.005008680555555555,-0.19428385416666666],[0.005008680555555555,-0.1626388888888889],[0.0011241319444444445,-0.11792534722222223],[0.0011241319444444445,-0.07501302083333333],[0.0011241319444444445,-0.04412760416666667],[0.0011241319444444445,-0.02866753472222222],[0.0011241319444444445,-0.018098958333333335],[0.00036458333333333335,-0.013272569444444444],[0.000013020833333333334,-0.011180555555555555],[-0.0012586805555555556,-0.009908854166666667],[-0.0022178819444444446,-0.0086328125],[-0.003042534722222222,-0.005533854166666667],[-0.0037456597222222223,-0.0028038194444444443],[-0.0037456597222222223,-0.001875],[-0.0037456597222222223,-0.001875],[-0.0037456597222222223,-0.001875],[-0.0037456597222222223,-0.001875],[-0.0037456597222222223,-0.001875],[-0.0034895833333333333,-0.001875],[-0.0034895833333333333,-0.0021614583333333334],[-0.003224826388888889,-0.0021614583333333334],[-0.003224826388888889,-0.0021614583333333334],[-0.003224826388888889,-0.0021614583333333334],[-0.003224826388888889,-0.0021614583333333334],[-0.003224826388888889,-0.0021614583333333334],[-0.003224826388888889,-0.0021614583333333334],[-0.003224826388888889,-0.0021614583333333334],[-0.003224826388888889,-0.0021614583333333334]]]",1,[38],,,,,,,,,,,,,,observatory4.jpeg,space,4.281815,0,2,2,74,1,newsstand2.jpg,playground10.jpg,operatingroom1.jpg,lightingstore2.jpg,,
Image_List_3,,,,,,,,,,,,,,,,43903,2020-11-08_18h19.45.072,analogCatScenes,2020.1.3,MacIntel,60,"[1440,900]","[[[0.004661458333333333,-0.20477430555555556],[0.004661458333333333,-0.20477430555555556],[0.004661458333333333,-0.20477430555555556],[0.004661458333333333,-0.20477430555555556],[0.004661458333333333,-0.20477430555555556],[0.004661458333333333,-0.20477430555555556],[0.004661458333333333,-0.20477430555555556],[0.004661458333333333,-0.20477430555555556],[0.004661458333333333,-0.20477430555555556],[0.004661458333333333,-0.20477430555555556],[0.004661458333333333,-0.20477430555555556],[0.004661458333333333,-0.20477430555555556],[0.004661458333333333,-0.20399305555555555],[0.002894965277777778,-0.20178385416666667],[-0.01615451388888889,-0.17221788194444446],[-0.028155381944444443,-0.15529947916666667],[-0.039874131944444446,-0.13631076388888888],[-0.05180121527777778,-0.11878038194444444],[-0.0656640625,-0.09930121527777777],[-0.07807291666666667,-0.08407118055555556],[-0.09117621527777778,-0.06889756944444445],[-0.10634114583333333,-0.05228732638888889],[-0.11792100694444445,-0.04070746527777778],[-0.13239583333333332,-0.02623263888888889],[-0.14453993055555556,-0.011427951388888889],[-0.15157118055555555,-0.0016319444444444445],[-0.1574826388888889,0.006410590277777778],[-0.1599435763888889,0.0105078125],[-0.16128038194444444,0.012821180555555556],[-0.16128038194444444,0.012821180555555556],[-0.16128038194444444,0.012821180555555556],[-0.16128038194444444,0.012821180555555556],[-0.16128038194444444,0.012821180555555556],[-0.16128038194444444,0.012821180555555556],[-0.16128038194444444,0.012821180555555556]],[[0.007673611111111111,-0.199296875],[0.007673611111111111,-0.199296875],[0.007673611111111111,-0.199296875],[0.007673611111111111,-0.199296875],[0.007673611111111111,-0.199296875],[0.007673611111111111,-0.199296875],[0.007673611111111111,-0.199296875],[0.007673611111111111,-0.199296875],[0.007673611111111111,-0.199296875],[0.007673611111111111,-0.199296875],[0.007673611111111111,-0.199296875],[0.007673611111111111,-0.199296875],[0.007673611111111111,-0.199296875],[0.007673611111111111,-0.199296875],[0.007673611111111111,-0.199296875],[0.007673611111111111,-0.199296875],[0.007673611111111111,-0.199296875],[0.007673611111111111,-0.199296875],[0.007673611111111111,-0.199296875],[0.007673611111111111,-0.199296875],[0.007673611111111111,-0.199296875],[0.007673611111111111,-0.199296875],[0.007673611111111111,-0.199296875],[0.007673611111111111,-0.199296875],[0.007673611111111111,-0.199296875],[0.007673611111111111,-0.199296875],[0.007673611111111111,-0.199296875],[0.007673611111111111,-0.199296875],[0.007673611111111111,-0.199296875],[0.007673611111111111,-0.199296875],[0.007673611111111111,-0.199296875],[0.007673611111111111,-0.199296875],[0.007673611111111111,-0.199296875],[0.007673611111111111,-0.199296875],[0.007673611111111111,-0.199296875],[0.007673611111111111,-0.199296875],[0.007673611111111111,-0.199296875],[0.007673611111111111,-0.199296875]],[[0.007673611111111111,-0.199296875],[0.007673611111111111,-0.199296875],[0.007673611111111111,-0.199296875],[0.007673611111111111,-0.199296875],[0.007673611111111111,-0.199296875],[0.007673611111111111,-0.199296875],[0.007673611111111111,-0.199296875],[0.007673611111111111,-0.199296875],[0.007673611111111111,-0.199296875],[0.007673611111111111,-0.199296875],[0.007673611111111111,-0.199296875],[0.007673611111111111,-0.199296875],[0.007673611111111111,-0.199296875],[0.007673611111111111,-0.199296875],[0.007673611111111111,-0.199296875],[0.007673611111111111,-0.199296875],[0.007673611111111111,-0.199296875],[0.007673611111111111,-0.199296875],[0.00109375,-0.19142795138888888],[-0.005694444444444445,-0.1812543402777778],[-0.01644097222222222,-0.16578993055555555],[-0.022374131944444445,-0.1558984375],[-0.029045138888888888,-0.14470052083333335],[-0.03166232638888889,-0.1405121527777778],[-0.03857204861111111,-0.12252604166666667],[-0.0443359375,-0.10091145833333333],[-0.048289930555555555,-0.08470052083333333],[-0.05115017361111111,-0.07333333333333333],[-0.054357638888888886,-0.06365451388888889],[-0.057278645833333336,-0.0514453125],[-0.05841579861111111,-0.040078125],[-0.05904513888888889,-0.028524305555555556],[-0.05904513888888889,-0.02040798611111111],[-0.05904513888888889,-0.01373263888888889],[-0.05904513888888889,-0.010160590277777777],[-0.05904513888888889,-0.008246527777777778],[-0.05904513888888889,-0.007664930555555556],[-0.05904513888888889,-0.006736111111111111],[-0.0593359375,-0.0064453125],[-0.0593359375,-0.005863715277777778],[-0.05962673611111111,-0.005863715277777778],[-0.05962673611111111,-0.005594618055555556],[-0.05962673611111111,-0.005594618055555556],[-0.05962673611111111,-0.005594618055555556],[-0.05962673611111111,-0.005594618055555556],[-0.05962673611111111,-0.005594618055555556],[-0.05962673611111111,-0.005594618055555556],[-0.05962673611111111,-0.005850694444444445],[-0.05962673611111111,-0.00640625],[-0.05962673611111111,-0.006675347222222222],[-0.05962673611111111,-0.006675347222222222],[-0.05962673611111111,-0.0069401041666666665],[-0.05962673611111111,-0.007209201388888889],[-0.05962673611111111,-0.007209201388888889],[-0.05962673611111111,-0.007209201388888889],[-0.05962673611111111,-0.007209201388888889]],[[-0.007599826388888889,-0.2002517361111111],[-0.007599826388888889,-0.2002517361111111],[-0.007599826388888889,-0.2002517361111111],[-0.007599826388888889,-0.2002517361111111],[-0.01834201388888889,-0.19680121527777777],[-0.04521267361111111,-0.19282118055555555],[-0.08992621527777778,-0.1899392361111111],[-0.126171875,-0.1899392361111111],[-0.15173177083333333,-0.1899392361111111],[-0.16469184027777778,-0.1899392361111111],[-0.17280815972222222,-0.1899392361111111],[-0.17537326388888888,-0.1899392361111111],[-0.1756640625,-0.1899392361111111],[-0.1756640625,-0.1899392361111111],[-0.1756640625,-0.1899392361111111],[-0.1756640625,-0.1899392361111111]],[[-0.007556423611111111,-0.1939670138888889],[-0.007556423611111111,-0.1939670138888889],[-0.007556423611111111,-0.1939670138888889],[-0.007556423611111111,-0.1939670138888889],[-0.007556423611111111,-0.1939670138888889],[-0.007556423611111111,-0.1939670138888889],[-0.0062196180555555555,-0.1939670138888889],[0.0067317708333333335,-0.1939670138888889],[0.03756944444444445,-0.1939670138888889],[0.08757378472222223,-0.1939670138888889],[0.12069878472222222,-0.1939670138888889],[0.13224392361111112,-0.1939670138888889],[0.14844618055555556,-0.1939670138888889],[0.15377604166666667,-0.1939670138888889],[0.15557291666666667,-0.1939670138888889],[0.15557291666666667,-0.1939670138888889],[0.15557291666666667,-0.1939670138888889],[0.15557291666666667,-0.1939670138888889],[0.1553125,-0.1939670138888889],[0.15403645833333332,-0.19332899305555556]]]",5,"[35,38,56,16,20]",,,,,,,,,,,,,,cubicle7.jpg,space,8.582415,0,3,3,35,1,deck5.jpg,dock3.jpg,dining_car6.jpg,carmechanic2.jpg,,
Image_List_3,,,,,,,,,,,,,,,,43903,2020-11-08_18h19.45.072,analogCatScenes,2020.1.3,MacIntel,60,"[1440,900]","[[[0.008120659722222222,-0.1938498263888889],[0.008120659722222222,-0.1938498263888889],[0.008120659722222222,-0.1938498263888889],[0.008120659722222222,-0.1938498263888889],[0.008120659722222222,-0.1938498263888889],[0.008120659722222222,-0.1938498263888889],[0.008120659722222222,-0.1938498263888889],[0.008120659722222222,-0.1925434027777778],[0.008120659722222222,-0.1633203125],[0.008120659722222222,-0.10750434027777778],[0.008120659722222222,-0.023693576388888887],[0.008120659722222222,0.03173611111111111],[0.008120659722222222,0.05150173611111111],[0.008120659722222222,0.06711805555555556],[0.008120659722222222,0.07069010416666667],[0.008120659722222222,0.07098090277777777],[0.008120659722222222,0.07098090277777777],[0.008120659722222222,0.07098090277777777],[0.008120659722222222,0.07098090277777777],[0.007591145833333333,0.07098090277777777]]]",1,[20],,,,,,,,,,,,,,porch.jpg,space,3.031395,0,4,4,80,1,pavilion2.jpg,racecarcourse2.jpg,poolhall5.jpg,parkinggarage4.jpg,,
Image_List_3,,,,,,,,,,,,,,,,43903,2020-11-08_18h19.45.072,analogCatScenes,2020.1.3,MacIntel,60,"[1440,900]","[[[0.005733506944444445,-0.20083333333333334],[0.005733506944444445,-0.20083333333333334],[0.005733506944444445,-0.20083333333333334],[0.005733506944444445,-0.20083333333333334],[0.005733506944444445,-0.20083333333333334],[0.005733506944444445,-0.20083333333333334],[0.005733506944444445,-0.20083333333333334],[0.005733506944444445,-0.20083333333333334],[0.005733506944444445,-0.20083333333333334],[0.005733506944444445,-0.20083333333333334],[0.005733506944444445,-0.20083333333333334],[0.005733506944444445,-0.20083333333333334],[0.005217013888888889,-0.20083333333333334],[-0.0050651041666666665,-0.1927126736111111],[-0.0285546875,-0.17858940972222223],[-0.06493923611111112,-0.15366319444444446],[-0.09672309027777778,-0.13337239583333332],[-0.13228732638888888,-0.11095486111111111],[-0.16027777777777777,-0.09231336805555555],[-0.19624131944444445,-0.06593315972222222],[-0.20971788194444443,-0.055824652777777775],[-0.2521788194444444,-0.025481770833333334],[-0.2788888888888889,-0.004813368055555556],[-0.30127604166666666,0.01679253472222222],[-0.3166232638888889,0.03753038194444445],[-0.3207769097222222,0.0463671875],[-0.32510850694444443,0.05384114583333333],[-0.3293229166666667,0.061857638888888886],[-0.32967447916666665,0.06354166666666666],[-0.32967447916666665,0.06354166666666666],[-0.32967447916666665,0.06354166666666666],[-0.32967447916666665,0.06354166666666666]],[[-0.0011892361111111112,-0.1957465277777778],[-0.0011892361111111112,-0.1957465277777778],[-0.0011892361111111112,-0.1957465277777778],[-0.0011892361111111112,-0.1957465277777778],[-0.0011892361111111112,-0.1957465277777778],[-0.0011892361111111112,-0.1957465277777778],[-0.0011892361111111112,-0.1957465277777778],[-0.0011892361111111112,-0.1957465277777778],[-0.0011892361111111112,-0.1957465277777778],[-0.0011892361111111112,-0.1957465277777778],[-0.0011892361111111112,-0.1957465277777778],[0.0023697916666666667,-0.1957465277777778],[0.011193576388888888,-0.19414496527777778],[0.026644965277777776,-0.1877126736111111],[0.03906684027777778,-0.18158854166666666],[0.05451822916666667,-0.17453125],[0.08705295138888888,-0.16111979166666668],[0.10872395833333333,-0.15541232638888888],[0.13533854166666667,-0.14992621527777777],[0.16605034722222223,-0.14741753472222222],[0.20264322916666666,-0.14741753472222222],[0.24076822916666665,-0.14741753472222222],[0.2648524305555556,-0.15095052083333332],[0.29141059027777777,-0.15643663194444443],[0.3055078125,-0.16072482638888888],[0.3159592013888889,-0.1639670138888889],[0.3213107638888889,-0.16572916666666668],[0.3236805555555556,-0.16671006944444444],[0.3242534722222222,-0.16699652777777776],[0.3245399305555556,-0.16699652777777776],[0.3245399305555556,-0.16699652777777776],[0.3245399305555556,-0.1664496527777778]]]",2,"[32,32]",,,,,,,,,,,,,,constructionSite2.jpg,space,3.299395,0,5,5,32,1,dancestudio6.jpg,diner12.jpg,dentist4.jpg,cabin4.jpg,,
Image_List_3,,,,,,,,,,,,,,,,43903,2020-11-08_18h19.45.072,analogCatScenes,2020.1.3,MacIntel,60,"[1440,900]","[[[0.0030859375,-0.19393229166666667],[0.0030859375,-0.19393229166666667],[0.0030859375,-0.19393229166666667],[0.0030859375,-0.19393229166666667],[0.0030859375,-0.19393229166666667],[0.0030859375,-0.19393229166666667],[0.0030859375,-0.19182725694444444],[0.0030859375,-0.1841232638888889],[0.0030859375,-0.1690060763888889],[0.0030859375,-0.14732638888888888],[0.0030859375,-0.12327256944444444],[0.0030859375,-0.0869921875],[0.0030859375,-0.06653211805555556],[0.0030859375,-0.05169704861111111],[0.0030859375,-0.038736979166666664],[0.0030859375,-0.029900173611111112],[0.0030859375,-0.0239453125],[0.0023524305555555555,-0.021380208333333334],[0.001345486111111111,-0.008793402777777778],[0.001345486111111111,0.013910590277777777],[0.001345486111111111,0.03836371527777778],[0.001345486111111111,0.055164930555555554],[0.001345486111111111,0.07315104166666667],[0.0009027777777777777,0.07844618055555555],[-0.00046440972222222223,0.09657118055555555],[-0.00046440972222222223,0.11978732638888889],[-0.00046440972222222223,0.13366319444444444],[-0.00046440972222222223,0.14871527777777777],[-0.00046440972222222223,0.15754774305555555],[-0.00046440972222222223,0.16224826388888888],[-0.00046440972222222223,0.17270833333333332],[-0.00046440972222222223,0.18504340277777778],[-0.00046440972222222223,0.19388020833333333],[-0.00046440972222222223,0.2046440972222222],[-0.0008767361111111111,0.2107204861111111],[-0.0008767361111111111,0.2173263888888889],[-0.0014149305555555556,0.22694444444444445],[-0.0014149305555555556,0.2323046875],[-0.0014149305555555556,0.23647135416666668],[-0.0014149305555555556,0.23862847222222222],[-0.0014149305555555556,0.23955295138888888],[-0.0014149305555555556,0.23955295138888888],[-0.0014149305555555556,0.23982204861111112],[-0.0014149305555555556,0.24009114583333332],[-0.0014149305555555556,0.24036458333333333],[-0.0011284722222222221,0.24063802083333333],[-0.0005555555555555556,0.24092881944444444],[0.00001736111111111111,0.24092881944444444],[0.0023524305555555555,0.24163194444444444],[0.005381944444444444,0.24315104166666668],[0.010416666666666666,0.245546875],[0.014092881944444444,0.24721788194444444],[0.017630208333333335,0.2487890625],[0.022686631944444445,0.25037326388888886],[0.02703125,0.25131944444444443],[0.032977430555555555,0.25179253472222224],[0.03958333333333333,0.25321180555555556],[0.04703125,0.25428385416666666],[0.0523828125,0.25428385416666666],[0.061332465277777776,0.25485243055555556],[0.07016059027777778,0.25485243055555556],[0.08145399305555556,0.25485243055555556],[0.09365451388888889,0.25485243055555556],[0.10585503472222223,0.2536935763888889],[0.12370225694444445,0.25140625],[0.13588107638888888,0.2496875],[0.14808159722222222,0.24680555555555556],[0.16028211805555556,0.24332899305555555],[0.16713541666666668,0.24090711805555556],[0.17446180555555554,0.23848958333333334],[0.18278645833333335,0.23434461805555556],[0.18894965277777778,0.231015625],[0.19649305555555555,0.2269965277777778],[0.20550347222222223,0.2222222222222222],[0.2110329861111111,0.2190060763888889],[0.21591145833333333,0.21588975694444446],[0.21875434027777776,0.21415364583333332],[0.21967447916666666,0.21355034722222221],[0.22024739583333333,0.2132638888888889],[0.22024739583333333,0.2132638888888889],[0.22024739583333333,0.2132638888888889],[0.22024739583333333,0.21409288194444445],[0.219609375,0.21409288194444445]],[[-0.00001736111111111111,-0.18815538194444445],[-0.00001736111111111111,-0.18815538194444445],[-0.00001736111111111111,-0.18815538194444445],[-0.00001736111111111111,-0.18815538194444445],[-0.00001736111111111111,-0.18815538194444445],[-0.00001736111111111111,-0.18097222222222223],[-0.000703125,-0.16483506944444445],[-0.003650173611111111,-0.13869357638888888],[-0.003650173611111111,-0.13123697916666666],[-0.003650173611111111,-0.12528211805555556],[-0.003650173611111111,-0.12259114583333333],[-0.003650173611111111,-0.1032204861111111],[-0.003650173611111111,-0.07216579861111111],[-0.003650173611111111,-0.052612847222222224],[-0.003650173611111111,-0.03840277777777778],[-0.003650173611111111,-0.026098090277777777],[-0.003650173611111111,-0.019427083333333334],[-0.004852430555555555,-0.014214409722222222],[-0.005598958333333333,0.009730902777777778],[-0.005598958333333333,0.040824652777777776],[-0.005598958333333333,0.07004774305555556],[-0.005598958333333333,0.08951388888888889],[-0.005598958333333333,0.10372395833333334],[-0.005598958333333333,0.11039930555555555],[-0.005598958333333333,0.11296440972222223],[-0.007044270833333333,0.12026475694444444],[-0.007582465277777777,0.1298828125],[-0.008645833333333333,0.1396875],[-0.010130208333333333,0.14780381944444446],[-0.013502604166666666,0.15778645833333332],[-0.01693576388888889,0.16512152777777778],[-0.021089409722222223,0.17395833333333333],[-0.02411458333333333,0.18141493055555555],[-0.027452256944444444,0.18758680555555557],[-0.029032118055555556,0.1911501736111111],[-0.030872395833333333,0.19333767361111112],[-0.032864583333333336,0.19690972222222222],[-0.03569010416666667,0.2035546875],[-0.03802517361111111,0.20963541666666666],[-0.041588541666666666,0.21763454861111112],[-0.0426953125,0.2201953125],[-0.04362413194444444,0.22112413194444444],[-0.044205729166666666,0.22170572916666667],[-0.045572916666666664,0.2230425347222222],[-0.04750434027777778,0.22614149305555556],[-0.04943576388888889,0.22924045138888888],[-0.05133680555555555,0.23190104166666667],[-0.05235677083333334,0.23358506944444443],[-0.0536328125,0.2348611111111111],[-0.05531684027777778,0.23619791666666667],[-0.058606770833333335,0.23873263888888888],[-0.06189670138888889,0.24119791666666668],[-0.06446180555555556,0.24265625],[-0.06655381944444444,0.2437065972222222],[-0.06864583333333334,0.2444097222222222],[-0.0712109375,0.24479166666666666],[-0.07424913194444445,0.2451736111111111],[-0.07728732638888888,0.2459375],[-0.0808376736111111,0.24631944444444445],[-0.08387586805555555,0.24708333333333332],[-0.08690972222222222,0.24708333333333332],[-0.09265625,0.24793836805555555],[-0.09700954861111111,0.24793836805555555],[-0.09957465277777777,0.24793836805555555],[-0.10440104166666667,0.24793836805555555],[-0.1117361111111111,0.24793836805555555],[-0.11835069444444445,0.24793836805555555],[-0.12640625,0.24793836805555555],[-0.13519097222222223,0.24793836805555555],[-0.14477430555555557,0.24793836805555555],[-0.15361111111111111,0.24793836805555555],[-0.1635720486111111,0.24793836805555555],[-0.16952690972222223,0.24793836805555555],[-0.17309895833333333,0.24793836805555555],[-0.17525607638888888,0.24793836805555555],[-0.17583333333333334,0.24793836805555555],[-0.17612413194444446,0.24793836805555555],[-0.17612413194444446,0.24793836805555555],[-0.17612413194444446,0.24793836805555555]]]",2,"[83,79]",,,,,,,,,,,,,,dock1.jpg,space,6.99577,0,6,6,38,1,dining_car2.jpg,elevatorOutside4.jpg,driveway8.jpg,classroom1.jpg,,
Image_List_3,,,,,,,,,,,,,,,,43903,2020-11-08_18h19.45.072,analogCatScenes,2020.1.3,MacIntel,60,"[1440,900]","[[[-0.0020833333333333333,-0.19467881944444446],[-0.0020833333333333333,-0.19467881944444446],[-0.0020833333333333333,-0.19467881944444446],[-0.0020833333333333333,-0.19467881944444446],[-0.0020833333333333333,-0.19467881944444446],[-0.0020833333333333333,-0.19467881944444446],[-0.0020833333333333333,-0.19467881944444446],[-0.0020833333333333333,-0.19467881944444446],[-0.0020833333333333333,-0.19467881944444446],[-0.0033897569444444444,-0.19467881944444446],[-0.009344618055555556,-0.19467881944444446],[-0.0166796875,-0.19467881944444446],[-0.02150607638888889,-0.19467881944444446],[-0.025651041666666666,-0.19467881944444446],[-0.03310763888888889,-0.1937934027777778],[-0.04934461805555555,-0.19272135416666666],[-0.0698046875,-0.19134114583333334],[-0.086015625,-0.1899609375],[-0.10532118055555556,-0.187890625],[-0.12037326388888889,-0.18663194444444445],[-0.13258246527777778,-0.18486979166666667],[-0.1438845486111111,-0.18373263888888888],[-0.15434461805555555,-0.18262586805555556],[-0.16120659722222222,-0.18221354166666667],[-0.16782118055555556,-0.18079427083333333],[-0.175234375,-0.1790234375],[-0.17993489583333333,-0.17646701388888889],[-0.1844140625,-0.1733420138888889],[-0.18770399305555555,-0.17087673611111112],[-0.18957465277777777,-0.16859375],[-0.19027777777777777,-0.1665017361111111],[-0.19027777777777777,-0.16481770833333334],[-0.19027777777777777,-0.16354166666666667],[-0.18894965277777778,-0.16255208333333335],[-0.18687065972222222,-0.1615060763888889],[-0.1818359375,-0.1587326388888889],[-0.17195746527777778,-0.15116319444444445],[-0.1585329861111111,-0.13772569444444444],[-0.15331163194444444,-0.13293836805555556],[-0.14127604166666666,-0.12164930555555556],[-0.12993055555555555,-0.11095486111111111],[-0.10551215277777778,-0.0875],[-0.08359375,-0.06557291666666666],[-0.058194444444444444,-0.040164930555555554],[-0.043671875,-0.025069444444444443],[-0.021688368055555556,-0.00048177083333333335],[0.002951388888888889,0.028736979166666666],[0.04875434027777778,0.0834765625],[0.09268229166666667,0.1296701388888889],[0.12189236111111111,0.15431857638888888],[0.14469618055555555,0.17006510416666668],[0.15739583333333335,0.1768142361111111],[0.16735677083333333,0.18129774305555554],[0.1714409722222222,0.18212239583333334],[0.17276909722222222,0.18212239583333334],[0.1733376736111111,0.18212239583333334],[0.1733376736111111,0.18212239583333334],[0.1733376736111111,0.18212239583333334],[0.17307291666666666,0.18212239583333334]],[[-0.005920138888888889,-0.20211805555555556],[-0.005920138888888889,-0.20211805555555556],[-0.005920138888888889,-0.20211805555555556],[-0.005920138888888889,-0.20211805555555556],[-0.005920138888888889,-0.20211805555555556],[-0.005920138888888889,-0.20211805555555556],[-0.005920138888888889,-0.20211805555555556],[-0.005920138888888889,-0.20211805555555556],[-0.005920138888888889,-0.20211805555555556],[-0.0152734375,-0.20211805555555556],[-0.032452256944444445,-0.20211805555555556],[-0.05528645833333334,-0.20211805555555556],[-0.07090277777777777,-0.20211805555555556],[-0.08901475694444444,-0.20211805555555556],[-0.10502604166666667,-0.20211805555555556],[-0.12787760416666666,-0.20211805555555556],[-0.14608940972222223,-0.2007378472222222],[-0.16055121527777777,-0.1975954861111111],[-0.17663628472222223,-0.19373697916666666],[-0.18973958333333332,-0.19075520833333334],[-0.20103298611111112,-0.1884939236111111],[-0.21796440972222222,-0.1828732638888889],[-0.22957899305555557,-0.17763020833333334],[-0.24062934027777777,-0.1712282986111111],[-0.2502387152777778,-0.16444010416666666],[-0.255625,-0.15958767361111112],[-0.2615104166666667,-0.15470920138888888],[-0.26535590277777776,-0.1513064236111111],[-0.2682335069444444,-0.14801649305555556],[-0.2717578125,-0.1435546875],[-0.2742838541666667,-0.13982638888888888],[-0.27904947916666667,-0.13376302083333333],[-0.2814539930555556,-0.13059895833333332],[-0.28322916666666664,-0.12882378472222222],[-0.28418836805555553,-0.12754774305555555],[-0.28511284722222224,-0.1266232638888889],[-0.28540364583333333,-0.12569444444444444],[-0.28604600694444443,-0.12441840277777778],[-0.28671875,-0.122734375],[-0.287421875,-0.12064236111111111],[-0.2877690972222222,-0.1185546875],[-0.28859375,-0.11444878472222222],[-0.28903645833333336,-0.11028211805555556],[-0.2893880208333333,-0.10749131944444444],[-0.29071614583333333,-0.09948350694444444],[-0.29204427083333334,-0.09418836805555555],[-0.2934331597222222,-0.08823784722222222],[-0.29532552083333335,-0.0816232638888889],[-0.29727864583333335,-0.07428819444444444],[-0.30038628472222223,-0.06548177083333333],[-0.30366319444444445,-0.05509982638888889],[-0.306875,-0.04548177083333333],[-0.31008680555555557,-0.03586371527777778],[-0.31442274305555556,-0.02062934027777778],[-0.31656684027777776,-0.011011284722222223],[-0.3175737847222222,-0.004930555555555555],[-0.31904947916666665,0.002387152777777778],[-0.32046875,0.009001736111111111],[-0.322421875,0.016336805555555556],[-0.32379774305555553,0.021827256944444446],[-0.325234375,0.028077256944444445],[-0.327578125,0.0346484375],[-0.3300954861111111,0.042703993055555556],[-0.3357595486111111,0.05556857638888889],[-0.3407248263888889,0.06546440972222223],[-0.34487847222222223,0.07430121527777778],[-0.34814670138888887,0.07932725694444444],[-0.3478125,0.09008246527777777],[-0.33592881944444447,0.09661892361111112],[-0.3078125,0.11536458333333334],[-0.2788541666666667,0.13475260416666668],[-0.25311631944444446,0.14997395833333332],[-0.22841145833333334,0.1635329861111111],[-0.20353732638888888,0.17428819444444443],[-0.19668402777777777,0.17671875],[-0.18661024305555557,0.18111979166666667],[-0.17509982638888888,0.1890625],[-0.16125,0.20028645833333333],[-0.14358940972222223,0.2157595486111111],[-0.1297092013888889,0.22620225694444446],[-0.1125998263888889,0.23580295138888888],[-0.09250434027777778,0.24440104166666668],[-0.08283420138888889,0.24760850694444445],[-0.0723828125,0.2503472222222222],[-0.06193142361111111,0.25255208333333334],[-0.055078125,0.2549826388888889],[-0.04913194444444444,0.2563715277777778],[-0.04610243055555555,0.25713541666666667],[-0.045182291666666666,0.25713541666666667],[-0.044895833333333336,0.25713541666666667],[-0.044895833333333336,0.25713541666666667],[-0.044895833333333336,0.25713541666666667]]]",2,"[59,92]",,,,,,,,,,,,,,bleachers8.jpg,space,8.10005,0,7,7,15,1,bambooforest4.jpg,cafeteria5.jpg,cabinIndoors.jpg,bar8.jpg,,
Image_List_3,,,,,,,,,,,,,,,,43903,2020-11-08_18h19.45.072,analogCatScenes,2020.1.3,MacIntel,60,"[1440,900]","[[[-0.009223090277777778,-0.204296875],[-0.009223090277777778,-0.204296875],[-0.009223090277777778,-0.204296875],[-0.009223090277777778,-0.204296875],[-0.009223090277777778,-0.204296875],[-0.009223090277777778,-0.204296875],[-0.009223090277777778,-0.204296875],[-0.009223090277777778,-0.204296875],[-0.009223090277777778,-0.204296875],[-0.009223090277777778,-0.204296875],[-0.009223090277777778,-0.204296875],[-0.009223090277777778,-0.19572048611111112],[-0.009223090277777778,-0.17384982638888888],[-0.009223090277777778,-0.13398871527777778],[-0.009223090277777778,-0.11692274305555556],[-0.009223090277777778,-0.1016189236111111],[-0.009223090277777778,-0.0902517361111111],[-0.009223090277777778,-0.08542534722222223],[-0.009223090277777778,-0.08286024305555556],[-0.009223090277777778,-0.07891493055555555],[-0.009223090277777778,-0.070078125],[-0.009223090277777778,-0.06177951388888889],[-0.009223090277777778,-0.053663194444444444],[-0.009223090277777778,-0.046783854166666666],[-0.009223090277777778,-0.04509982638888889],[-0.009223090277777778,-0.044518229166666666],[-0.009574652777777777,-0.04283420138888889],[-0.009574652777777777,-0.0375390625],[-0.009574652777777777,-0.0328515625],[-0.009574652777777777,-0.029288194444444443],[-0.009574652777777777,-0.026723090277777778],[-0.009574652777777777,-0.025794270833333334],[-0.009574652777777777,-0.02515625],[-0.009574652777777777,-0.02047309027777778],[-0.009574652777777777,-0.014518229166666667],[-0.01001736111111111,-0.009223090277777778],[-0.010811631944444445,-0.005651041666666667],[-0.011484375,-0.003967013888888889],[-0.012096354166666667,-0.0030381944444444445],[-0.012387152777777778,-0.0024565972222222224],[-0.013059895833333333,-0.0007725694444444444],[-0.014704861111111111,0.003324652777777778],[-0.016414930555555554,0.008025173611111111],[-0.018780381944444445,0.014639756944444445],[-0.021749131944444444,0.021453993055555554],[-0.022890625,0.0244921875],[-0.023532986111111112,0.025828993055555555],[-0.023532986111111112,0.02646701388888889],[-0.023532986111111112,0.02646701388888889],[-0.023532986111111112,0.02646701388888889],[-0.023532986111111112,0.02646701388888889]],[[-0.009678819444444445,-0.20883680555555556],[-0.009678819444444445,-0.20883680555555556],[-0.009678819444444445,-0.20883680555555556],[-0.009678819444444445,-0.20883680555555556],[-0.009678819444444445,-0.20883680555555556],[-0.009678819444444445,-0.20776909722222223],[-0.009678819444444445,-0.20360243055555555],[-0.013745659722222222,-0.19606336805555555],[-0.018020833333333333,-0.18638454861111112],[-0.020464409722222222,-0.17973958333333334],[-0.021692708333333335,-0.17664930555555555],[-0.02314236111111111,-0.17338975694444445],[-0.026514756944444443,-0.1680685763888889],[-0.029947916666666668,-0.16123697916666666],[-0.03928385416666667,-0.14857638888888888],[-0.047625868055555555,-0.1378559027777778],[-0.0559765625,-0.1271267361111111],[-0.0633203125,-0.11752604166666666],[-0.07098958333333333,-0.10929253472222222],[-0.07637586805555556,-0.10390625],[-0.0817578125,-0.09852430555555555],[-0.08588541666666667,-0.09395399305555556],[-0.08941840277777778,-0.08953559027777777],[-0.0928298611111111,-0.08568142361111111],[-0.09742621527777778,-0.08024739583333333],[-0.09980034722222222,-0.0774609375],[-0.10107638888888888,-0.07618489583333334],[-0.10168836805555556,-0.07525607638888888],[-0.10197916666666666,-0.07467447916666667],[-0.10226996527777778,-0.07409288194444444],[-0.10262152777777778,-0.07240885416666666],[-0.10344618055555556,-0.06830729166666667],[-0.10439236111111111,-0.06169270833333333],[-0.1059375,-0.052855902777777776],[-0.10877604166666667,-0.04276041666666667],[-0.11098524305555556,-0.03746527777777778],[-0.11250434027777778,-0.03442708333333333],[-0.11384114583333334,-0.03274305555555555],[-0.11413194444444444,-0.03216145833333333],[-0.11442274305555555,-0.03216145833333333],[-0.11442274305555555,-0.03216145833333333]],[[-0.0011631944444444443,-0.20368055555555556],[-0.0011631944444444443,-0.20368055555555556],[-0.0011631944444444443,-0.20368055555555556],[-0.0011631944444444443,-0.20368055555555556],[-0.0011631944444444443,-0.20368055555555556],[-0.0011631944444444443,-0.20368055555555556],[-0.0011631944444444443,-0.20368055555555556],[-0.0011631944444444443,-0.20368055555555556],[-0.0011631944444444443,-0.2023654513888889],[0.008294270833333334,-0.18703559027777777],[0.051844618055555555,-0.13294270833333333],[0.08765625,-0.09214409722222222],[0.11836371527777778,-0.05716579861111111],[0.1251171875,-0.05040364583333334],[0.13826388888888888,-0.03837673611111111],[0.13993923611111111,-0.03767795138888889],[0.1405078125,-0.03767795138888889],[0.1405078125,-0.03767795138888889],[0.1405078125,-0.03767795138888889],[0.1405078125,-0.03793836805555555]]]",3,"[51,41,20]",,,,,,,,,,,,,,carmechanic4.jpeg,space,7.48231,0,8,8,23,1,bus_shelter.jpg,church8.jpg,cemetery3.jpg,bleachers6.jpg,,
Image_List_3,,,,,,,,,,,,,,,,43903,2020-11-08_18h19.45.072,analogCatScenes,2020.1.3,MacIntel,60,"[1440,900]","[[[0.007044270833333333,-0.20473958333333334],[0.007044270833333333,-0.20473958333333334],[0.007044270833333333,-0.20473958333333334],[0.007044270833333333,-0.20473958333333334],[0.007044270833333333,-0.20473958333333334],[0.007044270833333333,-0.20473958333333334],[0.007044270833333333,-0.20447916666666666],[0.007044270833333333,-0.19480034722222223],[0.007044270833333333,-0.16315538194444446],[0.007044270833333333,-0.11640190972222222],[0.007044270833333333,-0.07507378472222222],[0.007044270833333333,-0.025186631944444444],[0.007044270833333333,0.02638454861111111],[0.007044270833333333,0.06302951388888889],[0.007044270833333333,0.07639756944444444],[0.007044270833333333,0.09260850694444445],[0.007044270833333333,0.09893663194444445],[0.007044270833333333,0.09986545138888889],[0.007044270833333333,0.09986545138888889],[0.007044270833333333,0.09986545138888889],[0.007044270833333333,0.09960503472222222]]]",1,[21],,,,,,,,,,,,,,restaurant13.jpg,space,4.830285,0,9,9,84,1,readingroom5.jpg,sidewalk2.jpg,sandDunes_desert_outdoor.jpg,rooftop2.jpg,,
Image_List_3,,,,,,,,,,,,,,,,43903,2020-11-08_18h19.45.072,analogCatScenes,2020.1.3,MacIntel,60,"[1440,900]","[[[-0.0025303819444444445,-0.19215711805555555],[-0.0025303819444444445,-0.19215711805555555],[-0.0025303819444444445,-0.19215711805555555],[-0.0025303819444444445,-0.19215711805555555],[-0.0025303819444444445,-0.19215711805555555],[-0.0025303819444444445,-0.19215711805555555],[-0.0025303819444444445,-0.19215711805555555],[-0.0025303819444444445,-0.19215711805555555],[-0.0025303819444444445,-0.19215711805555555],[-0.0025303819444444445,-0.19215711805555555],[-0.0025303819444444445,-0.19215711805555555],[-0.0025303819444444445,-0.19215711805555555],[-0.0025303819444444445,-0.19215711805555555],[-0.0025303819444444445,-0.19215711805555555],[-0.0025303819444444445,-0.19215711805555555],[-0.0025303819444444445,-0.19215711805555555],[-0.0025303819444444445,-0.19215711805555555],[-0.0025303819444444445,-0.19215711805555555],[-0.0025303819444444445,-0.19215711805555555],[-0.0025303819444444445,-0.191640625],[-0.0028211805555555555,-0.19105902777777778],[-0.004600694444444445,-0.1892795138888889],[-0.007291666666666667,-0.18693576388888888],[-0.02101128472222222,-0.17678819444444444],[-0.04759548611111111,-0.159375],[-0.07493489583333333,-0.1452517361111111],[-0.11125434027777778,-0.12890625],[-0.13238715277777777,-0.12159288194444444],[-0.1465017361111111,-0.11704427083333334],[-0.1578689236111111,-0.11305121527777778],[-0.16322916666666668,-0.11128038194444445],[-0.16579427083333334,-0.110546875],[-0.16713107638888888,-0.10990451388888889],[-0.167421875,-0.10990451388888889],[-0.167421875,-0.10990451388888889],[-0.167421875,-0.10990451388888889],[-0.167421875,-0.10990451388888889],[-0.1671657986111111,-0.10990451388888889]],[[-0.0008246527777777778,-0.19690104166666667],[-0.0008246527777777778,-0.19717447916666667],[-0.0008246527777777778,-0.19717447916666667],[-0.0008246527777777778,-0.19717447916666667],[-0.0008246527777777778,-0.19717447916666667],[-0.0008246527777777778,-0.18770399305555555],[-0.0008246527777777778,-0.1734939236111111],[-0.0008246527777777778,-0.1453949652777778],[-0.0016102430555555555,-0.11601996527777778],[-0.002395833333333333,-0.09868055555555555],[-0.002395833333333333,-0.08697482638888888],[-0.0052517361111111115,-0.06963541666666667],[-0.006766493055555556,-0.06218315972222222],[-0.011115451388888888,-0.05154079861111111],[-0.011879340277777779,-0.04844184027777778],[-0.012899305555555556,-0.0467578125],[-0.013220486111111112,-0.04582899305555556],[-0.013220486111111112,-0.04582899305555556],[-0.013220486111111112,-0.04582899305555556]]]",2,"[38,19]",,,,,,,,,,,,,,backstage1.jpg,space,5.864015,0,10,10,7,1,attic2.jpg,banquetHall4.jpg,baggageClaim3.jpg,applestore2.jpg,,
Image_List_3,,,,,,,,,,,,,,,,43903,2020-11-08_18h19.45.072,analogCatScenes,2020.1.3,MacIntel,60,"[1440,900]","[[[0.004822048611111111,-0.20183159722222221],[0.004822048611111111,-0.20183159722222221],[0.004822048611111111,-0.20183159722222221],[0.004822048611111111,-0.20183159722222221],[0.004822048611111111,-0.20183159722222221],[0.004822048611111111,-0.20183159722222221],[0.004822048611111111,-0.20183159722222221],[0.004822048611111111,-0.20183159722222221],[0.004822048611111111,-0.20183159722222221],[0.004822048611111111,-0.20183159722222221],[0.004822048611111111,-0.20183159722222221],[0.004822048611111111,-0.20183159722222221],[0.004822048611111111,-0.20183159722222221],[0.004822048611111111,-0.20183159722222221],[0.0008723958333333333,-0.1934157986111111],[-0.010720486111111111,-0.16923611111111111],[-0.04031684027777778,-0.10159288194444445],[-0.062378472222222224,-0.047313368055555555],[-0.09247395833333333,0.0279296875],[-0.11160590277777778,0.0771875],[-0.12363715277777777,0.10819010416666666],[-0.12512152777777777,0.11189236111111112],[-0.13325086805555555,0.13184461805555556],[-0.13401041666666666,0.13440972222222222],[-0.13430121527777777,0.13470052083333334],[-0.13430121527777777,0.13470052083333334]]]",1,[26],,,,,,,,,,,,,,bambooforest5.jpg,space,1.86316,0,11,11,12,1,baggageClaim4.jpg,bedroom6.jpg,bleachers7.jpg,backyard5.jpg,,
Image_List_3,,,,,,,,,,,,,,,,43903,2020-11-08_18h19.45.072,analogCatScenes,2020.1.3,MacIntel,60,"[1440,900]","[[[0.0020095486111111113,-0.2034982638888889],[0.0020095486111111113,-0.2034982638888889],[0.0020095486111111113,-0.2034982638888889],[0.0020095486111111113,-0.2034982638888889],[0.0020095486111111113,-0.2034982638888889],[-0.00875,-0.1692795138888889],[-0.03331163194444445,-0.0742751736111111],[-0.056315104166666664,0.049817708333333335],[-0.06306423611111112,0.12701822916666666],[-0.06563802083333334,0.1839670138888889],[-0.06563802083333334,0.21408854166666666],[-0.06563802083333334,0.22776909722222222],[-0.06617621527777778,0.23588541666666665],[-0.06617621527777778,0.23797743055555556],[-0.06617621527777778,0.23797743055555556],[-0.06617621527777778,0.23797743055555556]],[[0.0024088541666666668,-0.20668402777777778],[0.0024088541666666668,-0.20668402777777778],[0.0024088541666666668,-0.20668402777777778],[0.0024088541666666668,-0.20668402777777778],[0.0024088541666666668,-0.20668402777777778],[0.0024088541666666668,-0.20668402777777778],[0.0024088541666666668,-0.20668402777777778],[0.0024088541666666668,-0.20668402777777778],[0.0024088541666666668,-0.20668402777777778],[0.0024088541666666668,-0.20668402777777778],[0.0024088541666666668,-0.20668402777777778],[0.0024088541666666668,-0.20668402777777778],[0.0024088541666666668,-0.20668402777777778],[0.0024088541666666668,-0.20668402777777778],[0.0024088541666666668,-0.20668402777777778],[0.0024088541666666668,-0.20668402777777778],[0.0024088541666666668,-0.20668402777777778],[0.0024088541666666668,-0.20668402777777778],[0.0024088541666666668,-0.20668402777777778],[0.0024088541666666668,-0.20668402777777778],[0.0024088541666666668,-0.20668402777777778],[0.0024088541666666668,-0.20668402777777778],[0.0024088541666666668,-0.20668402777777778],[0.0024088541666666668,-0.20668402777777778],[0.0024088541666666668,-0.20668402777777778],[0.0024088541666666668,-0.20668402777777778],[0.0024088541666666668,-0.20668402777777778],[0.0024088541666666668,-0.20668402777777778],[0.0024088541666666668,-0.20668402777777778],[0.0024088541666666668,-0.20668402777777778],[0.0024088541666666668,-0.20668402777777778],[0.0024088541666666668,-0.20668402777777778],[0.0024088541666666668,-0.20668402777777778],[0.0024088541666666668,-0.20668402777777778],[0.0024088541666666668,-0.20668402777777778],[0.0024088541666666668,-0.20668402777777778],[0.0024088541666666668,-0.20668402777777778],[0.0024088541666666668,-0.20668402777777778],[0.0024088541666666668,-0.20668402777777778],[0.0024088541666666668,-0.20668402777777778],[0.0024088541666666668,-0.20668402777777778],[0.0024088541666666668,-0.20668402777777778],[0.0024088541666666668,-0.20668402777777778],[0.0024088541666666668,-0.2064236111111111],[0.0024088541666666668,-0.2061545138888889],[0.0024088541666666668,-0.20557291666666666],[0.0024088541666666668,-0.20499131944444443],[0.0024088541666666668,-0.20266927083333333],[0.0030338541666666665,-0.19362413194444444],[0.006319444444444444,-0.17716579861111112],[0.0171484375,-0.13078993055555554],[0.046575520833333335,-0.04768229166666667],[0.0865625,0.03631510416666667],[0.12135416666666667,0.09856770833333334],[0.1368793402777778,0.12487413194444444],[0.14877604166666666,0.1448003472222222],[0.15792534722222223,0.15925347222222222],[0.16196180555555556,0.16342881944444446],[0.16253472222222223,0.16371961805555554],[0.1628168402777778,0.16371961805555554],[0.1628168402777778,0.16371961805555554],[0.1628168402777778,0.16317274305555557],[0.1628168402777778,0.16225260416666668],[0.15997829861111112,0.15809895833333334]]]",2,"[16,64]",,,,,,,,,,,,,,sidewalk1.jpg,space,4.14693,0,12,12,90,1,savanna5.jpg,trainStation1.jpg,stripmall3.jpg,shoestore4.jpg,,
Image_List_3,,,,,,,,,,,,,,,,43903,2020-11-08_18h19.45.072,analogCatScenes,2020.1.3,MacIntel,60,"[1440,900]","[[[0.004526909722222222,-0.20532118055555557],[0.004526909722222222,-0.20532118055555557],[0.004526909722222222,-0.20532118055555557],[0.004526909722222222,-0.20532118055555557],[0.004526909722222222,-0.20532118055555557],[0.004526909722222222,-0.20532118055555557],[0.004001736111111111,-0.20532118055555557],[-0.0006987847222222222,-0.20532118055555557],[-0.0073741319444444444,-0.20532118055555557],[-0.017547743055555554,-0.20532118055555557],[-0.02884982638888889,-0.20532118055555557],[-0.04446614583333333,-0.20315972222222223],[-0.05758246527777778,-0.20077256944444444],[-0.08053385416666667,-0.19371527777777778],[-0.09674045138888888,-0.18496961805555556],[-0.10706597222222222,-0.1758376736111111],[-0.12007378472222222,-0.16078125],[-0.13235243055555557,-0.13960503472222222],[-0.13605902777777779,-0.12623697916666668],[-0.1380078125,-0.11015190972222222],[-0.1380078125,-0.09997829861111111],[-0.1380078125,-0.09186631944444444],[-0.1380078125,-0.08829427083333333],[-0.13772135416666667,-0.08695746527777778],[-0.1371484375,-0.08637586805555555],[-0.1368793402777778,-0.08637586805555555],[-0.13661458333333334,-0.08637586805555555],[-0.13661458333333334,-0.08637586805555555],[-0.13661458333333334,-0.08663628472222222],[-0.13661458333333334,-0.08690538194444444],[-0.13661458333333334,-0.08719184027777778],[-0.13661458333333334,-0.0874609375]],[[0.003654513888888889,-0.20100260416666665],[0.003654513888888889,-0.20100260416666665],[0.003654513888888889,-0.20100260416666665],[0.003654513888888889,-0.20100260416666665],[0.003654513888888889,-0.20100260416666665],[0.003654513888888889,-0.20100260416666665],[0.003654513888888889,-0.20100260416666665],[0.003654513888888889,-0.20100260416666665],[0.003654513888888889,-0.20100260416666665],[0.003654513888888889,-0.20100260416666665],[0.003654513888888889,-0.20100260416666665],[0.011332465277777778,-0.20100260416666665],[0.023190104166666666,-0.20100260416666665],[0.033016493055555554,-0.20111979166666666],[0.04046440972222222,-0.20165364583333334],[0.0470703125,-0.20212239583333333],[0.05235677083333334,-0.20256076388888888],[0.058428819444444446,-0.20305989583333334],[0.06575520833333333,-0.20305989583333334],[0.07308159722222222,-0.20352864583333333],[0.07902777777777778,-0.20352864583333333],[0.08830295138888888,-0.2040234375],[0.09424913194444444,-0.2040234375],[0.10307725694444445,-0.2040234375],[0.11437065972222223,-0.2040234375],[0.12266059027777777,-0.2030121527777778],[0.13076822916666667,-0.20152777777777778],[0.13887586805555555,-0.19950954861111111],[0.1439409722222222,-0.19730034722222223],[0.153203125,-0.19289930555555557],[0.16131076388888888,-0.1893402777777778],[0.17569444444444443,-0.1817534722222222],[0.1834982638888889,-0.17718315972222223],[0.19490885416666667,-0.17018663194444444],[0.2008203125,-0.16628038194444444],[0.20970052083333332,-0.16043836805555556],[0.22536458333333334,-0.14827256944444445],[0.22983506944444446,-0.14426649305555556],[0.24011284722222223,-0.13350694444444444],[0.25286024305555554,-0.11946180555555555],[0.2564453125,-0.11457465277777777],[0.2625043402777778,-0.10637586805555556],[0.27056423611111113,-0.09167534722222222],[0.2745138888888889,-0.0803732638888889],[0.2768012152777778,-0.0681640625],[0.2779904513888889,-0.055047743055555556],[0.2779904513888889,-0.047591145833333334],[0.2779904513888889,-0.0409765625],[0.2746527777777778,-0.034301215277777776],[0.27206163194444444,-0.030421006944444443],[0.26959635416666666,-0.02713107638888889],[0.26860677083333334,-0.025794270833333334],[0.2673263888888889,-0.024166666666666666],[0.2670529513888889,-0.024166666666666666],[0.2670529513888889,-0.024166666666666666],[0.26678819444444446,-0.023901909722222222],[0.26651475694444443,-0.02362847222222222],[0.26651475694444443,-0.023355034722222223],[0.26483072916666667,-0.022682291666666667],[0.25515190972222224,-0.022178819444444445],[0.25515190972222224,-0.022178819444444445]]]",2,"[32,61]",,,,,,,,,,,,,,auto_showroom4.jpg,space,3.83354,0,13,13,5,1,artStudio3.jpg,bambooforest.jpg,attic4.jpg,amusement3.jpg,,
Image_List_3,,,,,,,,,,,,,,,,43903,2020-11-08_18h19.45.072,analogCatScenes,2020.1.3,MacIntel,60,"[1440,900]","[[[0.0008550347222222222,-0.1886371527777778],[0.0008550347222222222,-0.1886371527777778],[0.0008550347222222222,-0.1886371527777778],[0.0008550347222222222,-0.1886371527777778],[0.0008550347222222222,-0.1886371527777778],[0.0008550347222222222,-0.1886371527777778],[0.0008550347222222222,-0.1886371527777778],[0.0008550347222222222,-0.1886371527777778],[0.0021788194444444446,-0.1886371527777778],[0.01275607638888889,-0.1886371527777778],[0.03211371527777778,-0.1886371527777778],[0.064375,-0.1886371527777778],[0.08604600694444445,-0.1886371527777778],[0.10024739583333334,-0.1886371527777778],[0.11082465277777778,-0.1886371527777778],[0.12340277777777778,-0.18731770833333333],[0.13719618055555555,-0.18041666666666667],[0.1501736111111111,-0.17307291666666666],[0.1653081597222222,-0.16319444444444445],[0.17881510416666666,-0.15356770833333333],[0.19604166666666667,-0.1407204861111111],[0.20542100694444446,-0.13196180555555556],[0.21643663194444446,-0.1215625],[0.2204340277777778,-0.11755642361111111],[0.22270833333333334,-0.11568576388888889],[0.22331163194444445,-0.11475694444444444],[0.22359809027777777,-0.11475694444444444],[0.22359809027777777,-0.11448350694444444],[0.22359809027777777,-0.11448350694444444]]]",1,[29],,,,,,,,,,,,,,lightingstore4.jpg,space,1.8145,0,14,14,68,1,liquorstore7.jpg,parkinglot.jpg,lockerroom2.jpg,hospitalroom3.jpg,,
Image_List_3,,,,,,,,,,,,,,,,43903,2020-11-08_18h19.45.072,analogCatScenes,2020.1.3,MacIntel,60,"[1440,900]","[[[-0.0039713541666666664,-0.1969921875],[-0.0039713541666666664,-0.1969921875],[-0.0039713541666666664,-0.1969921875],[-0.0039713541666666664,-0.1969921875],[-0.0039713541666666664,-0.1969921875],[-0.0039713541666666664,-0.1969921875],[-0.0039713541666666664,-0.1969921875],[-0.0039713541666666664,-0.1959375],[-0.007530381944444445,-0.18901475694444445],[-0.013967013888888888,-0.17783854166666666],[-0.019149305555555555,-0.16763020833333334],[-0.030325520833333335,-0.15165364583333332],[-0.034479166666666665,-0.14561197916666666],[-0.03760416666666667,-0.1407248263888889],[-0.04357204861111111,-0.13243489583333334],[-0.047352430555555554,-0.12629340277777779],[-0.047352430555555554,-0.12629340277777779],[-0.05270399305555556,-0.11941840277777778],[-0.05948784722222222,-0.10971354166666666],[-0.06308159722222222,-0.10570746527777777],[-0.07305121527777778,-0.09520399305555556],[-0.08053385416666667,-0.08825520833333333],[-0.08879774305555556,-0.08165364583333333],[-0.09840711805555556,-0.07486545138888889],[-0.10796875,-0.068671875],[-0.11814236111111111,-0.06302083333333333],[-0.12947048611111112,-0.05526909722222222],[-0.14082899305555555,-0.04748263888888889],[-0.15187934027777777,-0.041106770833333334],[-0.1583637152777778,-0.03666666666666667],[-0.1669748263888889,-0.03125868055555556],[-0.17095052083333334,-0.028224826388888888],[-0.17629340277777777,-0.02411458333333333],[-0.17958333333333334,-0.021649305555555557],[-0.18186631944444445,-0.019366319444444443],[-0.1827907986111111,-0.018441840277777777],[-0.1827907986111111,-0.018151041666666666],[-0.1827907986111111,-0.018151041666666666]],[[-0.003207465277777778,-0.20088975694444444],[-0.003207465277777778,-0.20088975694444444],[-0.003207465277777778,-0.20088975694444444],[-0.003207465277777778,-0.20088975694444444],[-0.003207465277777778,-0.1998220486111111],[-0.003207465277777778,-0.19174479166666666],[-0.003207465277777778,-0.18037760416666668],[-0.003207465277777778,-0.16429253472222222],[-0.003207465277777778,-0.14608072916666667],[-0.003207465277777778,-0.12446614583333333],[-0.003207465277777778,-0.10163194444444444],[-0.003207465277777778,-0.07629340277777778],[-0.0027083333333333334,-0.06145833333333333],[-0.002209201388888889,-0.055377604166666664],[-0.0009505208333333334,-0.05067708333333333],[-0.0006032986111111111,-0.04904947916666667],[-0.0006032986111111111,-0.04904947916666667],[-0.0006032986111111111,-0.04904947916666667],[-0.0006032986111111111,-0.04904947916666667],[-0.0006032986111111111,-0.04959635416666667],[-0.0006032986111111111,-0.050169270833333335],[-0.0008940972222222222,-0.050455729166666664]]]",2,"[38,22]",,,,,,,,,,,,,,laundromat3.jpg,space,3.43176,0,15,15,66,1,library_aisle10.jpg,office3.jpg,liquorstore.jpg,horsebarn9.jpg,,
Image_List_3,,,,,,,,,,,,,,,,43903,2020-11-08_18h19.45.072,analogCatScenes,2020.1.3,MacIntel,60,"[1440,900]","[[[0.005073784722222223,-0.19827256944444444],[0.005073784722222223,-0.19827256944444444],[0.005073784722222223,-0.19827256944444444],[0.005073784722222223,-0.19118055555555555],[0.002065972222222222,-0.1464670138888889],[-0.0030164930555555557,-0.06378472222222223],[-0.0030164930555555557,-0.03159288194444444],[-0.0030164930555555557,0.004652777777777777],[-0.0030164930555555557,0.023363715277777777],[-0.0030164930555555557,0.03491753472222222],[-0.0030164930555555557,0.03707465277777778],[-0.0030164930555555557,0.03707465277777778],[-0.0030164930555555557,0.03707465277777778]]]",1,[13],,,,,,,,,,,,,,breakroom2.jpg,space,1.83146,0,16,16,16,1,basement.jpg,cafeteria6.jpg,campusquad4.jpg,barbershop2.jpg,,
Image_List_3,,,,,,,,,,,,,,,,43903,2020-11-08_18h19.45.072,analogCatScenes,2020.1.3,MacIntel,60,"[1440,900]","[[[0.011440972222222222,-0.2023046875],[0.011440972222222222,-0.2023046875],[0.011440972222222222,-0.2023046875],[0.011440972222222222,-0.2023046875],[0.011440972222222222,-0.2023046875],[0.011440972222222222,-0.2023046875],[0.011440972222222222,-0.2023046875],[0.011440972222222222,-0.2023046875],[0.011440972222222222,-0.2023046875],[0.011440972222222222,-0.2023046875],[0.011440972222222222,-0.2023046875],[0.011440972222222222,-0.2023046875],[0.010555555555555556,-0.1986154513888889],[0.004900173611111111,-0.1883767361111111],[-0.00006076388888888889,-0.1784548611111111],[-0.0033984375,-0.1717795138888889],[-0.0061328125,-0.16571180555555556],[-0.007651909722222222,-0.16267361111111112],[-0.00861545138888889,-0.1606987847222222],[-0.009544270833333333,-0.16008680555555554],[-0.010503472222222223,-0.15912760416666666],[-0.011115451388888888,-0.15819878472222224],[-0.012074652777777778,-0.15723958333333332],[-0.01265625,-0.15694878472222223],[-0.01294704861111111,-0.1563671875],[-0.014756944444444444,-0.1556076388888889],[-0.019457465277777777,-0.15345920138888888],[-0.029036458333333334,-0.1491970486111111],[-0.04812065972222222,-0.142109375],[-0.07489149305555555,-0.13276041666666666],[-0.0953515625,-0.12639756944444444],[-0.1206640625,-0.12026041666666666],[-0.1486328125,-0.11227430555555555],[-0.1659982638888889,-0.10760416666666667],[-0.17895833333333333,-0.10458767361111111],[-0.1886371527777778,-0.10188368055555555],[-0.1975954861111111,-0.10027777777777777],[-0.20355034722222223,-0.09983506944444444],[-0.21016493055555555,-0.0984157986111111],[-0.21433159722222223,-0.09759114583333334],[-0.21875,-0.09608506944444445],[-0.21967881944444445,-0.09547309027777778],[-0.21967881944444445,-0.09518229166666667],[-0.21967881944444445,-0.09518229166666667],[-0.21967881944444445,-0.09462673611111111]],[[-0.005160590277777778,-0.1982421875],[-0.005160590277777778,-0.1982421875],[-0.005160590277777778,-0.1982421875],[-0.005160590277777778,-0.1982421875],[-0.005160590277777778,-0.19718315972222222],[-0.005160590277777778,-0.18822482638888888],[-0.005160590277777778,-0.1721484375],[-0.005160590277777778,-0.1518012152777778],[-0.005160590277777778,-0.1412152777777778],[-0.005160590277777778,-0.13110677083333333],[-0.005160590277777778,-0.12424479166666667],[-0.005633680555555556,-0.11888454861111111],[-0.008090277777777778,-0.11154947916666667],[-0.010004340277777777,-0.10549045138888889],[-0.012213541666666666,-0.1001953125],[-0.013854166666666667,-0.09603732638888889],[-0.01713107638888889,-0.08980034722222222],[-0.02034722222222222,-0.08431857638888889],[-0.025225694444444443,-0.07796006944444445],[-0.031041666666666665,-0.0726171875],[-0.03268663194444445,-0.07138454861111111],[-0.04008246527777778,-0.06712239583333333],[-0.05216579861111111,-0.06208767361111111],[-0.06100260416666667,-0.05950520833333333],[-0.07059461805555556,-0.056302083333333336],[-0.0802126736111111,-0.053624131944444445],[-0.08902777777777778,-0.051015625],[-0.09864583333333334,-0.04833767361111111],[-0.1082638888888889,-0.04565972222222222],[-0.11956597222222222,-0.042265625],[-0.13365017361111112,-0.03981770833333333],[-0.163359375,-0.039188368055555554],[-0.18381944444444445,-0.039188368055555554],[-0.20793836805555554,-0.040750868055555556],[-0.23190104166666667,-0.0444921875],[-0.24720486111111112,-0.0457421875],[-0.26438368055555556,-0.0457421875],[-0.27184027777777775,-0.0457421875],[-0.27654079861111114,-0.04532986111111111],[-0.2782248263888889,-0.04434027777777778],[-0.278515625,-0.04341145833333333],[-0.2782291666666667,-0.043120659722222225]]]",2,"[45,42]",,,,,,,,,,,,,,stripmall6.jpg,space,9.01471,0,17,17,95,1,waitingroom2.jpg,warehouse2.jpg,weightroom4.jpg,tvstudio3.jpg,,
Image_List_3,,,,,,,,,,,,,,,,43903,2020-11-08_18h19.45.072,analogCatScenes,2020.1.3,MacIntel,60,"[1440,900]","[[[0.008337673611111112,-0.19936631944444444],[0.008337673611111112,-0.19936631944444444],[0.008337673611111112,-0.19936631944444444],[0.008337673611111112,-0.19936631944444444],[0.008337673611111112,-0.19936631944444444],[0.008337673611111112,-0.19936631944444444],[0.008337673611111112,-0.19936631944444444],[0.008337673611111112,-0.19936631944444444],[0.008337673611111112,-0.19936631944444444],[0.008337673611111112,-0.19936631944444444],[0.008337673611111112,-0.19936631944444444],[0.008337673611111112,-0.19936631944444444],[0.008337673611111112,-0.19936631944444444],[0.008337673611111112,-0.19936631944444444],[0.008337673611111112,-0.19936631944444444],[0.008337673611111112,-0.19936631944444444],[0.008337673611111112,-0.19936631944444444],[0.008337673611111112,-0.19936631944444444],[0.008337673611111112,-0.19936631944444444],[0.008337673611111112,-0.19936631944444444],[0.008337673611111112,-0.19936631944444444],[0.008337673611111112,-0.19936631944444444],[0.008337673611111112,-0.19936631944444444],[0.008337673611111112,-0.19936631944444444],[0.008337673611111112,-0.19936631944444444],[0.008337673611111112,-0.19936631944444444],[0.008337673611111112,-0.19936631944444444],[0.008337673611111112,-0.19936631944444444],[0.008337673611111112,-0.19936631944444444],[0.008337673611111112,-0.19936631944444444],[0.008337673611111112,-0.19936631944444444],[0.008337673611111112,-0.19936631944444444],[0.008337673611111112,-0.19936631944444444],[0.008337673611111112,-0.19936631944444444],[0.008337673611111112,-0.19936631944444444],[0.008337673611111112,-0.19936631944444444],[0.008337673611111112,-0.19936631944444444],[0.008337673611111112,-0.19936631944444444],[0.008337673611111112,-0.19936631944444444],[0.008077256944444444,-0.19936631944444444],[0.006393229166666667,-0.19936631944444444],[-0.0053125,-0.19509114583333334],[-0.05447916666666667,-0.1806814236111111],[-0.14393663194444445,-0.15401909722222223],[-0.2127734375,-0.13746527777777778],[-0.2700694444444444,-0.12440104166666667],[-0.2899392361111111,-0.12085503472222223],[-0.3041493055555556,-0.11831163194444444],[-0.30831597222222223,-0.11748697916666667],[-0.30895399305555554,-0.11748697916666667],[-0.30895399305555554,-0.11748697916666667],[-0.30895399305555554,-0.11748697916666667],[-0.3086935763888889,-0.11748697916666667],[-0.30812065972222225,-0.11748697916666667],[-0.3078342013888889,-0.11748697916666667]]]",1,[55],,,,,,,,,,,,,,citystreet10.jpg,space,4.3986,0,18,18,28,1,churchInside1.jpg,dancestudio5.jpg,clothingstore5.jpg,bridalboutique2.jpg,,
Image_List_3,,,,,,,,,,,,,,,,43903,2020-11-08_18h19.45.072,analogCatScenes,2020.1.3,MacIntel,60,"[1440,900]","[[[0.006875,-0.19659722222222223],[0.006875,-0.19659722222222223],[0.006875,-0.19659722222222223],[0.006875,-0.19659722222222223],[0.006875,-0.19659722222222223],[0.006875,-0.19659722222222223],[0.006875,-0.19659722222222223],[0.006875,-0.19659722222222223],[0.006102430555555555,-0.19659722222222223],[-0.0021961805555555554,-0.19659722222222223],[-0.02031684027777778,-0.19659722222222223],[-0.053411458333333335,-0.19659722222222223],[-0.07259548611111111,-0.19659722222222223],[-0.0940625,-0.19659722222222223],[-0.11816840277777778,-0.19659722222222223],[-0.14222222222222222,-0.19133246527777778],[-0.16524305555555555,-0.18055555555555555],[-0.18482204861111112,-0.16254774305555555],[-0.20157986111111112,-0.14015625],[-0.2148263888888889,-0.11206163194444445],[-0.22171875,-0.0916623263888889],[-0.22788628472222222,-0.06621527777777778],[-0.22892795138888888,-0.053276909722222224],[-0.22892795138888888,-0.04959201388888889],[-0.22892795138888888,-0.048255208333333334],[-0.22892795138888888,-0.048255208333333334],[-0.22866753472222223,-0.048255208333333334],[-0.22838107638888888,-0.048255208333333334],[-0.22838107638888888,-0.04851996527777778],[-0.22838107638888888,-0.04851996527777778]],[[-0.010151909722222222,-0.19077690972222222],[-0.010151909722222222,-0.19077690972222222],[-0.010151909722222222,-0.19077690972222222],[-0.010151909722222222,-0.19077690972222222],[-0.010151909722222222,-0.19077690972222222],[-0.009631076388888889,-0.19077690972222222],[-0.001953125,-0.19077690972222222],[0.010247395833333334,-0.19077690972222222],[0.026271701388888888,-0.19077690972222222],[0.03812934027777778,-0.19077690972222222],[0.04714409722222222,-0.19077690972222222],[0.05459201388888889,-0.19077690972222222],[0.06163194444444445,-0.1857421875],[0.07116319444444444,-0.17198350694444445],[0.08290364583333333,-0.1466970486111111],[0.090546875,-0.12886284722222222],[0.0975,-0.11193576388888889],[0.10244357638888889,-0.09147569444444445],[0.10381944444444445,-0.074296875],[0.10381944444444445,-0.061119791666666666],[0.0981640625,-0.050381944444444444],[0.09410590277777778,-0.043650173611111114],[0.08874565972222222,-0.03696180555555555],[0.08700086805555556,-0.03521701388888889],[0.08604166666666667,-0.0342578125],[0.08575086805555555,-0.03396701388888889],[0.08547743055555555,-0.03396701388888889],[0.08547743055555555,-0.03396701388888889],[0.08547743055555555,-0.03396701388888889],[0.08521267361111111,-0.03396701388888889],[0.07376736111111111,-0.036844618055555556]]]",2,"[30,31]",,,,,,,,,,,,,,livingroom.jpg,space,2.634895,0,19,19,69,1,liquorstore8.jpg,parkinglot2.jpg,metroInside1.jpg,icecream2.jpg,,
Image_List_3,,,,,,,,,,,,,,,,43903,2020-11-08_18h19.45.072,analogCatScenes,2020.1.3,MacIntel,60,"[1440,900]","[[[0.007430555555555556,-0.19907552083333332],[0.007430555555555556,-0.19907552083333332],[0.007430555555555556,-0.19907552083333332],[0.007430555555555556,-0.19907552083333332],[0.007430555555555556,-0.19907552083333332],[0.007430555555555556,-0.19907552083333332],[0.007430555555555556,-0.17992621527777777],[0.007430555555555556,-0.027274305555555555],[0.03275607638888889,0.15458333333333332],[0.08345920138888889,0.3554904513888889],[0.10141059027777778,0.42431423611111113]]]",1,[11],,,,,,,,,,,,,,appleorchard4.jpg,space,1.68113,0,20,20,0,1,airplanecabin1.jpg,alley2.jpg,airplanecabin5.jpg,airplanecabin3.jpg,,
Image_List_3,,,,,,,,,,,,,,,,43903,2020-11-08_18h19.45.072,analogCatScenes,2020.1.3,MacIntel,60,"[1440,900]","[[[-0.0005295138888888889,-0.20115017361111112],[-0.0005295138888888889,-0.20115017361111112],[-0.0005295138888888889,-0.20115017361111112],[-0.0005295138888888889,-0.20115017361111112],[-0.0005295138888888889,-0.20115017361111112],[-0.0005295138888888889,-0.20115017361111112],[-0.0005295138888888889,-0.20115017361111112],[-0.0005295138888888889,-0.20115017361111112],[-0.0005295138888888889,-0.20115017361111112],[-0.0005295138888888889,-0.20115017361111112],[-0.0005295138888888889,-0.20115017361111112],[-0.010967881944444445,-0.19175347222222222],[-0.03185763888888889,-0.1676388888888889],[-0.05102430555555556,-0.14634114583333332],[-0.10839409722222222,-0.07555555555555556],[-0.13251302083333333,-0.04367621527777778],[-0.1479296875,-0.02375],[-0.15665364583333333,-0.01173611111111111],[-0.16350260416666668,-0.0020963541666666665],[-0.1665017361111111,0.0017578125],[-0.16714409722222223,0.0030946180555555558],[-0.16743489583333335,0.0033854166666666668],[-0.16743489583333335,0.0033854166666666668],[-0.16743489583333335,0.0033854166666666668]]]",1,[24],,,,,,,,,,,,,,promenadeDeck2.jpg,space,2.62957,0,21,21,81,1,promenadeDeck.jpg,ruralroad5.jpg,rainforest5.jpg,pasture8.jpg,,
Image_List_3,,,,,,,,,,,,,,,,43903,2020-11-08_18h19.45.072,analogCatScenes,2020.1.3,MacIntel,60,"[1440,900]","[[[-0.004583333333333333,-0.19384114583333334],[-0.004583333333333333,-0.19411458333333334],[-0.004583333333333333,-0.19411458333333334],[-0.004583333333333333,-0.19411458333333334],[-0.004583333333333333,-0.19411458333333334],[-0.004583333333333333,-0.1924609375],[-0.0066536458333333335,-0.1762717013888889],[-0.01628472222222222,-0.1413324652777778],[-0.029019097222222224,-0.08616319444444444],[-0.037855902777777777,-0.02689670138888889],[-0.04142795138888889,0.003988715277777778],[-0.04503038194444445,0.04059027777777778],[-0.04759982638888889,0.07418836805555555],[-0.049544270833333334,0.1427517361111111],[-0.049544270833333334,0.1730685763888889],[-0.049544270833333334,0.1933767361111111],[-0.049544270833333334,0.20683159722222222],[-0.049544270833333334,0.21838541666666667],[-0.05256076388888889,0.226484375],[-0.055026041666666664,0.23059027777777777],[-0.05695746527777778,0.23368923611111111],[-0.058828125,0.23597222222222222]],[[0.0028255208333333335,-0.20200086805555556],[0.0028255208333333335,-0.20200086805555556],[0.0028255208333333335,-0.20200086805555556],[0.0028255208333333335,-0.20200086805555556],[0.0028255208333333335,-0.20200086805555556],[0.0033463541666666667,-0.20200086805555556],[0.012174479166666667,-0.20200086805555556],[0.02927517361111111,-0.20200086805555556],[0.0533203125,-0.20200086805555556],[0.08128038194444444,-0.20200086805555556],[0.10661024305555555,-0.20200086805555556],[0.11815538194444444,-0.20200086805555556],[0.12500868055555556,-0.20200086805555556],[0.1298263888888889,-0.20200086805555556],[0.1315017361111111,-0.20200086805555556],[0.13506510416666667,-0.20200086805555556],[0.14036024305555556,-0.200859375],[0.15268663194444446,-0.19674479166666667],[0.15625,-0.19475260416666668],[0.16797309027777776,-0.1884765625],[0.1718185763888889,-0.18547743055555554],[0.18556857638888888,-0.17287326388888888],[0.1903168402777778,-0.1687109375],[0.2021310763888889,-0.15766927083333335],[0.20481336805555556,-0.15532552083333334],[0.20809461805555557,-0.15286024305555557],[0.20936197916666666,-0.1515842013888889],[0.21025173611111111,-0.15036458333333333],[0.21330729166666668,-0.1454123263888889],[0.21475694444444443,-0.1428472222222222],[0.21996961805555557,-0.13523871527777778],[0.22233506944444445,-0.13245225694444446],[0.22416666666666665,-0.13026475694444445],[0.22508680555555555,-0.12965277777777778],[0.22565972222222222,-0.12936197916666667],[0.22565972222222222,-0.12936197916666667],[0.22565972222222222,-0.12936197916666667],[0.22565972222222222,-0.12936197916666667],[0.22565972222222222,-0.12936197916666667],[0.22334201388888889,-0.12936197916666667],[0.22334201388888889,-0.12936197916666667]]]",2,"[22,41]",,,,,,,,,,,,,,staircase6.jpg,space,3.26886,0,22,22,94,1,treehouse.jpg,waitingroom3.jpg,weightroom.jpg,trainStation3.jpg,,
Image_List_3,,,,,,,,,,,,,,,,43903,2020-11-08_18h19.45.072,analogCatScenes,2020.1.3,MacIntel,60,"[1440,900]","[[[0.0015581597222222223,-0.19340277777777778],[0.0015581597222222223,-0.19340277777777778],[0.0015581597222222223,-0.19340277777777778],[0.0015581597222222223,-0.19340277777777778],[0.0015581597222222223,-0.19340277777777778],[0.0015581597222222223,-0.19340277777777778],[0.0015581597222222223,-0.19340277777777778],[0.0015581597222222223,-0.19340277777777778],[0.0015581597222222223,-0.19340277777777778],[0.0015581597222222223,-0.19340277777777778],[0.0015581597222222223,-0.19340277777777778],[0.0015581597222222223,-0.19340277777777778],[0.0015581597222222223,-0.19340277777777778],[0.0015581597222222223,-0.19340277777777778],[0.0015581597222222223,-0.19340277777777778],[0.0015581597222222223,-0.19340277777777778],[0.0015581597222222223,-0.19340277777777778],[0.0015581597222222223,-0.19340277777777778],[0.0015581597222222223,-0.19340277777777778],[0.0015581597222222223,-0.19340277777777778],[0.0015581597222222223,-0.19340277777777778],[0.0015581597222222223,-0.19340277777777778],[0.0015581597222222223,-0.19340277777777778],[0.0015581597222222223,-0.19340277777777778],[0.0015581597222222223,-0.1931423611111111],[0.0015581597222222223,-0.192578125],[0.0015581597222222223,-0.1923046875],[0.0015581597222222223,-0.19137586805555556],[0.001267361111111111,-0.1904470486111111],[0.001267361111111111,-0.18876302083333332],[0.001267361111111111,-0.18748697916666668],[0.001267361111111111,-0.18655815972222223],[0.001267361111111111,-0.18464409722222222],[0.001584201388888889,-0.18371527777777777],[0.0038585069444444444,-0.18174913194444445],[0.014921875,-0.1694878472222222],[0.030013020833333334,-0.1506640625],[0.05447048611111111,-0.12344184027777778],[0.09562934027777778,-0.08227430555555555],[0.1326996527777778,-0.0512109375],[0.1750607638888889,-0.020203993055555557],[0.22286458333333334,0.00959201388888889],[0.24309461805555554,0.01968315972222222],[0.2850217013888889,0.038702256944444444],[0.2948090277777778,0.042009548611111114],[0.30213541666666666,0.043962673611111114],[0.3052256944444444,0.04431423611111111],[0.30614583333333334,0.04431423611111111],[0.30671875,0.04431423611111111],[0.30671875,0.04431423611111111],[0.30671875,0.04431423611111111],[0.30671875,0.04431423611111111],[0.30562065972222224,0.04486545138888889]],[[0.0017795138888888889,-0.1921267361111111],[0.0017795138888888889,-0.1921267361111111],[0.0017795138888888889,-0.1921267361111111],[0.0017795138888888889,-0.1921267361111111],[0.0017795138888888889,-0.1921267361111111],[0.0017795138888888889,-0.1921267361111111],[0.0017795138888888889,-0.1921267361111111],[0.0017795138888888889,-0.18783854166666666],[0.0017795138888888889,-0.17725260416666666],[0.0017795138888888889,-0.15891927083333332],[0.006098090277777778,-0.12219184027777778],[0.013363715277777778,-0.10179253472222222],[0.017808159722222223,-0.08811631944444444],[0.023450520833333332,-0.07710069444444445],[0.04083333333333333,-0.054144965277777776],[0.05293402777777778,-0.04398003472222222],[0.07572482638888889,-0.024375],[0.106328125,0.0015668402777777777],[0.12657552083333334,0.018485243055555555],[0.13636284722222222,0.02601996527777778],[0.1437109375,0.03130642361111111],[0.15471354166666668,0.037651909722222224],[0.1589670138888889,0.04024305555555555],[0.16560763888888888,0.04356770833333334],[0.17739583333333334,0.0516015625],[0.18296440972222222,0.0553515625],[0.1880425347222222,0.05772569444444445],[0.18930989583333332,0.05772569444444445],[0.1898828125,0.05772569444444445],[0.1898828125,0.057456597222222225],[0.1898828125,0.05618923611111111],[0.1898828125,0.052886284722222225]],[[-0.006614583333333333,-0.20623697916666667],[-0.006614583333333333,-0.20623697916666667],[-0.006614583333333333,-0.20623697916666667],[-0.006614583333333333,-0.20623697916666667],[-0.006614583333333333,-0.20623697916666667],[-0.006614583333333333,-0.2009027777777778],[-0.006614583333333333,-0.17903211805555555],[-0.006614583333333333,-0.1544097222222222],[-0.006614583333333333,-0.11934027777777778],[-0.006614583333333333,-0.08740017361111112],[-0.006614583333333333,-0.07219184027777778],[-0.004735243055555556,-0.04713107638888889],[0.012981770833333333,0.00880642361111111],[0.023936631944444446,0.033363715277777775],[0.033953993055555555,0.05200954861111111],[0.039700520833333336,0.059930555555555556],[0.0445703125,0.06581597222222223],[0.04684027777777778,0.06815972222222222],[0.048802083333333336,0.06885850694444444],[0.049088541666666666,0.06885850694444444],[0.05029513888888889,0.06914930555555555],[0.05058159722222222,0.06914930555555555],[0.05144097222222222,0.06914930555555555],[0.05144097222222222,0.06914930555555555],[0.05144097222222222,0.06914930555555555],[0.05144097222222222,0.06833333333333333]],[[-0.0023350694444444443,-0.19305555555555556],[-0.0023350694444444443,-0.19305555555555556],[-0.0023350694444444443,-0.19305555555555556],[-0.0023350694444444443,-0.19305555555555556],[-0.0023350694444444443,-0.19279513888888888],[-0.004887152777777778,-0.1859331597222222],[-0.011163194444444444,-0.1721310763888889],[-0.014114583333333333,-0.16195746527777777],[-0.021280381944444444,-0.14106770833333335],[-0.027890625,-0.10769965277777778],[-0.027890625,-0.0768532986111111],[-0.027890625,-0.0251171875],[-0.027890625,-0.00453125],[-0.027890625,0.010772569444444444],[-0.027890625,0.024140625],[-0.027452256944444444,0.028841145833333335],[-0.026705729166666668,0.03185763888888889],[-0.022057291666666666,0.040190972222222225],[-0.018407118055555557,0.045234375],[-0.01416232638888889,0.0504296875],[-0.003676215277777778,0.061050347222222225],[-0.0008984375,0.06342447916666667],[0.0017795138888888889,0.06500868055555556],[0.003046875,0.06596788194444445],[0.0036197916666666666,0.06596788194444445],[0.004192708333333333,0.06596788194444445],[0.004192708333333333,0.06596788194444445],[0.004192708333333333,0.06596788194444445]]]",4,"[53,32,26,28]",,,,,,,,,,,,,,elevatorOutside1.jpg,space,9.7048,0,23,23,44,1,firestation2.jpg,frontFoyer4.jpg,foodcourt6.jpg,dock2.jpg,,
