image_list,key_resp_intructions.keys,key_resp_intructions.rt,key_resp_intructions_3.keys,key_resp_intructions_3.rt,PracticeComplete_2.keys,PracticeComplete_2.rt,PracticeComplete_3.keys,PracticeComplete_3.rt,demo_trials.thisRepN,demo_trials.thisTrialN,demo_trials.thisN,demo_trials.thisIndex,demo_trials.ran,demo_images,path_images,participant,date,expName,psychopyVersion,OS,frameRate,windowSize,practice_complete.keys,practice_complete.rt,boxes_checked,PracticeComplete.keys,PracticeComplete.rt,practice_trials.thisRepN,practice_trials.thisTrialN,practice_trials.thisN,practice_trials.thisIndex,practice_trials.ran,practice_images,feedback_images,key_resp_intructions_2.keys,key_resp_intructions_2.rt,Image_List_5,trial_complete.keys,trial_complete.rt,trial_mouse.x,trial_mouse.y,trial_mouse.leftButton,trial_mouse.midButton,trial_mouse.rightButton,trial_mouse.time,trial_mouse.clicked_name,trials.thisRepN,trials.thisTrialN,trials.thisN,trials.thisIndex,trials.ran,Image_List_1,Image_List_2,Image_List_3,Image_List_4,key_resp.keys,key_resp.rt
Image_List_5,space,60.222,space,4.797,space,28.224,space,8.58,0,0,0,3,1,ahead_right_left.jpg,ahead_right_left_path.jpg,43965,2020-11-12_13h19.53.509,lingCatScenes,2020.1.3,MacIntel,60,,,,,,,,,,,,,,,,,,,,,,,,,,,,,,,,,,,,
Image_List_5,,,,,space,5.171,space,2.228,0,1,1,4,1,left.jpg,left_path.jpg,43965,2020-11-12_13h19.53.509,lingCatScenes,2020.1.3,MacIntel,60,,,,,,,,,,,,,,,,,,,,,,,,,,,,,,,,,,,,
Image_List_5,,,,,space,3.205,space,1.89,0,2,2,5,1,right.jpg,right_path.jpg,43965,2020-11-12_13h19.53.509,lingCatScenes,2020.1.3,MacIntel,60,,,,,,,,,,,,,,,,,,,,,,,,,,,,,,,,,,,,
Image_List_5,,,,,space,6.394,space,2.835,0,3,3,2,1,ahead_right.jpg,ahead_right_path.jpg,43965,2020-11-12_13h19.53.509,lingCatScenes,2020.1.3,MacIntel,60,,,,,,,,,,,,,,,,,,,,,,,,,,,,,,,,,,,,
Image_List_5,,,,,space,20.939,space,6.683,0,4,4,6,1,right_left.jpg,right_left_path.jpg,43965,2020-11-12_13h19.53.509,lingCatScenes,2020.1.3,MacIntel,60,,,,,,,,,,,,,,,,,,,,,,,,,,,,,,,,,,,,
Image_List_5,,,,,space,11.557,space,10.252,0,5,5,1,1,ahead_left.jpg,ahead_left_path.jpg,43965,2020-11-12_13h19.53.509,lingCatScenes,2020.1.3,MacIntel,60,,,,,,,,,,,,,,,,,,,,,,,,,,,,,,,,,,,,
Image_List_5,,,,,space,3.447,space,1.596,0,6,6,0,1,ahead.jpg,ahead_path.jpg,43965,2020-11-12_13h19.53.509,lingCatScenes,2020.1.3,MacIntel,60,,,,,,,,,,,,,,,,,,,,,,,,,,,,,,,,,,,,
Image_List_5,,,,,,,,,,,,,,,,43965,2020-11-12_13h19.53.509,lingCatScenes,2020.1.3,MacIntel,60,"[1440,900]",space,18.868,"[""ahead_box""]",space,2.858,0,0,0,0,1,ahead_2.jpg,ahead_2_path.jpg,,,,,,,,,,,,,,,,,,,,,,,
Image_List_5,,,,,,,,,,,,,,,,43965,2020-11-12_13h19.53.509,lingCatScenes,2020.1.3,MacIntel,60,"[1440,900]",space,8.334,"[""ahead_box""]",space,9.445,0,1,1,1,1,ahead_left_2.jpg,ahead_left_2_path.jpg,,,,,,,,,,,,,,,,,,,,,,,
Image_List_5,,,,,,,,,,,,,,,,43965,2020-11-12_13h19.53.509,lingCatScenes,2020.1.3,MacIntel,60,"[1440,900]",space,7.393,"[""ahead_box"",""right_box""]",space,1.832,0,2,2,2,1,ahead_right_2.jpg,ahead_right_2_path.jpg,,,,,,,,,,,,,,,,,,,,,,,
Image_List_5,,,,,,,,,,,,,,,,43965,2020-11-12_13h19.53.509,lingCatScenes,2020.1.3,MacIntel,60,"[1440,900]",space,8.125,"[""slight_right_box""]",space,8.297,0,3,3,5,1,right_2.jpg,right_2_path.jpg,,,,,,,,,,,,,,,,,,,,,,,
Image_List_5,,,,,,,,,,,,,,,,43965,2020-11-12_13h19.53.509,lingCatScenes,2020.1.3,MacIntel,60,"[1440,900]",space,18.712,"[""ahead_box"",""sharp_left_box"",""right_box""]",space,13.951,0,4,4,3,1,ahead_right_left_2.jpg,ahead_right_left_2_path.jpg,,,,,,,,,,,,,,,,,,,,,,,
Image_List_5,,,,,,,,,,,,,,,,43965,2020-11-12_13h19.53.509,lingCatScenes,2020.1.3,MacIntel,60,"[1440,900]",space,10.518,"[""left_box""]",space,5.157,0,5,5,4,1,left_2.jpg,left_2_path.jpg,,,,,,,,,,,,,,,,,,,,,,,
Image_List_5,,,,,,,,,,,,,,,,43965,2020-11-12_13h19.53.509,lingCatScenes,2020.1.3,MacIntel,60,"[1440,900]",space,4.494,"[""slight_left_box"",""slight_right_box""]",space,10.394,0,6,6,6,1,right_left_2.jpg,right_left_2_path.jpg,,,,,,,,,,,,,,,,,,,,,,,
Image_List_5,,,,,,,,,,,,,,,,43965,2020-11-12_13h19.53.509,lingCatScenes,2020.1.3,MacIntel,60,"[1440,900]",,,"[""trial_right_box"",""trial_left_box""]",,,,,,,,,,space,6.357,classroom1.jpg,space,16.961,"[0.4066666666666667,-0.41555555555555557]","[-0.31777777777777777,-0.27666666666666667]","[1,1]","[0,0]","[0,0]","[12.66900000000004,16.02600000000001]","[""trial_right_box"",""trial_left_box""]",0,0,0,38,1,dining_car2.jpg,elevatorOutside4.jpg,dock1.jpg,driveway8.jpg,,
Image_List_5,,,,,,,,,,,,,,,,43965,2020-11-12_13h19.53.509,lingCatScenes,2020.1.3,MacIntel,60,"[1440,900]",,,"[""trial_ahead_box""]",,,,,,,,,,,,dock4.jpg,space,32.89,[0.013333333333333334],[-0.31444444444444447],[1],[0],[0],[26.62099999999998],"[""trial_ahead_box""]",0,1,1,45,1,fittingroom2.jpg,frontFoyer7.jpg,factory1.jpg,forestpath4.jpg,,
Image_List_5,,,,,,,,,,,,,,,,43965,2020-11-12_13h19.53.509,lingCatScenes,2020.1.3,MacIntel,60,"[1440,900]",,,"[""trial_ahead_box""]",,,,,,,,,,,,amusement3.jpg,space,8.508,[0.023333333333333334],[-0.2911111111111111],[1],[0],[0],[6.212999999999965],"[""trial_ahead_box""]",0,2,2,5,1,artStudio3.jpg,bambooforest.jpg,auto_showroom4.jpg,attic4.jpg,,
Image_List_5,,,,,,,,,,,,,,,,43965,2020-11-12_13h19.53.509,lingCatScenes,2020.1.3,MacIntel,60,"[1440,900]",,,"[""trial_sharp_right_box""]",,,,,,,,,,,,gasstation2.jpg,space,15.6,"[0.5777777777777777,0.6011111111111112]","[-0.3288888888888889,-0.2866666666666667]","[1,1]","[0,0]","[0,0]","[10.875,11.942000000000007]","[""trial_sharp_right_box""]",0,3,3,56,1,grocerystore5.jpg,hut3.jpg,golfcourse10.jpg,hut1.jpg,,
Image_List_5,,,,,,,,,,,,,,,,43965,2020-11-12_13h19.53.509,lingCatScenes,2020.1.3,MacIntel,60,"[1440,900]",,,"[""trial_ahead_box"",""trial_slight_right_box""]",,,,,,,,,,,,homeoffice8.jpg,space,15.037,"[0.011111111111111112,0.22,0.22555555555555556,0.21222222222222223]","[-0.3244444444444444,-0.33111111111111113,-0.2877777777777778,-0.2966666666666667]","[1,1,1,1]","[0,0,0,0]","[0,0,0,0]","[8.711000000000013,12.184999999999945,13.117999999999938,13.851999999999975]","[""trial_ahead_box"",""trial_slight_right_box""]",0,4,4,65,1,igloo5.jpg,newsstand7.jpg,laundromat2.jpeg,labClass7.jpg,,
Image_List_5,,,,,,,,,,,,,,,,43965,2020-11-12_13h19.53.509,lingCatScenes,2020.1.3,MacIntel,60,"[1440,900]",,,"[""trial_right_box""]",,,,,,,,,,,,bar8.jpg,space,9.132,"[0.4288888888888889,0.41333333333333333]","[-0.3188888888888889,-0.30777777777777776]","[1,1]","[0,0]","[0,0]","[5.587999999999965,6.637000000000057]","[""trial_right_box""]",0,5,5,15,1,bambooforest4.jpg,cafeteria5.jpg,bleachers8.jpg,cabinIndoors.jpg,,
Image_List_5,,,,,,,,,,,,,,,,43965,2020-11-12_13h19.53.509,lingCatScenes,2020.1.3,MacIntel,60,"[1440,900]",,,"[""trial_ahead_box""]",,,,,,,,,,,,hallway.jpg,space,4.558,"[-0.0033333333333333335,0.0077777777777777776]","[-0.34,-0.30333333333333334]","[1,1]","[0,0]","[0,0]","[2.2959999999999354,3.355000000000018]","[""trial_ahead_box""]",0,6,6,60,1,hometheater2.jpg,lightingstore3.jpg,homegarage.jpg,kindergarten_classroom6.jpg,,
Image_List_5,,,,,,,,,,,,,,,,43965,2020-11-12_13h19.53.509,lingCatScenes,2020.1.3,MacIntel,60,"[1440,900]",,,"[""trial_ahead_box"",""trial_sharp_right_box""]",,,,,,,,,,,,postoffice4.jpg,space,26.337,"[0.0077777777777777776,0.21444444444444444,0.21444444444444444,0.6244444444444445]","[-0.30333333333333334,-0.30666666666666664,-0.30666666666666664,-0.32]","[1,1,1,1]","[0,0,0,0]","[0,0,0,0]","[2.8799999999999955,17.80099999999993,23.114999999999895,24.298000000000002]","[""trial_ahead_box"",""trial_slight_right_box"",""trial_slight_right_box"",""trial_sharp_right_box""]",0,7,7,82,1,publicrestroom2.jpg,sandDunes_desert_outdoor9.jpg,promenadeDeck3.jpg,readingroom4.jpg,,
Image_List_5,,,,,,,,,,,,,,,,43965,2020-11-12_13h19.53.509,lingCatScenes,2020.1.3,MacIntel,60,"[1440,900]",,,"[""trial_ahead_box""]",,,,,,,,,,,,citystreet9.jpg,space,16.753,[0.005555555555555556],[-0.3233333333333333],[1],[0],[0],[2.520999999999958],"[""trial_ahead_box""]",0,8,8,37,1,dining_car.jpg,driveway4.jpg,dinosaur4.jpg,driveway7.jpg,,
Image_List_5,,,,,,,,,,,,,,,,43965,2020-11-12_13h19.53.509,lingCatScenes,2020.1.3,MacIntel,60,"[1440,900]",,,"[""trial_ahead_box"",""trial_sharp_left_box"",""trial_sharp_right_box""]",,,,,,,,,,,,tenniscourt.jpg,space,11.874,"[-0.012222222222222223,-0.6044444444444445,0.5855555555555556]","[-0.31,-0.29777777777777775,-0.2911111111111111]","[1,1,1]","[0,0,0]","[0,0,0]","[7.986999999999966,9.570999999999913,10.709999999999923]","[""trial_ahead_box"",""trial_sharp_left_box"",""trial_sharp_right_box""]",0,9,9,93,1,tollbooth8.jpg,volleyballcourt4.jpg,staircase4.jpg,warehouseoutside2.jpg,,
Image_List_5,,,,,,,,,,,,,,,,43965,2020-11-12_13h19.53.509,lingCatScenes,2020.1.3,MacIntel,60,"[1440,900]",,,"[""trial_slight_left_box"",""trial_slight_right_box""]",,,,,,,,,,,,observatory1.jpg,space,35.573,"[-0.3933333333333333,0.4022222222222222,-0.37777777777777777,0.4122222222222222,0.6122222222222222,-0.19333333333333333,0.21555555555555556]","[-0.2877777777777778,-0.31555555555555553,-0.31333333333333335,-0.3233333333333333,-0.33555555555555555,-0.2966666666666667,-0.3111111111111111]","[1,1,1,1,1,1,1]","[0,0,0,0,0,0,0]","[0,0,0,0,0,0,0]","[8.641000000000076,9.657000000000039,14.230999999999995,15.230999999999995,16.347000000000094,32.103000000000065,33.14300000000003]","[""trial_left_box"",""trial_right_box"",""trial_left_box"",""trial_right_box"",""trial_slight_left_box"",""trial_slight_right_box""]",0,10,10,78,1,parkinglot3.jpg,poolhall1.jpg,pier5.jpg,pavilion3.jpg,,
Image_List_5,,,,,,,,,,,,,,,,43965,2020-11-12_13h19.53.509,lingCatScenes,2020.1.3,MacIntel,60,"[1440,900]",,,"[""trial_ahead_box""]",,,,,,,,,,,,yogastudio1.jpg,space,53.257,"[0.0033333333333333335,-0.39666666666666667,-0.4111111111111111,-0.20666666666666667]","[-0.31666666666666665,-0.31,-0.31444444444444447,-0.3288888888888889]","[1,1,1,1]","[0,0,0,0]","[0,0,0,0]","[3.2889999999999873,44.83000000000004,50.65300000000002,51.47000000000003]","[""trial_ahead_box"",""trial_left_box"",""trial_left_box""]",0,11,11,99,1,wineVineyard9.jpg,yogastudio4.jpg,windmill2.jpg,wrestlingring7.jpg,,
Image_List_5,,,,,,,,,,,,,,,,43965,2020-11-12_13h19.53.509,lingCatScenes,2020.1.3,MacIntel,60,"[1440,900]",,,"[""trial_ahead_box""]",,,,,,,,,,,,apartmentBuilding3.jpg,space,35.621,"[0.022222222222222223,0.41,-0.3877777777777778,0.41333333333333333,-0.36333333333333334,-0.38222222222222224,0.39222222222222225]","[-0.3088888888888889,-0.32555555555555554,-0.30666666666666664,-0.2911111111111111,-0.31777777777777777,-0.31333333333333335,-0.3088888888888889]","[1,1,1,1,1,1,1]","[0,0,0,0,0,0,0]","[0,0,0,0,0,0,0]","[3.644999999999982,5.06899999999996,6.15300000000002,6.90300000000002,18.348999999999933,18.884000000000015,20.142000000000053]","[""trial_ahead_box"",""trial_left_box"",""trial_right_box"",""trial_left_box"",""trial_right_box""]",0,12,12,6,1,ATM1.jpg,banquetHall2.jpg,auto_showroom5.jpg,baggageClaim1.jpg,,
Image_List_5,,,,,,,,,,,,,,,,43965,2020-11-12_13h19.53.509,lingCatScenes,2020.1.3,MacIntel,60,"[1440,900]",,,"[""trial_left_box"",""trial_slight_right_box""]",,,,,,,,,,,,bridalboutique3.jpg,space,45.958,"[0.21333333333333335,0.0022222222222222222,0.18555555555555556,-0.40555555555555556,-0.3566666666666667,-0.4077777777777778,0.024444444444444446,0.1922222222222222]","[-0.3088888888888889,-0.2911111111111111,-0.31666666666666665,-0.33555555555555555,-0.30666666666666664,-0.3011111111111111,-0.31666666666666665,-0.3011111111111111]","[1,1,1,1,1,1,1,1]","[0,0,0,0,0,0,0,0]","[0,0,0,0,0,0,0,0]","[5.986999999999966,12.245000000000005,13.326999999999884,16.150999999999954,40.41999999999996,41.03699999999992,43.77699999999993,44.527999999999906]","[""trial_slight_right_box"",""trial_ahead_box"",""trial_slight_right_box"",""trial_left_box"",""trial_ahead_box"",""trial_slight_right_box""]",0,13,13,29,1,cornfield2.jpg,deck2.jpg,cliff2.jpg,constructionSite4.jpg,,
Image_List_5,,,,,,,,,,,,,,,,43965,2020-11-12_13h19.53.509,lingCatScenes,2020.1.3,MacIntel,60,"[1440,900]",,,"[""trial_ahead_box""]",,,,,,,,,,,,airportTerminal6.jpg,space,3.163,[0.0044444444444444444],[-0.29444444444444445],[1],[0],[0],[1.9780000000000655],"[""trial_ahead_box""]",0,14,14,2,1,alley1.jpg,arcade1.jpg,applestore6.jpg,apartmentBuilding4.jpg,,
Image_List_5,,,,,,,,,,,,,,,,43965,2020-11-12_13h19.53.509,lingCatScenes,2020.1.3,MacIntel,60,"[1440,900]",,,"[""trial_slight_left_box"",""trial_right_box""]",,,,,,,,,,,,farm2.jpg,space,8.148,"[-0.2111111111111111,0.4088888888888889]","[-0.32,-0.3188888888888889]","[1,1]","[0,0]","[0,0]","[4.11099999999999,5.4529999999999745]","[""trial_slight_left_box"",""trial_right_box""]",0,15,15,49,1,frontDoor3.jpg,greenhouse5.jpg,flowershop3.jpg,greenhouse.jpg,,
Image_List_5,,,,,,,,,,,,,,,,43965,2020-11-12_13h19.53.509,lingCatScenes,2020.1.3,MacIntel,60,"[1440,900]",,,[],,,,,,,,,,,,botanicalGarden4.jpg,space,19.454,"[0.5977777777777777,0.5977777777777777,0.5966666666666667,0.6044444444444445]","[-0.31222222222222223,-0.31222222222222223,-0.31333333333333335,-0.32]","[1,1,1,1]","[0,0,0,0]","[0,0,0,0]","[11.585000000000036,13.752000000000066,16.252000000000066,18.14300000000003]","[""trial_sharp_right_box"",""trial_sharp_right_box"",""trial_sharp_right_box"",""trial_sharp_right_box""]",0,16,16,25,1,campsite7.jpg,conference3.jpg,church3.jpg,checkoutcounter2.jpg,,
Image_List_5,,,,,,,,,,,,,,,,43965,2020-11-12_13h19.53.509,lingCatScenes,2020.1.3,MacIntel,60,"[1440,900]",,,"[""trial_slight_left_box""]",,,,,,,,,,,,grocerystore3.jpg,space,17.91,"[-0.21,-0.21]","[-0.3277777777777778,-0.2788888888888889]","[1,1]","[0,0]","[0,0]","[3.733000000000061,5.583000000000084]","[""trial_slight_left_box""]",0,17,17,59,1,homegarden7.jpg,library_aisle8.jpg,highway4.jpg,kindergarten_classroom5.jpg,,
Image_List_5,,,,,,,,,,,,,,,,43965,2020-11-12_13h19.53.509,lingCatScenes,2020.1.3,MacIntel,60,"[1440,900]",,,"[""trial_slight_left_box""]",,,,,,,,,,,,fabricstore2.jpg,space,15.255,[-0.20777777777777778],[-0.3211111111111111],[1],[0],[0],[13.94500000000005],"[""trial_slight_left_box""]",0,18,18,48,1,frontDoor2.jpg,golfcourse6.jpg,fittingroom5.jpg,golfcourse7.jpg,,
Image_List_5,,,,,,,,,,,,,,,,43965,2020-11-12_13h19.53.509,lingCatScenes,2020.1.3,MacIntel,60,"[1440,900]",,,"[""trial_slight_right_box"",""trial_left_box""]",,,,,,,,,,,,applestore2.jpg,space,15.148,"[0.19333333333333333,-0.4288888888888889,-0.3888888888888889]","[-0.29555555555555557,-0.33444444444444443,-0.31]","[1,1,1]","[0,0,0]","[0,0,0]","[9.075999999999908,12.241999999999962,12.892999999999915]","[""trial_slight_right_box"",""trial_left_box""]",0,19,19,7,1,attic2.jpg,banquetHall4.jpg,backstage1.jpg,baggageClaim3.jpg,,
Image_List_5,,,,,,,,,,,,,,,,43965,2020-11-12_13h19.53.509,lingCatScenes,2020.1.3,MacIntel,60,"[1440,900]",,,"[""trial_slight_left_box""]",,,,,,,,,,,,barbershop2.jpg,space,16.685,"[-0.19111111111111112,-0.18666666666666668]","[-0.3322222222222222,-0.30444444444444446]","[1,1]","[0,0]","[0,0]","[4.752000000000066,5.901000000000067]","[""trial_slight_left_box""]",0,20,20,16,1,basement.jpg,cafeteria6.jpg,breakroom2.jpg,campusquad4.jpg,,
Image_List_5,,,,,,,,,,,,,,,,43965,2020-11-12_13h19.53.509,lingCatScenes,2020.1.3,MacIntel,60,"[1440,900]",,,"[""trial_slight_right_box""]",,,,,,,,,,,,warehouseoutside3.jpg,space,5.37,[0.19333333333333333],[-0.30666666666666664],[1],[0],[0],[2.8700000000000045],"[""trial_slight_right_box""]",0,21,21,97,1,warehouseoutside4.jpg,wineVineyard2.jpg,waitingroom4.jpg,winebarrel3.jpg,,
Image_List_5,,,,,,,,,,,,,,,,43965,2020-11-12_13h19.53.509,lingCatScenes,2020.1.3,MacIntel,60,"[1440,900]",,,"[""trial_ahead_box"",""trial_right_box"",""trial_left_box""]",,,,,,,,,,,,sidewalk3.jpg,space,15.277,"[0.0077777777777777776,0.3788888888888889,0.38555555555555554,-0.4211111111111111]","[-0.30666666666666664,-0.3277777777777778,-0.30333333333333334,-0.31222222222222223]","[1,1,1,1]","[0,0,0,0]","[0,0,0,0]","[2.1019999999999754,8.658999999999992,9.309999999999945,14.549999999999955]","[""trial_ahead_box"",""trial_right_box"",""trial_left_box""]",0,22,22,91,1,shoestore2.jpg,trainStation5.jpg,skatepark5.jpg,ticket_counter6.jpg,,
Image_List_5,,,,,,,,,,,,,,,,43965,2020-11-12_13h19.53.509,lingCatScenes,2020.1.3,MacIntel,60,"[1440,900]",,,"[""trial_slight_right_box""]",,,,,,,,,,,,dock2.jpg,space,18.992,[0.21444444444444444],[-0.3188888888888889],[1],[0],[0],[10.208999999999946],"[""trial_slight_right_box""]",0,23,23,44,1,firestation2.jpg,frontFoyer4.jpg,elevatorOutside1.jpg,foodcourt6.jpg,,
Image_List_5,,,,,,,,,,,,,,,,43965,2020-11-12_13h19.53.509,lingCatScenes,2020.1.3,MacIntel,60,"[1440,900]",,,"[""trial_slight_right_box"",""trial_left_box""]",,,,,,,,,,,,warehouse1.jpg,space,8.283,"[0.22777777777777777,0.19666666666666666,-0.4]","[-0.30444444444444446,-0.3111111111111111,-0.2966666666666667]","[1,1,1]","[0,0,0]","[0,0,0]","[3.310000000000059,4.37600000000009,5.477000000000089]","[""trial_slight_right_box"",""trial_left_box""]",0,24,24,96,1,warehouse4.jpg,warehouseoutside1.jpg,tenniscourt3.jpg,windmill1.jpg,,
Image_List_5,,,,,,,,,,,,,,,,43965,2020-11-12_13h19.53.509,lingCatScenes,2020.1.3,MacIntel,60,"[1440,900]",,,"[""trial_slight_right_box""]",,,,,,,,,,,,icecream2.jpg,space,4.204,[0.19777777777777777],[-0.3],[1],[0],[0],[2.01299999999992],"[""trial_slight_right_box""]",0,25,25,69,1,liquorstore8.jpg,parkinglot2.jpg,livingroom.jpg,metroInside1.jpg,,
Image_List_5,,,,,,,,,,,,,,,,43965,2020-11-12_13h19.53.509,lingCatScenes,2020.1.3,MacIntel,60,"[1440,900]",,,"[""trial_ahead_box""]",,,,,,,,,,,,ballroom3.jpg,space,2.832,[-0.006666666666666667],[-0.3088888888888889],[1],[0],[0],[1.9300000000000637],"[""trial_ahead_box""]",0,26,26,14,1,ballroom1.jpg,breakroom5.jpg,bistrooutdoor5.jpg,botanicalGarden5.jpg,,
Image_List_5,,,,,,,,,,,,,,,,43965,2020-11-12_13h19.53.509,lingCatScenes,2020.1.3,MacIntel,60,"[1440,900]",,,"[""trial_ahead_box""]",,,,,,,,,,,,carmechanic2.jpg,space,3.204,[-0.0022222222222222222],[-0.30777777777777776],[1],[0],[0],[2.3869999999999436],"[""trial_ahead_box""]",0,27,27,35,1,deck5.jpg,dock3.jpg,cubicle7.jpg,dining_car6.jpg,,
Image_List_5,,,,,,,,,,,,,,,,43965,2020-11-12_13h19.53.509,lingCatScenes,2020.1.3,MacIntel,60,"[1440,900]",,,"[""trial_sharp_left_box"",""trial_slight_right_box"",""trial_sharp_right_box""]",,,,,,,,,,,,cliff5.jpg,space,22.412,"[-0.6255555555555555,-0.5966666666666667,0.18222222222222223,0.4211111111111111,0.39,0.6077777777777778]","[-0.2811111111111111,-0.2866666666666667,-0.2966666666666667,-0.3055555555555556,-0.29777777777777775,-0.2833333333333333]","[1,1,1,1,1,1]","[0,0,0,0,0,0]","[0,0,0,0,0,0]","[5.5049999999999955,6.555999999999926,7.7549999999999955,10.311999999999898,21.060999999999922,21.843999999999937]","[""trial_sharp_left_box"",""trial_slight_right_box"",""trial_right_box"",""trial_right_box"",""trial_sharp_right_box""]",0,28,28,39,1,driveway6.jpg,eyeglassstore9.jpg,drycleaners6.jpg,drymountains5.jpg,,
Image_List_5,,,,,,,,,,,,,,,,43965,2020-11-12_13h19.53.509,lingCatScenes,2020.1.3,MacIntel,60,"[1440,900]",,,"[""trial_slight_left_box"",""trial_slight_right_box""]",,,,,,,,,,,,rooftop3.jpg,space,9.96,"[-0.20222222222222222,0.19444444444444445]","[-0.31333333333333335,-0.30333333333333334]","[1,1]","[0,0]","[0,0]","[4.155999999999949,5.4220000000000255]","[""trial_slight_left_box"",""trial_slight_right_box""]",0,29,29,85,1,recordingstudio4.jpg,sidewalk5.jpg,ruralroad2.jpg,sandDunes_desert_outdoor3.jpg,,
Image_List_5,,,,,,,,,,,,,,,,43965,2020-11-12_13h19.53.509,lingCatScenes,2020.1.3,MacIntel,60,"[1440,900]",,,"[""trial_ahead_box"",""trial_slight_right_box""]",,,,,,,,,,,,fireplace4.jpg,space,9.722,"[-0.034444444444444444,-0.027777777777777776,-0.013333333333333334,0.20444444444444446]","[-0.31333333333333335,-0.3055555555555556,-0.3111111111111111,-0.3]","[1,1,1,1]","[0,0,0,0]","[0,0,0,0]","[5.369999999999891,6.386999999999944,7.610999999999876,8.308999999999742]","[""trial_ahead_box"",""trial_slight_right_box""]",0,30,30,50,1,frontLawn4.jpg,grocerystore6.jpg,forestpath6.jpg,hallway2.jpg,,
Image_List_5,,,,,,,,,,,,,,,,43965,2020-11-12_13h19.53.509,lingCatScenes,2020.1.3,MacIntel,60,"[1440,900]",,,"[""trial_ahead_box"",""trial_slight_right_box""]",,,,,,,,,,,,rooftop4.jpg,space,10.891,"[0.016666666666666666,0.22111111111111112]","[-0.3,-0.3022222222222222]","[1,1]","[0,0]","[0,0]","[3.619999999999891,6.336000000000013]","[""trial_ahead_box"",""trial_slight_right_box""]",0,31,31,86,1,restaurant14.jpg,stripmall.jpg,ruralroad3.jpg,sandDunes_desert_outdoor8.jpg,,
Image_List_5,,,,,,,,,,,,,,,,43965,2020-11-12_13h19.53.509,lingCatScenes,2020.1.3,MacIntel,60,"[1440,900]",,,"[""trial_slight_left_box"",""trial_right_box""]",,,,,,,,,,,,hayfield7.jpg,space,11.047,"[-0.20666666666666667,0.3933333333333333]","[-0.31333333333333335,-0.31222222222222223]","[1,1]","[0,0]","[0,0]","[3.6200000000001182,6.7280000000000655]","[""trial_slight_left_box"",""trial_right_box""]",0,32,32,62,1,hotellobby2.jpg,minigolf.jpg,horsebarn8.jpg,lab3.jpg,,
Image_List_5,,,,,,,,,,,,,,,,43965,2020-11-12_13h19.53.509,lingCatScenes,2020.1.3,MacIntel,60,"[1440,900]",,,"[""trial_slight_right_box""]",,,,,,,,,,,,highway2.jpg,space,19.888,"[0.2222222222222222,0.21888888888888888]","[-0.3322222222222222,-0.29888888888888887]","[1,1]","[0,0]","[0,0]","[15.468000000000075,16.451999999999998]","[""trial_slight_right_box""]",0,33,33,63,1,hut2.jpg,museum6.jpg,hotelRoom2.jpg,lab4.jpg,,
Image_List_5,,,,,,,,,,,,,,,,43965,2020-11-12_13h19.53.509,lingCatScenes,2020.1.3,MacIntel,60,"[1440,900]",,,"[""trial_slight_right_box""]",,,,,,,,,,,,brewery2.jpg,space,3.923,[0.21888888888888888],[-0.29888888888888887],[1],[0],[0],[2.1769999999999072],"[""trial_slight_right_box""]",0,34,34,27,1,castle3.jpg,courtroom3.jpg,churchInside4.jpg,closet.jpg,,
Image_List_5,,,,,,,,,,,,,,,,43965,2020-11-12_13h19.53.509,lingCatScenes,2020.1.3,MacIntel,60,"[1440,900]",,,"[""trial_right_box"",""trial_ahead_box""]",,,,,,,,,,,,backyard6.jpg,space,17.919,"[0.4033333333333333,0.023333333333333334]","[-0.3022222222222222,-0.3111111111111111]","[1,1]","[0,0]","[0,0]","[12.182999999999993,15.92100000000005]","[""trial_right_box"",""trial_ahead_box""]",0,35,35,13,1,balconyIN2.jpg,bowlingalley3.jpg,beach2.jpg,boardwalk4.jpg,,
Image_List_5,,,,,,,,,,,,,,,,43965,2020-11-12_13h19.53.509,lingCatScenes,2020.1.3,MacIntel,60,"[1440,900]",,,"[""trial_right_box""]",,,,,,,,,,,,desertvegetation2.jpg,space,4.563,"[0.4266666666666667,0.4088888888888889]","[-0.3233333333333333,-0.30666666666666664]","[1,1]","[0,0]","[0,0]","[2.543999999999869,3.268000000000029]","[""trial_right_box""]",0,36,36,42,1,exerciseequipment3.jpg,firestation3.jpg,drymountains6.jpg,farm4.jpg,,
Image_List_5,,,,,,,,,,,,,,,,43965,2020-11-12_13h19.53.509,lingCatScenes,2020.1.3,MacIntel,60,"[1440,900]",,,"[""trial_right_box""]",,,,,,,,,,,,cabinIndoors5.jpg,space,30.982,[0.41333333333333333],[-0.3111111111111111],[1],[0],[0],[28.154999999999973],"[""trial_right_box""]",0,37,37,33,1,deck1.jpg,diningroom1.jpg,courthouse2.jpg,diner10.jpg,,
Image_List_5,,,,,,,,,,,,,,,,43965,2020-11-12_13h19.53.509,lingCatScenes,2020.1.3,MacIntel,60,"[1440,900]",,,"[""trial_slight_left_box""]",,,,,,,,,,,,winebarrel2.jpg,space,3.918,[-0.20222222222222222],[-0.3055555555555556],[1],[0],[0],[2.3639999999998054],"[""trial_slight_left_box""]",0,38,38,98,1,weightroom5.jpg,wineVineyard8.jpg,warehouse3.jpg,winebarrel4.jpg,,
Image_List_5,,,,,,,,,,,,,,,,43965,2020-11-12_13h19.53.509,lingCatScenes,2020.1.3,MacIntel,60,"[1440,900]",,,"[""trial_left_box"",""trial_right_box"",""trial_ahead_box""]",,,,,,,,,,,,gazebo.jpg,space,18.102,"[-0.4077777777777778,0.4266666666666667,0.39444444444444443,0.01888888888888889]","[-0.3088888888888889,-0.30777777777777776,-0.31333333333333335,-0.3211111111111111]","[1,1,1,1]","[0,0,0,0]","[0,0,0,0]","[4.953000000000202,6.320000000000164,7.0210000000001855,16.101000000000113]","[""trial_left_box"",""trial_right_box"",""trial_ahead_box""]",0,39,39,57,1,hayfield5.jpg,jail1.jpg,hallway4.jpg,hut5.jpg,,
Image_List_5,,,,,,,,,,,,,,,,43965,2020-11-12_13h19.53.509,lingCatScenes,2020.1.3,MacIntel,60,"[1440,900]",,,"[""trial_ahead_box""]",,,,,,,,,,,,RVinside2.jpg,space,6.058,[-0.0022222222222222222],[-0.31444444444444447],[1],[0],[0],[2.854000000000042],"[""trial_ahead_box""]",0,40,40,87,1,restaurantkitchen2.jpg,theater2.jpg,savanna.jpg,sculpturegarden2.jpg,,
Image_List_5,,,,,,,,,,,,,,,,43965,2020-11-12_13h19.53.509,lingCatScenes,2020.1.3,MacIntel,60,"[1440,900]",,,"[""trial_left_box"",""trial_right_box""]",,,,,,,,,,,,diningroom3.jpg,space,10.793,"[-0.39666666666666667,0.39]","[-0.30666666666666664,-0.31666666666666665]","[1,1]","[0,0]","[0,0]","[5.451999999999998,6.537000000000035]","[""trial_left_box"",""trial_right_box""]",0,41,41,43,1,exerciseequipment5.jpg,forestpath10.jpg,dugout2.jpg,foodcourt.jpg,,
Image_List_5,,,,,,,,,,,,,,,,43965,2020-11-12_13h19.53.509,lingCatScenes,2020.1.3,MacIntel,60,"[1440,900]",,,"[""trial_slight_left_box""]",,,,,,,,,,,,arcade2.jpg,space,4.567,[-0.1922222222222222],[-0.31777777777777777],[1],[0],[0],[1.6310000000000855],"[""trial_slight_left_box""]",0,42,42,9,1,auto_showroom3.jpg,bar2.jpg,ballroom2.jpg,basement5.jpg,,
Image_List_5,,,,,,,,,,,,,,,,43965,2020-11-12_13h19.53.509,lingCatScenes,2020.1.3,MacIntel,60,"[1440,900]",,,"[""trial_left_box"",""trial_right_box""]",,,,,,,,,,,,fountain.jpg,space,25.21,"[-0.5822222222222222,-0.41888888888888887,0.43,0.4077777777777778,-0.5888888888888889]","[-0.2966666666666667,-0.31444444444444447,-0.31,-0.30333333333333334,-0.2966666666666667]","[1,1,1,1,1]","[0,0,0,0,0]","[0,0,0,0,0]","[2.461999999999989,4.085000000000036,5.751999999999953,7.086000000000013,19.072999999999865]","[""trial_sharp_left_box"",""trial_left_box"",""trial_right_box"",""trial_sharp_left_box""]",0,43,43,53,1,gazebo3.jpg,homeoffice.jpg,frontLawn3.jpg,homegarage3.jpg,,
Image_List_5,,,,,,,,,,,,,,,,43965,2020-11-12_13h19.53.509,lingCatScenes,2020.1.3,MacIntel,60,"[1440,900]",,,"[""trial_ahead_box""]",,,,,,,,,,,,library_aisle9.jpg,space,3.681,"[-0.021111111111111112,-0.0044444444444444444]","[-0.32555555555555554,-0.30777777777777776]","[1,1]","[0,0]","[0,0]","[1.7970000000000255,2.8460000000000036]","[""trial_ahead_box""]",0,44,44,73,1,musicStore3.jpg,photographer_studio2.jpg,nursery.jpg,nursery4.jpg,,
Image_List_5,,,,,,,,,,,,,,,,43965,2020-11-12_13h19.53.509,lingCatScenes,2020.1.3,MacIntel,60,"[1440,900]",,,"[""trial_left_box""]",,,,,,,,,,,,hospitalroom2.jpg,space,10.834,[-0.41444444444444445],[-0.3011111111111111],[1],[0],[0],[6.559999999999945],"[""trial_left_box""]",0,45,45,67,1,library_aisle3.jpg,park7.jpg,laundromat4.jpg,liquorstore2.jpg,,
Image_List_5,,,,,,,,,,,,,,,,43965,2020-11-12_13h19.53.509,lingCatScenes,2020.1.3,MacIntel,60,"[1440,900]",,,"[""trial_right_box"",""trial_left_box""]",,,,,,,,,,,,igloo.jpg,space,10.383,"[0.39111111111111113,-0.37222222222222223,-0.38555555555555554]","[-0.31222222222222223,-0.31555555555555553,-0.3055555555555556]","[1,1,1]","[0,0,0]","[0,0,0]","[7.789000000000215,9.244000000000142,9.912000000000035]","[""trial_right_box"",""trial_left_box""]",0,46,46,70,1,lockerroom4.jpg,pavilion.jpg,lockerroom3.jpg,minigolf8.jpg,,
Image_List_5,,,,,,,,,,,,,,,,43965,2020-11-12_13h19.53.509,lingCatScenes,2020.1.3,MacIntel,60,"[1440,900]",,,"[""trial_ahead_box"",""trial_sharp_right_box"",""trial_left_box"",""trial_sharp_left_box"",""trial_right_box""]",,,,,,,,,,,,soccerfield2.jpg,space,76.284,"[0,0.20666666666666667,0.4022222222222222,0.6033333333333334,0.6077777777777778,-0.4266666666666667,-0.41888888888888887,-0.59,0.3988888888888889,0.3988888888888889,0.2011111111111111]","[-0.3211111111111111,-0.29444444444444445,-0.32222222222222224,-0.3277777777777778,-0.3022222222222222,-0.30333333333333334,-0.31333333333333335,-0.2866666666666667,-0.3111111111111111,-0.3111111111111111,-0.3011111111111111]","[1,1,1,1,1,1,1,1,1,1,1]","[0,0,0,0,0,0,0,0,0,0,0]","[0,0,0,0,0,0,0,0,0,0,0]","[2.7799999999999727,4.055000000000291,8.003999999999905,8.92899999999986,10.128999999999905,11.82899999999995,13.676999999999907,20.759000000000015,69.34799999999996,71.798,72.36400000000003]","[""trial_ahead_box"",""trial_slight_right_box"",""trial_right_box"",""trial_sharp_right_box"",""trial_left_box"",""trial_sharp_left_box"",""trial_right_box"",""trial_right_box"",""trial_slight_right_box""]",0,47,47,92,1,staircase.jpg,volleyballcourt.jpg,skatepark7.jpg,tvstudio2.jpg,,
Image_List_5,,,,,,,,,,,,,,,,43965,2020-11-12_13h19.53.509,lingCatScenes,2020.1.3,MacIntel,60,"[1440,900]",,,"[""trial_right_box"",""trial_left_box""]",,,,,,,,,,,,observatory2.jpg,space,13.201,"[0.4077777777777778,-0.4066666666666667]","[-0.2877777777777778,-0.3233333333333333]","[1,1]","[0,0]","[0,0]","[4.535000000000082,10.79300000000012]","[""trial_right_box"",""trial_left_box""]",0,48,48,79,1,pasture.jpg,poolhall2.jpeg,playground9.jpg,pier2.jpg,,
Image_List_5,,,,,,,,,,,,,,,,43965,2020-11-12_13h19.53.509,lingCatScenes,2020.1.3,MacIntel,60,"[1440,900]",,,"[""trial_slight_left_box"",""trial_slight_right_box""]",,,,,,,,,,,,sculpturegarden3.jpg,space,15.033,"[-0.40555555555555556,0.4077777777777778,-0.4222222222222222,-0.21,0.2111111111111111,0.4033333333333333]","[-0.3111111111111111,-0.32222222222222224,-0.28,-0.3011111111111111,-0.30666666666666664,-0.2966666666666667]","[1,1,1,1,1,1]","[0,0,0,0,0,0]","[0,0,0,0,0,0]","[1.7980000000000018,3.5139999999998963,12.163000000000011,12.797000000000025,13.895999999999958,14.653999999999996]","[""trial_left_box"",""trial_right_box"",""trial_left_box"",""trial_slight_left_box"",""trial_slight_right_box"",""trial_right_box""]",0,49,49,89,1,ruralroad7.jpg,track5.jpg,ShowJumping7.jpg,staircase7.jpg,,
Image_List_5,,,,,,,,,,,,,,,,43965,2020-11-12_13h19.53.509,lingCatScenes,2020.1.3,MacIntel,60,"[1440,900]",,,"[""trial_slight_right_box"",""trial_left_box""]",,,,,,,,,,,,applestore4.jpg,space,7.216,"[0.22111111111111112,-0.3566666666666667,-0.4066666666666667]","[-0.31444444444444447,-0.31666666666666665,-0.2922222222222222]","[1,1,1]","[0,0,0]","[0,0,0]","[3.213999999999942,5.486999999999853,6.203999999999951]","[""trial_slight_right_box"",""trial_left_box""]",0,50,50,8,1,attic3.jpg,banquetHall6.jpg,balconyIN.jpg,bar.jpg,,
Image_List_5,,,,,,,,,,,,,,,,43965,2020-11-12_13h19.53.509,lingCatScenes,2020.1.3,MacIntel,60,"[1440,900]",,,"[""trial_ahead_box""]",,,,,,,,,,,,alley4.jpg,space,3.354,[0.01],[-0.31444444444444447],[1],[0],[0],[1.6949999999999363],"[""trial_ahead_box""]",0,51,51,4,1,artStudio1.jpg,baggageClaim2.jpg,auto_showroom1.jpg,appleorchard3.jpg,,
Image_List_5,,,,,,,,,,,,,,,,43965,2020-11-12_13h19.53.509,lingCatScenes,2020.1.3,MacIntel,60,"[1440,900]",,,"[""trial_ahead_box"",""trial_slight_right_box"",""trial_slight_left_box""]",,,,,,,,,,,,horsebarn9.jpg,space,10.955,"[0.01,0.18777777777777777,-0.1811111111111111]","[-0.31222222222222223,-0.30666666666666664,-0.29888888888888887]","[1,1,1]","[0,0,0]","[0,0,0]","[5.376999999999953,6.324999999999818,8.812999999999874]","[""trial_ahead_box"",""trial_slight_right_box"",""trial_slight_left_box""]",0,52,52,66,1,library_aisle10.jpg,office3.jpg,laundromat3.jpg,liquorstore.jpg,,
Image_List_5,,,,,,,,,,,,,,,,43965,2020-11-12_13h19.53.509,lingCatScenes,2020.1.3,MacIntel,60,"[1440,900]",,,"[""trial_right_box""]",,,,,,,,,,,,jewelrystore.jpg,space,18.679,[0.39222222222222225],[-0.3111111111111111],[1],[0],[0],[13.06899999999996],"[""trial_right_box""]",0,53,53,71,1,metroInside2.jpg,pavilion5.jpg,metroInside3.jpg,museum3.jpg,,
Image_List_5,,,,,,,,,,,,,,,,43965,2020-11-12_13h19.53.509,lingCatScenes,2020.1.3,MacIntel,60,"[1440,900]",,,"[""trial_sharp_left_box"",""trial_right_box""]",,,,,,,,,,,,tvstudio3.jpg,space,22.284,"[-0.5955555555555555,-0.5744444444444444,-0.5844444444444444,-0.38222222222222224,0.5944444444444444,-0.6066666666666667,-0.38555555555555554,0.43333333333333335,0.34444444444444444,0.4033333333333333,0.5855555555555556]","[-0.29,-0.30666666666666664,-0.30444444444444446,-0.32222222222222224,-0.31666666666666665,-0.30777777777777776,-0.31,-0.3055555555555556,-0.30444444444444446,-0.3055555555555556,-0.31222222222222223]","[1,1,1,1,1,1,1,1,1,1,1]","[0,0,0,0,0,0,0,0,0,0,0]","[0,0,0,0,0,0,0,0,0,0,0]","[3.229000000000042,7.569999999999936,8.236999999999853,12.610999999999876,14.261999999999944,16.812999999999874,17.894999999999982,18.962999999999965,19.519000000000005,20.135999999999967,20.836000000000013]","[""trial_sharp_left_box"",""trial_sharp_left_box"",""trial_left_box"",""trial_sharp_right_box"",""trial_sharp_left_box"",""trial_left_box"",""trial_right_box"",""trial_sharp_right_box""]",0,54,54,95,1,waitingroom2.jpg,warehouse2.jpg,stripmall6.jpg,weightroom4.jpg,,
Image_List_5,,,,,,,,,,,,,,,,43965,2020-11-12_13h19.53.509,lingCatScenes,2020.1.3,MacIntel,60,"[1440,900]",,,"[""trial_left_box""]",,,,,,,,,,,,basement6.jpg,space,8.571,[-0.41888888888888887],[-0.3244444444444444],[1],[0],[0],[7.1099999999999],"[""trial_left_box""]",0,55,55,18,1,bleachers5.jpg,casino1.jpg,brewery4.jpg,castle2.jpg,,
Image_List_5,,,,,,,,,,,,,,,,43965,2020-11-12_13h19.53.509,lingCatScenes,2020.1.3,MacIntel,60,"[1440,900]",,,"[""trial_ahead_box"",""trial_left_box""]",,,,,,,,,,,,backyard5.jpg,space,7.248,"[0.01,0.012222222222222223,-0.40555555555555556]","[-0.3277777777777778,-0.3111111111111111,-0.3211111111111111]","[1,1,1]","[0,0,0]","[0,0,0]","[2.395999999999958,4.002999999999929,5.235999999999876]","[""trial_ahead_box"",""trial_left_box""]",0,56,56,12,1,baggageClaim4.jpg,bedroom6.jpg,bambooforest5.jpg,bleachers7.jpg,,
Image_List_5,,,,,,,,,,,,,,,,43965,2020-11-12_13h19.53.509,lingCatScenes,2020.1.3,MacIntel,60,"[1440,900]",,,"[""trial_left_box"",""trial_right_box"",""trial_slight_left_box""]",,,,,,,,,,,,lockerroom.jpg,space,27.952,"[-0.37333333333333335,-0.39222222222222225,0.39,-0.1811111111111111]","[-0.30666666666666664,-0.3022222222222222,-0.30333333333333334,-0.3022222222222222]","[1,1,1,1]","[0,0,0,0]","[0,0,0,0]","[3.438000000000102,4.205999999999904,5.2719999999999345,12.038000000000011]","[""trial_left_box"",""trial_right_box"",""trial_slight_left_box""]",0,57,57,75,1,pantry5.jpg,playground6.jpg,operatingroom4.jpg,park.jpg,,
Image_List_5,,,,,,,,,,,,,,,,43965,2020-11-12_13h19.53.509,lingCatScenes,2020.1.3,MacIntel,60,"[1440,900]",,,"[""trial_slight_right_box""]",,,,,,,,,,,,mallindoor6.jpg,space,5.288,[0.20333333333333334],[-0.31333333333333335],[1],[0],[0],[2.196999999999889],"[""trial_slight_right_box""]",0,58,58,77,1,parkinggarage2.jpg,playroom6.jpg,pasture9.jpg,park8.jpg,,
Image_List_5,,,,,,,,,,,,,,,,43965,2020-11-12_13h19.53.509,lingCatScenes,2020.1.3,MacIntel,60,"[1440,900]",,,"[""trial_ahead_box"",""trial_left_box""]",,,,,,,,,,,,botanicalGarden7.jpg,space,40.497,"[-0.03333333333333333,-0.0077777777777777776,-0.4122222222222222,-0.4122222222222222,-0.4122222222222222,-0.4122222222222222,-0.40555555555555556]","[-0.31333333333333335,-0.3055555555555556,-0.30333333333333334,-0.30333333333333334,-0.30444444444444446,-0.3055555555555556,-0.3233333333333333]","[1,1,1,1,1,1,1]","[0,0,0,0,0,0,0]","[0,0,0,0,0,0,0]","[4.47199999999998,5.973000000000184,6.990000000000009,8.663000000000011,12.579000000000178,35.08100000000013,39.1550000000002]","[""trial_ahead_box"",""trial_left_box"",""trial_left_box"",""trial_left_box"",""trial_left_box"",""trial_left_box""]",0,59,59,26,1,campusquad2.jpg,cornfield4.jpg,church4.jpg,churchInside3.jpg,,
Image_List_5,,,,,,,,,,,,,,,,43965,2020-11-12_13h19.53.509,lingCatScenes,2020.1.3,MacIntel,60,"[1440,900]",,,"[""trial_slight_right_box"",""trial_slight_left_box""]",,,,,,,,,,,,bus_shelter3.jpg,space,13.302,"[0.38222222222222224,0.4011111111111111,0.21333333333333335,-0.20666666666666667,0.3933333333333333]","[-0.3288888888888889,-0.31666666666666665,-0.3022222222222222,-0.30666666666666664,-0.2922222222222222]","[1,1,1,1,1]","[0,0,0,0,0]","[0,0,0,0,0]","[5.302000000000135,6.869000000000142,7.9090000000001055,8.942000000000007,12.076000000000022]","[""trial_right_box"",""trial_slight_right_box"",""trial_slight_left_box"",""trial_right_box""]",0,60,60,30,1,courthouse1.jpg,desertvegetation3.jpg,clothingstore2.jpg,copyroom2.jpg,,
Image_List_5,,,,,,,,,,,,,,,,43965,2020-11-12_13h19.53.509,lingCatScenes,2020.1.3,MacIntel,60,"[1440,900]",,,"[""trial_ahead_box"",""trial_slight_right_box"",""trial_slight_left_box""]",,,,,,,,,,,,frontLawn2.jpg,space,35.938,"[0.013333333333333334,0.20555555555555555,-0.2011111111111111]","[-0.30333333333333334,-0.31,-0.3022222222222222]","[1,1,1]","[0,0,0]","[0,0,0]","[3.5960000000000036,5.551000000000158,35.27500000000009]","[""trial_ahead_box"",""trial_slight_right_box"",""trial_slight_left_box""]",0,61,61,55,1,greenmountains.jpg,hotelRoom3.jpg,gazebo5.jpg,hotelRoom7.jpg,,
Image_List_5,,,,,,,,,,,,,,,,43965,2020-11-12_13h19.53.509,lingCatScenes,2020.1.3,MacIntel,60,"[1440,900]",,,"[""trial_ahead_box"",""trial_right_box"",""trial_left_box""]",,,,,,,,,,,,firestation5.jpg,space,25.498,"[0.017777777777777778,-0.42444444444444446,0.4066666666666667,-0.39444444444444443]","[-0.2911111111111111,-0.32666666666666666,-0.3088888888888889,-0.2911111111111111]","[1,1,1,1]","[0,0,0,0]","[0,0,0,0]","[7.854000000000042,19.957000000000107,21.1400000000001,22.225000000000136]","[""trial_ahead_box"",""trial_right_box"",""trial_left_box""]",0,62,62,51,1,gasstation6.jpg,hallway5.jpg,frontDoor5.jpg,hayfield4.jpg,,
Image_List_5,,,,,,,,,,,,,,,,43965,2020-11-12_13h19.53.509,lingCatScenes,2020.1.3,MacIntel,60,"[1440,900]",,,"[""trial_slight_right_box""]",,,,,,,,,,,,trainStation3.jpg,space,6.242,"[0.18777777777777777,0.19444444444444445]","[-0.33111111111111113,-0.3244444444444444]","[1,1]","[0,0]","[0,0]","[1.7619999999999436,4.389999999999873]","[""trial_slight_right_box""]",0,63,63,94,1,treehouse.jpg,waitingroom3.jpg,staircase6.jpg,weightroom.jpg,,
Image_List_5,,,,,,,,,,,,,,,,43965,2020-11-12_13h19.53.509,lingCatScenes,2020.1.3,MacIntel,60,"[1440,900]",,,"[""trial_ahead_box""]",,,,,,,,,,,,readingroom2.jpg,space,2.85,"[0.025555555555555557,0.01888888888888889]","[-0.31444444444444447,-0.30333333333333334]","[1,1]","[0,0]","[0,0]","[1.4539999999999509,2.354000000000042]","[""trial_ahead_box""]",0,64,64,83,1,readingroom1.jpg,sculpturegarden1.jpg,promenadeDeck6.jpg,restaurant8.jpg,,
Image_List_5,,,,,,,,,,,,,,,,43965,2020-11-12_13h19.53.509,lingCatScenes,2020.1.3,MacIntel,60,"[1440,900]",,,"[""trial_sharp_left_box"",""trial_sharp_right_box""]",,,,,,,,,,,,sandbox.jpg,space,17.099,"[-0.5877777777777777,-0.021111111111111112,-0.6166666666666667,0.59,0.01]","[-0.3411111111111111,-0.31666666666666665,-0.31,-0.29444444444444445,-0.2866666666666667]","[1,1,1,1,1]","[0,0,0,0,0]","[0,0,0,0,0]","[2.6620000000000346,4.367999999999938,5.785999999999831,9.13799999999992,14.729000000000042]","[""trial_ahead_box"",""trial_sharp_left_box"",""trial_sharp_right_box"",""trial_ahead_box""]",0,65,65,88,1,rooftop1.jpg,track.jpg,sculpturegarden4.jpg,soccerfield.jpg,,
Image_List_5,,,,,,,,,,,,,,,,43965,2020-11-12_13h19.53.509,lingCatScenes,2020.1.3,MacIntel,60,"[1440,900]",,,"[""trial_ahead_box"",""trial_slight_left_box"",""trial_left_box"",""trial_slight_right_box"",""trial_right_box"",""trial_sharp_left_box"",""trial_sharp_right_box""]",,,,,,,,,,,,baseball6.jpg,space,21.697,"[-0.0033333333333333335,-0.19444444444444445,-0.41888888888888887,0.21,0.37444444444444447,0.3844444444444444,-0.5966666666666667,0.5855555555555556,-0.6133333333333333]","[-0.3111111111111111,-0.28888888888888886,-0.30777777777777776,-0.31,-0.3188888888888889,-0.3211111111111111,-0.3088888888888889,-0.29555555555555557,-0.3433333333333333]","[1,1,1,1,1,1,1,1,1]","[0,0,0,0,0,0,0,0,0]","[0,0,0,0,0,0,0,0,0]","[2.4549999999999272,3.355000000000018,4.22199999999998,5.739000000000033,6.270999999999958,6.77800000000002,14.817000000000007,16.21699999999987,19.273999999999887]","[""trial_ahead_box"",""trial_slight_left_box"",""trial_left_box"",""trial_slight_right_box"",""trial_right_box"",""trial_sharp_left_box"",""trial_sharp_right_box""]",0,66,66,17,1,bikerack1.jpg,campsite6.jpg,breakroom4.jpg,carmechanic.jpg,,
Image_List_5,,,,,,,,,,,,,,,,43965,2020-11-12_13h19.53.509,lingCatScenes,2020.1.3,MacIntel,60,"[1440,900]",,,"[""trial_right_box""]",,,,,,,,,,,,hayfield6.jpg,space,14.692,[0.41],[-0.31555555555555553],[1],[0],[0],[1.6320000000000618],"[""trial_right_box""]",0,67,67,61,1,HorseRaceTrack.jpg,metroInside4.jpg,homegarden6.jpg,kindergarten_classroom7.jpg,,
Image_List_5,,,,,,,,,,,,,,,,43965,2020-11-12_13h19.53.509,lingCatScenes,2020.1.3,MacIntel,60,"[1440,900]",,,"[""trial_left_box"",""trial_right_box""]",,,,,,,,,,,,clothingstore3.jpg,space,17.624,"[-0.41,-0.5855555555555556,-0.5855555555555556,0.39555555555555555]","[-0.31666666666666665,-0.31333333333333335,-0.31333333333333335,-0.30444444444444446]","[1,1,1,1]","[0,0,0,0]","[0,0,0,0]","[4.06899999999996,12.016000000000076,13.067000000000007,14.616999999999962]","[""trial_left_box"",""trial_sharp_left_box"",""trial_sharp_left_box"",""trial_right_box""]",0,68,68,40,1,drycleaners4.jpg,farm1.jpg,drymountains.jpg,dugout1.jpg,,
Image_List_5,,,,,,,,,,,,,,,,43965,2020-11-12_13h19.53.509,lingCatScenes,2020.1.3,MacIntel,60,"[1440,900]",,,"[""trial_sharp_right_box"",""trial_slight_left_box""]",,,,,,,,,,,,backyard1.jpg,space,11.532,"[0.6044444444444445,-0.22777777777777777,-0.17666666666666667]","[-0.3211111111111111,-0.31222222222222223,-0.29444444444444445]","[1,1,1]","[0,0,0]","[0,0,0]","[5.655999999999949,8.645999999999958,9.662000000000035]","[""trial_sharp_right_box"",""trial_slight_left_box""]",0,69,69,11,1,backyard2.jpg,basketballcourt4.jpg,bambooforest3.jpg,baywindow5.jpg,,
Image_List_5,,,,,,,,,,,,,,,,43965,2020-11-12_13h19.53.509,lingCatScenes,2020.1.3,MacIntel,60,"[1440,900]",,,"[""trial_right_box""]",,,,,,,,,,,,campusquad1.jpg,space,6.649,[0.4022222222222222],[-0.31222222222222223],[1],[0],[0],[2.754000000000133],"[""trial_right_box""]",0,70,70,34,1,deck4.jpg,diningroom5.jpg,courthouse4.jpg,diner11.jpg,,
Image_List_5,,,,,,,,,,,,,,,,43965,2020-11-12_13h19.53.509,lingCatScenes,2020.1.3,MacIntel,60,"[1440,900]",,,"[""trial_ahead_box"",""trial_slight_left_box"",""trial_slight_right_box"",""trial_right_box"",""trial_sharp_right_box"",""trial_sharp_left_box""]",,,,,,,,,,,,basketballcourt7.jpg,space,20.088,"[-0.014444444444444444,0.008888888888888889,-0.19555555555555557,0.24222222222222223,0.23555555555555555,0.21666666666666667,0.4211111111111111,0.6,-0.6266666666666667,-0.6066666666666667]","[-0.32666666666666666,-0.31555555555555553,-0.31666666666666665,-0.30666666666666664,-0.3011111111111111,-0.3055555555555556,-0.29888888888888887,-0.31555555555555553,-0.29333333333333333,-0.29777777777777775]","[1,1,1,1,1,1,1,1,1,1]","[0,0,0,0,0,0,0,0,0,0]","[0,0,0,0,0,0,0,0,0,0]","[4.721000000000004,5.471000000000004,6.572000000000116,7.721000000000004,8.304000000000087,8.854000000000042,9.978000000000065,15.601000000000113,18.75,19.442000000000007]","[""trial_ahead_box"",""trial_slight_left_box"",""trial_slight_right_box"",""trial_right_box"",""trial_sharp_right_box"",""trial_sharp_left_box""]",0,71,71,20,1,boardwalk6.jpg,cave.jpg,campsite3.jpg,cave4.jpg,,
Image_List_5,,,,,,,,,,,,,,,,43965,2020-11-12_13h19.53.509,lingCatScenes,2020.1.3,MacIntel,60,"[1440,900]",,,"[""trial_left_box"",""trial_ahead_box""]",,,,,,,,,,,,ATM4.jpg,space,8.502,"[-0.4088888888888889,-0.0022222222222222222]","[-0.31,-0.31777777777777777]","[1,1]","[0,0]","[0,0]","[6.121999999999844,7.504999999999882]","[""trial_left_box"",""trial_ahead_box""]",0,72,72,10,1,backstage2.jpg,barbershop3.jpg,ballroom4.jpg,basketballcourt3.jpg,,
Image_List_5,,,,,,,,,,,,,,,,43965,2020-11-12_13h19.53.509,lingCatScenes,2020.1.3,MacIntel,60,"[1440,900]",,,"[""trial_slight_right_box""]",,,,,,,,,,,,shoestore4.jpg,space,9.725,[0.21444444444444444],[-0.2866666666666667],[1],[0],[0],[8.02800000000002],"[""trial_slight_right_box""]",0,73,73,90,1,savanna5.jpg,trainStation1.jpg,sidewalk1.jpg,stripmall3.jpg,,
Image_List_5,,,,,,,,,,,,,,,,43965,2020-11-12_13h19.53.509,lingCatScenes,2020.1.3,MacIntel,60,"[1440,900]",,,"[""trial_slight_left_box""]",,,,,,,,,,,,forestpath2.jpg,space,7.423,[-0.18333333333333332],[-0.31444444444444447],[1],[0],[0],[2.755000000000109],"[""trial_slight_left_box""]",0,74,74,52,1,gasstation7.jpg,hardwarestore1.jpg,frontFoyer6.jpg,highway.jpg,,
Image_List_5,,,,,,,,,,,,,,,,43965,2020-11-12_13h19.53.509,lingCatScenes,2020.1.3,MacIntel,60,"[1440,900]",,,"[""trial_right_box""]",,,,,,,,,,,,checkoutcounter9.jpg,space,8.611,[0.4077777777777778],[-0.29888888888888887],[1],[0],[0],[5.855000000000018],"[""trial_right_box""]",0,75,75,36,1,diner14.jpg,dormroom9.jpg,dining_car3.jpg,doctor1.jpg,,
Image_List_5,,,,,,,,,,,,,,,,43965,2020-11-12_13h19.53.509,lingCatScenes,2020.1.3,MacIntel,60,"[1440,900]",,,"[""trial_right_box""]",,,,,,,,,,,,boardwalk.jpg,space,6.023,"[0.41444444444444445,0.41]","[-0.3288888888888889,-0.30333333333333334]","[1,1]","[0,0]","[0,0]","[4.2800000000002,5.0190000000000055]","[""trial_right_box""]",0,76,76,24,1,campsite.jpg,cliff3.jpg,cave6.jpg,cemetery5.jpg,,
Image_List_5,,,,,,,,,,,,,,,,43965,2020-11-12_13h19.53.509,lingCatScenes,2020.1.3,MacIntel,60,"[1440,900]",,,"[""trial_ahead_box""]",,,,,,,,,,,,cabin3.jpg,space,2.651,[-0.013333333333333334],[-0.2811111111111111],[1],[0],[0],[1.7959999999998217],"[""trial_ahead_box""]",0,77,77,31,1,cubicle4.jpg,desertvegetation6.jpg,conference4.jpg,courtroom2.jpg,,
Image_List_5,,,,,,,,,,,,,,,,43965,2020-11-12_13h19.53.509,lingCatScenes,2020.1.3,MacIntel,60,"[1440,900]",,,"[""trial_slight_left_box""]",,,,,,,,,,,,dormroom6.jpg,space,3.939,[-0.21333333333333335],[-0.29777777777777775],[1],[0],[0],[2.285000000000082],"[""trial_slight_left_box""]",0,78,78,46,1,flowershop.jpg,frontLawn5.jpg,farmersmarket4.jpg,fountain4.jpg,,
Image_List_5,,,,,,,,,,,,,,,,43965,2020-11-12_13h19.53.509,lingCatScenes,2020.1.3,MacIntel,60,"[1440,900]",,,"[""trial_ahead_box""]",,,,,,,,,,,,lookout4.jpg,space,4.681,"[0.0077777777777777776,0.0077777777777777776]","[-0.32555555555555554,-0.31555555555555553]","[1,1]","[0,0]","[0,0]","[2.520000000000209,3.387000000000171]","[""trial_ahead_box""]",0,79,79,76,1,parkinggarage.jpg,playroom4.jpg,parkinggarage3.jpg,park2.jpg,,
Image_List_5,,,,,,,,,,,,,,,,43965,2020-11-12_13h19.53.509,lingCatScenes,2020.1.3,MacIntel,60,"[1440,900]",,,"[""trial_ahead_box"",""trial_left_box""]",,,,,,,,,,,,cabin4.jpg,space,6.662,"[0.0077777777777777776,-0.3933333333333333]","[-0.31333333333333335,-0.31222222222222223]","[1,1]","[0,0]","[0,0]","[2.619999999999891,5.2690000000000055]","[""trial_ahead_box"",""trial_left_box""]",0,80,80,32,1,dancestudio6.jpg,diner12.jpg,constructionSite2.jpg,dentist4.jpg,,
Image_List_5,,,,,,,,,,,,,,,,43965,2020-11-12_13h19.53.509,lingCatScenes,2020.1.3,MacIntel,60,"[1440,900]",,,"[""trial_right_box""]",,,,,,,,,,,,kindergarten_classroom.jpg,space,12.146,[0.40444444444444444],[-0.3088888888888889],[1],[0],[0],[4.31899999999996],"[""trial_right_box""]",0,81,81,72,1,museum5.jpg,pharmacy4.jpg,musicStore1.jpg,museum4.jpg,,
Image_List_5,,,,,,,,,,,,,,,,43965,2020-11-12_13h19.53.509,lingCatScenes,2020.1.3,MacIntel,60,"[1440,900]",,,"[""trial_right_box"",""trial_left_box""]",,,,,,,,,,,,airportTerminal2.jpg,space,8.333,"[0.39444444444444443,-0.3788888888888889]","[-0.3011111111111111,-0.31]","[1,1]","[0,0]","[0,0]","[5.8530000000000655,6.820000000000164]","[""trial_right_box"",""trial_left_box""]",0,82,82,1,1,airportTerminal4.jpg,apartmentBuilding1.jpg,applestore1.jpg,airportTerminal3.jpg,,
Image_List_5,,,,,,,,,,,,,,,,43965,2020-11-12_13h19.53.509,lingCatScenes,2020.1.3,MacIntel,60,"[1440,900]",,,"[""trial_ahead_box"",""trial_slight_left_box"",""trial_slight_right_box"",""trial_left_box"",""trial_right_box""]",,,,,,,,,,,,basketballcourt.jpg,space,12.863,"[0.0077777777777777776,-0.18777777777777777,0.21555555555555556,-0.37,-0.3877777777777778,0.3988888888888889]","[-0.31,-0.2966666666666667,-0.2922222222222222,-0.30333333333333334,-0.3111111111111111,-0.3011111111111111]","[1,1,1,1,1,1]","[0,0,0,0,0,0]","[0,0,0,0,0,0]","[3.369999999999891,7.1440000000000055,8.02800000000002,9.293999999999869,9.94399999999996,10.867999999999938]","[""trial_ahead_box"",""trial_slight_left_box"",""trial_slight_right_box"",""trial_left_box"",""trial_right_box""]",0,83,83,19,1,boardwalk2.jpg,casino3.jpg,cafeteria1.jpg,castle4.jpg,,
Image_List_5,,,,,,,,,,,,,,,,43965,2020-11-12_13h19.53.509,lingCatScenes,2020.1.3,MacIntel,60,"[1440,900]",,,"[""trial_left_box""]",,,,,,,,,,,,bridalboutique2.jpg,space,6.12,"[-0.36777777777777776,-0.3877777777777778]","[-0.3011111111111111,-0.3011111111111111]","[1,1]","[0,0]","[0,0]","[2.56899999999996,3.286000000000058]","[""trial_left_box""]",0,84,84,28,1,churchInside1.jpg,dancestudio5.jpg,citystreet10.jpg,clothingstore5.jpg,,
Image_List_5,,,,,,,,,,,,,,,,43965,2020-11-12_13h19.53.509,lingCatScenes,2020.1.3,MacIntel,60,"[1440,900]",,,"[""trial_ahead_box""]",,,,,,,,,,,,grocerystore2.jpg,space,5.801,"[-0.008888888888888889,0.0033333333333333335]","[-0.32555555555555554,-0.30444444444444446]","[1,1]","[0,0]","[0,0]","[2.7230000000001837,3.6720000000000255]","[""trial_ahead_box""]",0,85,85,58,1,highway7.jpg,lab1.jpg,hedgemaze1.jpg,igloo4.jpg,,
Image_List_5,,,,,,,,,,,,,,,,43965,2020-11-12_13h19.53.509,lingCatScenes,2020.1.3,MacIntel,60,"[1440,900]",,,"[""trial_right_box"",""trial_slight_left_box""]",,,,,,,,,,,,rooftop2.jpg,space,8.502,"[0.38333333333333336,-0.18555555555555556]","[-0.3022222222222222,-0.2877777777777778]","[1,1]","[0,0]","[0,0]","[5.355000000000018,6.4780000000000655]","[""trial_right_box"",""trial_slight_left_box""]",0,86,86,84,1,readingroom5.jpg,sidewalk2.jpg,restaurant13.jpg,sandDunes_desert_outdoor.jpg,,
Image_List_5,,,,,,,,,,,,,,,,43965,2020-11-12_13h19.53.509,lingCatScenes,2020.1.3,MacIntel,60,"[1440,900]",,,"[""trial_left_box""]",,,,,,,,,,,,pasture8.jpg,space,3.433,[-0.39444444444444443],[-0.29444444444444445],[1],[0],[0],[2.63799999999992],"[""trial_left_box""]",0,87,87,81,1,promenadeDeck.jpg,ruralroad5.jpg,promenadeDeck2.jpg,rainforest5.jpg,,
Image_List_5,,,,,,,,,,,,,,,,43965,2020-11-12_13h19.53.509,lingCatScenes,2020.1.3,MacIntel,60,"[1440,900]",,,"[""trial_left_box"",""trial_slight_right_box""]",,,,,,,,,,,,parkinggarage4.jpg,space,9.663,"[-0.3844444444444444,0.20555555555555555]","[-0.31,-0.30777777777777776]","[1,1]","[0,0]","[0,0]","[7.31899999999996,8.608000000000175]","[""trial_left_box"",""trial_slight_right_box""]",0,88,88,80,1,pavilion2.jpg,racecarcourse2.jpg,porch.jpg,poolhall5.jpg,,
Image_List_5,,,,,,,,,,,,,,,,43965,2020-11-12_13h19.53.509,lingCatScenes,2020.1.3,MacIntel,60,"[1440,900]",,,"[""trial_ahead_box"",""trial_left_box"",""trial_sharp_right_box""]",,,,,,,,,,,,frontFoyer.jpg,space,11.741,"[0.0077777777777777776,0.35777777777777775,0.4011111111111111,-0.39666666666666667,0.4088888888888889,0.5966666666666667]","[-0.2966666666666667,-0.2788888888888889,-0.29333333333333333,-0.3011111111111111,-0.3111111111111111,-0.32]","[1,1,1,1,1,1]","[0,0,0,0,0,0]","[0,0,0,0,0,0]","[2.18100000000004,3.3969999999999345,4.086999999999989,5.620999999999867,7.619999999999891,8.186999999999898]","[""trial_ahead_box"",""trial_right_box"",""trial_left_box"",""trial_right_box"",""trial_sharp_right_box""]",0,89,89,54,1,greenhouse2.jpg,horsebarn11.jpg,gazebo2.jpg,homegarage4.jpg,,
Image_List_5,,,,,,,,,,,,,,,,43965,2020-11-12_13h19.53.509,lingCatScenes,2020.1.3,MacIntel,60,"[1440,900]",,,"[""trial_right_box"",""trial_left_box""]",,,,,,,,,,,,dentist2.jpg,space,9.544,"[0.4022222222222222,-0.3788888888888889]","[-0.30777777777777776,-0.3188888888888889]","[1,1]","[0,0]","[0,0]","[5.269999999999982,6.120000000000118]","[""trial_right_box"",""trial_left_box""]",0,90,90,41,1,dugout4.jpg,farm3.jpg,drymountains3.jpg,fabricstore1.jpg,,
Image_List_5,,,,,,,,,,,,,,,,43965,2020-11-12_13h19.53.509,lingCatScenes,2020.1.3,MacIntel,60,"[1440,900]",,,"[""trial_right_box"",""trial_left_box""]",,,,,,,,,,,,beach1.jpeg,space,14.255,"[0.3988888888888889,-0.42444444444444446]","[-0.3188888888888889,-0.3111111111111111]","[1,1]","[0,0]","[0,0]","[2.4320000000000164,5.788000000000011]","[""trial_right_box"",""trial_left_box""]",0,91,91,21,1,botanicalGarden6.jpg,cemetery6.jpg,campusquad3.jpg,cave5.jpg,,
Image_List_5,,,,,,,,,,,,,,,,43965,2020-11-12_13h19.53.509,lingCatScenes,2020.1.3,MacIntel,60,"[1440,900]",,,"[""trial_ahead_box"",""trial_slight_right_box""]",,,,,,,,,,,,homegarage2.jpg,space,6.239,"[0.05,-0.0011111111111111111,0.20444444444444446]","[-0.2911111111111111,-0.29555555555555557,-0.31777777777777777]","[1,1,1]","[0,0,0]","[0,0,0]","[2.928000000000111,3.366999999999962,5.169000000000096]","[""trial_ahead_box"",""trial_slight_right_box""]",0,92,92,64,1,igloo2.jpg,newsstand5.jpg,jewelrystore8.jpg,lab5.jpg,,
Image_List_5,,,,,,,,,,,,,,,,43965,2020-11-12_13h19.53.509,lingCatScenes,2020.1.3,MacIntel,60,"[1440,900]",,,"[""trial_left_box""]",,,,,,,,,,,,bistrooutdoor6.jpg,space,7.575,[-0.4022222222222222],[-0.3111111111111111],[1],[0],[0],[6.354000000000042],"[""trial_left_box""]",0,93,93,22,1,bowlingalley5.jpg,church6.jpg,cargo5.jpg,cemetery.jpg,,
Image_List_5,,,,,,,,,,,,,,,,43965,2020-11-12_13h19.53.509,lingCatScenes,2020.1.3,MacIntel,60,"[1440,900]",,,"[""trial_left_box""]",,,,,,,,,,,,elevatorOutside2.jpg,space,2.157,[-0.41444444444444445],[-0.3111111111111111],[1],[0],[0],[1.4800000000000182],"[""trial_left_box""]",0,94,94,47,1,frontDoor.jpg,gasstation8.jpg,firestation4.jpg,fountain7.jpg,,
Image_List_5,,,,,,,,,,,,,,,,43965,2020-11-12_13h19.53.509,lingCatScenes,2020.1.3,MacIntel,60,"[1440,900]",,,"[""trial_slight_right_box""]",,,,,,,,,,,,alley3.jpg,space,14.796,"[0.4255555555555556,0.3977777777777778,0.2111111111111111,0.4088888888888889]","[-0.3022222222222222,-0.3,-0.2911111111111111,-0.30444444444444446]","[1,1,1,1]","[0,0,0,0]","[0,0,0,0]","[4.803000000000338,6.004000000000133,8.67599999999993,11.526000000000067]","[""trial_right_box"",""trial_slight_right_box"",""trial_right_box""]",0,95,95,3,1,apartmentBuilding2.jpg,attic1.jpg,aquarium1.jpg,appleorchard2.jpg,,
Image_List_5,,,,,,,,,,,,,,,,43965,2020-11-12_13h19.53.509,lingCatScenes,2020.1.3,MacIntel,60,"[1440,900]",,,"[""trial_sharp_right_box""]",,,,,,,,,,,,bleachers6.jpg,space,7.056,"[0.42,0.41888888888888887,0.6733333333333333,0.6288888888888889,0.5988888888888889]","[-0.3233333333333333,-0.32,-0.34444444444444444,-0.31444444444444447,-0.30444444444444446]","[1,1,1,1,1]","[0,0,0,0,0]","[0,0,0,0,0]","[2.163000000000011,3.2210000000000036,3.788000000000011,4.255000000000109,4.872000000000071]","[""trial_right_box"",""trial_right_box"",""trial_sharp_right_box""]",0,96,96,23,1,bus_shelter.jpg,church8.jpg,carmechanic4.jpeg,cemetery3.jpg,,
Image_List_5,,,,,,,,,,,,,,,,43965,2020-11-12_13h19.53.509,lingCatScenes,2020.1.3,MacIntel,60,"[1440,900]",,,"[""trial_slight_right_box"",""trial_left_box""]",,,,,,,,,,,,lightingstore2.jpg,space,5.333,"[0.23333333333333334,0.21888888888888888,-0.39111111111111113]","[-0.3022222222222222,-0.2911111111111111,-0.3]","[1,1,1]","[0,0,0]","[0,0,0]","[2.6389999999998963,3.604000000000042,4.588999999999942]","[""trial_slight_right_box"",""trial_left_box""]",0,97,97,74,1,newsstand2.jpg,playground10.jpg,observatory4.jpeg,operatingroom1.jpg,,
Image_List_5,,,,,,,,,,,,,,,,43965,2020-11-12_13h19.53.509,lingCatScenes,2020.1.3,MacIntel,60,"[1440,900]",,,"[""trial_slight_right_box"",""trial_left_box""]",,,,,,,,,,,,airplanecabin3.jpg,space,14.322,"[0.2111111111111111,-0.4022222222222222]","[-0.30666666666666664,-0.31222222222222223]","[1,1]","[0,0]","[0,0]","[2.3360000000000127,4.302000000000135]","[""trial_slight_right_box"",""trial_left_box""]",0,98,98,0,1,airplanecabin1.jpg,alley2.jpg,appleorchard4.jpg,airplanecabin5.jpg,,
Image_List_5,,,,,,,,,,,,,,,,43965,2020-11-12_13h19.53.509,lingCatScenes,2020.1.3,MacIntel,60,"[1440,900]",,,"[""trial_slight_left_box""]",,,,,,,,,,,,hospitalroom3.jpg,space,4.119,[-0.21666666666666667],[-0.3],[1],[0],[0],[2.5030000000001564],"[""trial_slight_left_box""]",0,99,99,68,1,liquorstore7.jpg,parkinglot.jpg,lightingstore4.jpg,lockerroom2.jpg,,
Image_List_5,,,,,,,,,,,,,,,,43965,2020-11-12_13h19.53.509,lingCatScenes,2020.1.3,MacIntel,60,,,,,,,,,,,,,,,,,,,,,,,,,,,,,,,,,,,space,88.854
