image_list,key_resp_intructions.keys,key_resp_intructions.rt,key_resp_intructions_3.keys,key_resp_intructions_3.rt,PracticeComplete_2.keys,PracticeComplete_2.rt,PracticeComplete_3.keys,PracticeComplete_3.rt,demo_trials.thisRepN,demo_trials.thisTrialN,demo_trials.thisN,demo_trials.thisIndex,demo_trials.ran,demo_images,path_images,participant,date,expName,psychopyVersion,OS,frameRate,windowSize,drawing,numDrawings,drawingSizes,practice_complete.keys,practice_complete.rt,PracticeComplete.keys,PracticeComplete.rt,practice_trials.thisRepN,practice_trials.thisTrialN,practice_trials.thisN,practice_trials.thisIndex,practice_trials.ran,practice_images,feedback_images,key_resp_intructions_2.keys,key_resp_intructions_2.rt,Image_List_5,trial_complete.keys,trial_complete.rt,trials.thisRepN,trials.thisTrialN,trials.thisN,trials.thisIndex,trials.ran,Image_List_1,Image_List_2,Image_List_3,Image_List_4,key_resp.keys,key_resp.rt
Image_List_5,space,36.512945,space,4.766555,space,7.73954,space,3.46179,0,0,0,3,1,ahead_right_left.jpg,ahead_right_left_path.jpg,43992,2020-11-12_13h38.57.772,analogCatScenes,2020.1.3,Win32,60,,,,,,,,,,,,,,,,,,,,,,,,,,,,,,,
Image_List_5,,,,,space,1.64909,space,1.23922,0,1,1,0,1,ahead.jpg,ahead_path.jpg,43992,2020-11-12_13h38.57.772,analogCatScenes,2020.1.3,Win32,60,,,,,,,,,,,,,,,,,,,,,,,,,,,,,,,
Image_List_5,,,,,space,2.36355,space,1.530315,0,2,2,2,1,ahead_right.jpg,ahead_right_path.jpg,43992,2020-11-12_13h38.57.772,analogCatScenes,2020.1.3,Win32,60,,,,,,,,,,,,,,,,,,,,,,,,,,,,,,,
Image_List_5,,,,,space,1.24152,space,1.301105,0,3,3,1,1,ahead_left.jpg,ahead_left_path.jpg,43992,2020-11-12_13h38.57.772,analogCatScenes,2020.1.3,Win32,60,,,,,,,,,,,,,,,,,,,,,,,,,,,,,,,
Image_List_5,,,,,space,1.477045,space,1.59128,0,4,4,6,1,right_left.jpg,right_left_path.jpg,43992,2020-11-12_13h38.57.772,analogCatScenes,2020.1.3,Win32,60,,,,,,,,,,,,,,,,,,,,,,,,,,,,,,,
Image_List_5,,,,,space,1.267885,space,1.501265,0,5,5,5,1,right.jpg,right_path.jpg,43992,2020-11-12_13h38.57.772,analogCatScenes,2020.1.3,Win32,60,,,,,,,,,,,,,,,,,,,,,,,,,,,,,,,
Image_List_5,,,,,space,1.11416,space,1.98877,0,6,6,4,1,left.jpg,left_path.jpg,43992,2020-11-12_13h38.57.772,analogCatScenes,2020.1.3,Win32,60,,,,,,,,,,,,,,,,,,,,,,,,,,,,,,,
Image_List_5,,,,,,,,,,,,,,,,43992,2020-11-12_13h38.57.772,analogCatScenes,2020.1.3,Win32,60,"[1536,864]","[[[0.0009259391851999142,-0.19444445479247305],[0.0009259391851999142,-0.19444445479247305],[0.0009259391851999142,-0.19444445479247305],[0.0009259391851999142,-0.19444445479247305],[0.0009259391851999142,-0.19444445479247305],[0.0009259391851999142,-0.19444445479247305],[0.0009259391851999142,-0.19444445479247305],[0.0009259391851999142,-0.19444445479247305],[0.0009259391851999142,-0.19444445479247305],[0.0009259391851999142,-0.19444445479247305],[0.0009259391851999142,-0.19444445479247305],[0.01574081073480708,-0.178703713817177],[0.052777848323738975,-0.13611117710393972],[0.08101853297126514,-0.10601858406293256],[0.08703705157946658,-0.09814815706125012],[0.10046297770545438,-0.08981482360374045],[0.10740742225337911,-0.08472223093526231],[0.1120370519519956,-0.08055556420650747],[0.11666668165061209,-0.07916667529692252],[0.11944445946978198,-0.07777778638733758],[0.12314816322867517,-0.07592593450789098],[0.12777779292729166,-0.07361111965858275],[0.13148149668618483,-0.07222223074899779],[0.13935186717383288,-0.06898148995996625],[0.14583334875189596,-0.066666675110658],[0.15000001548065078,-0.06481482323121142],[0.16111112675733036,-0.06157408244217987],[0.1717592750641483,-0.056944452743563384],[0.1842592752504128,-0.0523148230449469],[0.19166668276819918,-0.04861111928605371],[0.20000001622570884,-0.04444445255729887],[0.20601853483391028,-0.04212963770799063],[0.21157409047225006,-0.03888889691895909],[0.21481483126128162,-0.03657408206965084],[0.222222238779068,-0.03148148940117271],[0.22824075738726943,-0.02731482267241787],[0.23379631302560921,-0.02407408188338633],[0.23888890569408736,-0.02083334109435479],[0.24351853539270382,-0.018518526245046546],[0.24814816509132032,-0.015740748425876652],[0.2527777947899368,-0.014351859516291707],[0.25972223933786154,-0.00972222981767522],[0.2652777949762013,-0.008333340908090273],[0.2685185357652329,-0.005555563088920381],[0.27500001734329593,-0.0018518593300271917],[0.2819444618912207,0.0023148073987276467],[0.2842592767405289,0.002777770368589295],[0.28657409158983715,0.0037036963083125927],[0.28935186940900703,0.004166659278174241],[0.29305557316790026,0.00462962224803589],[0.29490742504734685,0.005555548187759187],[0.2976853158945855,0.006018511157620836],[0.2995370547459633,0.006944437097344134],[0.30277779553499484,0.008333326006929079],[0.30416668444457984,0.008333326006929079],[0.30648149929388807,0.00879628897679073],[0.3087963141431963,0.009259251946652378],[0.31111112899250454,0.010648140856237323],[0.3129629808719511,0.011574066795960621],[0.31435186978153606,0.011574066795960621],[0.3148148327513977,0.011574066795960621],[0.3162038346890515,0.011574066795960621],[0.31666668463084435,0.011574066795960621],[0.31759261057056765,0.011574066795960621],[0.31759261057056765,0.011574066795960621],[0.31759261057056765,0.011574066795960621],[0.31759261057056765,0.011574066795960621]]]",1,[67],space,11.807255,space,2.12079,0,0,0,5,1,right_2.jpg,right_2_path.jpg,,,,,,,,,,,,,,,,
Image_List_5,,,,,,,,,,,,,,,,43992,2020-11-12_13h38.57.772,analogCatScenes,2020.1.3,Win32,60,"[1536,864]","[[[0.00046297621533826543,-0.20092599288457055],[0.00046297621533826543,-0.20092599288457055],[0.00046297621533826543,-0.20092599288457055],[0.00046297621533826543,-0.20092599288457055],[0.00046297621533826543,-0.20092599288457055],[0.00046297621533826543,-0.1995370474609512],[0.0009259391851999142,-0.1851851953952401],[0.002777791064646509,-0.16296297284188094],[0.004166736488265862,-0.13935186137893685],[0.006481551337574105,-0.1064814905187598],[0.007407420763262996,-0.09212963845304868],[0.008333346702986293,-0.08518519390512395],[0.010185198582432888,-0.061111119472318225],[0.011574087492017835,-0.04861111928605371],[0.012500013431741131,-0.04120371176826733],[0.013888902341326078,-0.03101852643131106],[0.01666668016049597,-0.018055563275184896],[0.018981495009804214,-0.00046297042044224563],[0.024537050648143998,0.028703696680841623],[0.024537050648143998,0.03935184498765954],[0.027314884981348295,0.04907406735475416],[0.02777779143717554,0.06481480833005022],[0.030555569256345432,0.0722222158478366],[0.03333334707551532,0.08009255807846742],[0.03657414437858127,0.0930555494916108],[0.04120377407719776,0.10416666076829036],[0.043055569442609944,0.11018515111947459],[0.043055569442609944,0.11249996596878284],[0.043055569442609944,0.11481478081809107],[0.043055569442609944,0.11805554986413982],[0.043981495382333244,0.12870366991394053],[0.043981495382333244,0.14074073538736062],[0.043981495382333244,0.148148142905147],[0.043981495382333244,0.15648144810563946],[0.043981495382333244,0.15925925418182654],[0.04444445835219489,0.16481480982016633],[0.04583340377581425,0.16898147654892118],[0.04675927320150314,0.17037033720148892],[0.04675927320150314,0.17175925436809106],[0.04814821862512249,0.17453703218726097],[0.04814821862512249,0.17731478174941365],[0.049537051020673024,0.18009258782560075],[0.05000001399053468,0.18287036564477063],[0.05000001399053468,0.18379629158449393],[0.05000001399053468,0.1851851804940789],[0.05000001399053468,0.18657404114664664],[0.05000001399053468,0.18842592128311042],[0.05000001399053468,0.1893518472228337],[0.05000001399053468,0.18981481019269536],[0.05000001399053468,0.19074073613241868],[0.05000001399053468,0.19074073613241868],[0.05000001399053468,0.1912036708452631],[0.05000001399053468,0.1912036708452631],[0.05000001399053468,0.1912036708452631],[0.05000001399053468,0.190277773162557]],[[-0.0037036905134165726,-0.19212963994316481],[-0.0037036905134165726,-0.19212963994316481],[-0.0037036905134165726,-0.19212963994316481],[-0.0037036905134165726,-0.19212963994316481],[-0.0037036905134165726,-0.19212963994316481],[-0.0037036905134165726,-0.19212963994316481],[-0.0037036905134165726,-0.19212963994316481],[-0.0037036905134165726,-0.19212963994316481],[-0.007870357242171411,-0.1939815483366458],[-0.013425912880511195,-0.19629636318595406],[-0.018981412004816574,-0.19629636318595406],[-0.027314801976360655,-0.195833343702058],[-0.04212956049789901,-0.1939815483366458],[-0.05740739501736782,-0.19259260291302646],[-0.07083332114335564,-0.1902777880637182],[-0.08009258054058861,-0.18935191863802933],[-0.08888887696795994,-0.18750001024454832],[-0.1009259141843628,-0.18564815836510173],[-0.10833332170214918,-0.18472228893941284],[-0.11574072921993556,-0.18379630648565512],[-0.12499998861716853,-0.1824074740901046],[-0.13148147019523163,-0.1805555656966236],[-0.137036969319537,-0.17916667678703865],[-0.14814813711025096,-0.17638889896786875],[-0.15092585841538644,-0.17638889896786875],[-0.16064813729651548,-0.17546302954217985],[-0.1712962856033334,-0.17453704708842216],[-0.18009258203070472,-0.1740740841185605],[-0.18749998954849112,-0.17314821469287162],[-0.19953697025085956,-0.17222223223911393],[-0.20787036022240366,-0.17222223223911393],[-0.21759258258949826,-0.17083339984356338],[-0.23425919299048323,-0.16851858499425512],[-0.2444444348414739,-0.16666667660077414],[-0.2518518423592603,-0.16574075066105085],[-0.2597221563328739,-0.16574075066105085],[-0.2643517860314904,-0.16574075066105085],[-0.2694444352140029,-0.16574075066105085],[-0.27638887976192766,-0.16574075066105085],[-0.2819444354002674,-0.16574075066105085],[-0.28749993452457284,-0.16574075066105085],[-0.29537036152625523,-0.16574075066105085],[-0.29999999122487175,-0.16574075066105085],[-0.3055555468632115,-0.16574075066105085],[-0.31249999141113627,-0.16481482472132752],[-0.31527776923030615,-0.16481482472132752],[-0.31805554704947603,-0.16481482472132752],[-0.3208333248686459,-0.16435186175146588],[-0.32268517674809255,-0.16342593581174258],[-0.3249999915974008,-0.16342593581174258],[-0.32685184347684737,-0.16342593581174258],[-0.327314806446709,-0.16342593581174258],[-0.32870369535629396,-0.16342593581174258],[-0.32962962129601725,-0.16342593581174258],[-0.3310185102056022,-0.16342593581174258],[-0.3310185102056022,-0.16342593581174258]]]",2,"[55,56]",space,7.051285,space,1.58447,0,1,1,1,1,ahead_left_2.jpg,ahead_left_2_path.jpg,,,,,,,,,,,,,,,,
Image_List_5,,,,,,,,,,,,,,,,43992,2020-11-12_13h38.57.772,analogCatScenes,2020.1.3,Win32,60,"[1536,864]","[[[0.004629642944093104,-0.20277778824998272],[0.004629642944093104,-0.20277778824998272],[0.004629642944093104,-0.20277778824998272],[0.004629642944093104,-0.20277778824998272],[0.004629642944093104,-0.20277778824998272],[0.004629642944093104,-0.20277778824998272],[0.004629642944093104,-0.20277778824998272],[0.004629642944093104,-0.20277778824998272],[0.004629642944093104,-0.20277778824998272],[0.004629642944093104,-0.20277778824998272],[0.004629642944093104,-0.20277778824998272],[0.004629642944093104,-0.20277778824998272],[0.005092605913954752,-0.19907408449108954],[0.00601853185367805,-0.19259260291302646],[0.00879636618688235,-0.1759259359980071],[0.010648161552294536,-0.1662037701449469],[0.011574087492017835,-0.1597222320528494],[0.01296297640160278,-0.15324075047478633],[0.013888902341326078,-0.14768525135048094],[0.015277791250911023,-0.14120371325838346],[0.017129643130357617,-0.13518519465018203],[0.01944445797966586,-0.12731482416253398],[0.021296309859112458,-0.11990747315878202],[0.02314816173855905,-0.11296302861085729],[0.024074087678282348,-0.11111112021737629],[0.024074087678282348,-0.10972223130779134],[0.024074087678282348,-0.10694445348862144],[0.024074087678282348,-0.10000000894069672],[0.024074087678282348,-0.09490741627221858],[0.024074087678282348,-0.0893518606338788],[0.024074087678282348,-0.08611111984484726],[0.025000070132040055,-0.08148149014623077],[0.025000070132040055,-0.07777778638733758],[0.025000070132040055,-0.07453704559830604],[0.025000070132040055,-0.07268519371885944],[0.025000070132040055,-0.07175926777913615],[0.025000070132040055,-0.06990741589968955],[0.025000070132040055,-0.06712963808051965],[0.025000070132040055,-0.06296297135176482],[0.025000070132040055,-0.058796304623009985],[0.025000070132040055,-0.05648148977370174],[0.025000070132040055,-0.054629637894255144],[0.025000070132040055,-0.05185186007508525],[0.025000070132040055,-0.05000000819563866],[0.025000070132040055,-0.04861111928605371],[0.025000070132040055,-0.04722223037646876],[0.025000070132040055,-0.045833341466883816],[0.025000070132040055,-0.04444445255729887],[0.025000070132040055,-0.04398148958743722],[0.025000070132040055,-0.04305556364771393],[0.025000070132040055,-0.04305556364771393],[0.025000070132040055,-0.04305556364771393],[0.025000070132040055,-0.04305556364771393],[0.025000070132040055,-0.043518526617575576]],[[-0.000462893210350625,-0.19629636318595406],[-0.000462893210350625,-0.19629636318595406],[-0.000462893210350625,-0.19629636318595406],[-0.000462893210350625,-0.19629636318595406],[-0.000462893210350625,-0.19629636318595406],[-0.000462893210350625,-0.19629636318595406],[-0.000462893210350625,-0.19629636318595406],[-0.000462893210350625,-0.19629636318595406],[-0.000462893210350625,-0.19629636318595406],[-0.000462893210350625,-0.19629636318595406],[-0.000462893210350625,-0.19629636318595406],[-0.0055555423928631675,-0.195833343702058],[-0.025925856552741305,-0.18981482509385655],[-0.03842591325304023,-0.18703710378872107],[-0.051851839379028035,-0.18425926945551677],[-0.06759252384028969,-0.1805555656966236],[-0.07962961757072697,-0.1777778443914881],[-0.09074067233337212,-0.17268519520897557],[-0.10555554388297929,-0.16851858499425512],[-0.11712961812952051,-0.16342593581174258],[-0.12777770992230403,-0.16111112096243435],[-0.13657406286370974,-0.15833334314326444],[-0.14537035929108108,-0.15555556532409456],[-0.15277776680886745,-0.15416667641450962],[-0.16435184105540868,-0.15138889859533972],[-0.17314813748278,-0.15000006619978917],[-0.1893518414279377,-0.14398149107755334],[-0.19814813785530902,-0.1398148243487985],[-0.2018517851001678,-0.1379629724693519],[-0.20972221210185024,-0.13472223168032038],[-0.22129628634839146,-0.1300926019817039],[-0.22916665683603948,-0.12685191770670676],[-0.23749999029354918,-0.12407408337350245],[-0.24675924969078214,-0.1217592685241942],[-0.25462962017843016,-0.11898149070502431],[-0.26018517581677,-0.11759265830947377],[-0.26805554630441797,-0.11481482397626948],[-0.2726851760030345,-0.11250000912696123],[-0.2777777686715126,-0.11157408318723794],[-0.2861111021290223,-0.10740741645848309],[-0.29166665776736206,-0.10601858406293256],[-0.2972222134057019,-0.10277778675986661],[-0.3037036949837649,-0.09953704597083507],[-0.30601850983307316,-0.09861112003111178],[-0.30787036171251975,-0.09768519409138847],[-0.31018517656182804,-0.09722223112152682],[-0.31018517656182804,-0.09722223112152682],[-0.3106481395316897,-0.09722223112152682],[-0.3106481395316897,-0.09722223112152682]],[[0.003703717004369806,-0.1976851955815046],[0.003703717004369806,-0.1976851955815046],[0.003703717004369806,-0.1976851955815046],[0.003703717004369806,-0.1976851955815046],[0.003703717004369806,-0.1976851955815046],[0.003703717004369806,-0.1976851955815046],[0.003703717004369806,-0.1976851955815046],[0.003703717004369806,-0.1976851955815046],[0.003703717004369806,-0.1976851955815046],[0.00601853185367805,-0.19722223261164296],[0.014814828281049375,-0.1930555658828881],[0.03703705083440851,-0.1814814916363469],[0.04768519914122643,-0.1750000100582838],[0.061111125267214246,-0.16527778769118917],[0.06712964387541567,-0.16018519502271106],[0.07500001436306371,-0.1560185282939562],[0.07962964406168019,-0.15370371344464798],[0.08425927376029668,-0.15138889859533972],[0.08703705157946658,-0.14953704671589313],[0.0921296442479447,-0.14629630592686158],[0.0958333480068379,-0.14305562165186445],[0.10231482958490098,-0.13935186137893685],[0.10694445928351747,-0.13703704652962861],[0.110185200072549,-0.13472223168032038],[0.11620371868075044,-0.13055556495156553],[0.12453705213826012,-0.12453710285739851],[0.1282407558971533,-0.1217592685241942],[0.1337963115354931,-0.11759265830947377],[0.13657408935466298,-0.11527784346016554],[0.14166668202314112,-0.11111112021737629],[0.14583334875189596,-0.10740741645848309],[0.14861112657106584,-0.10509260160917486],[0.15046297845051246,-0.10370376921362431],[0.15509260814912892,-0.10046297191055836],[0.15740742299843719,-0.09861112003111178],[0.16018520081760707,-0.09675932466569959],[0.16203705269705365,-0.09537037924208024],[0.16342594160663862,-0.09398149033249528],[0.1662037194258085,-0.09120371251332539],[0.16898149724497838,-0.08981482360374045],[0.17268520100387158,-0.08703704578457055],[0.17453705288331817,-0.0856481568749856],[0.1754629788230415,-0.08472223093526231],[0.17731483070248807,-0.08333334202567737],[0.1796296455517963,-0.08240741608595406],[0.1814814974312429,-0.08148149014623077],[0.18287038634082786,-0.08009260123664583],[0.1833333493106895,-0.07962963826678417],[0.18472223822027445,-0.07870371232706087],[0.1861111271298594,-0.07824074935719923],[0.187962979009306,-0.07777778638733758],[0.18842594197916765,-0.07685186044761429],[0.18935186791889094,-0.07685186044761429],[0.1898148308887526,-0.07546297153802933],[0.19074075682847588,-0.07546297153802933],[0.19074075682847588,-0.07546297153802933],[0.19074075682847588,-0.07546297153802933],[0.19074075682847588,-0.07546297153802933]]]",3,"[54,49,58]",space,8.370095,space,2.034475,0,2,2,3,1,ahead_right_left_2.jpg,ahead_right_left_2_path.jpg,,,,,,,,,,,,,,,,
Image_List_5,,,,,,,,,,,,,,,,43992,2020-11-12_13h38.57.772,analogCatScenes,2020.1.3,Win32,60,"[1536,864]","[[[0.005092605913954752,-0.19814815855136625],[0.005092605913954752,-0.19814815855136625],[0.005092605913954752,-0.19814815855136625],[0.005092605913954752,-0.19814815855136625],[0.005092605913954752,-0.19814815855136625],[0.005092605913954752,-0.19814815855136625],[0.005092605913954752,-0.19814815855136625],[0.005092605913954752,-0.19814815855136625],[0.005092605913954752,-0.19814815855136625],[0.004629642944093104,-0.195833343702058],[0.003240754034508158,-0.1939815483366458],[-0.0027777080596588684,-0.18287038054593183],[-0.014351782306200087,-0.1625000098720193],[-0.024074061187329115,-0.14768525135048094],[-0.035185115949974276,-0.13472223168032038],[-0.045370357800964954,-0.12222228800809026],[-0.05462961719819793,-0.11018519427765298],[-0.06898146926390904,-0.09074074954346374],[-0.07546295084197212,-0.08148149014623077],[-0.08055554351045026,-0.07453704559830604],[-0.08657406211865169,-0.06712963808051965],[-0.09259258072685313,-0.057870378683286684],[-0.1009259141843628,-0.05000000819563866],[-0.11388882082645456,-0.0351851931600659],[-0.12407406267744524,-0.02407408188338633],[-0.13101850722536998,-0.014814822486153355],[-0.14027776662260294,-0.0018518593300271917],[-0.1476851741403893,0.006018511157620836],[-0.15277776680886745,0.013888881645268865],[-0.1569444335376223,0.018981474313747],[-0.16111110026637712,0.023611104012363486],[-0.16388887808554703,0.027314807771256677],[-0.1703703596636101,0.034722215289043054],[-0.17453702639236493,0.04074070564022728],[-0.17962961906084307,0.04722221547530757],[-0.18518517469918286,0.0541666600232323],[-0.1912036933073843,0.05833332675198714],[-0.19675924894572408,0.06157403928400148],[-0.2083333231922653,0.06759258614922012],[-0.21620369367991332,0.07175925287797495],[-0.22083332337852982,0.0740740677272832],[-0.22407406416756134,0.0768518455464531],[-0.2273147484425585,0.07916666039576133],[-0.23009258277576278,0.08055554930534628],[-0.23287036059493268,0.08379629009437782],[-0.2361111013839642,0.0884259197929943],[-0.23935184217299577,0.09537036434091904],[-0.2425925829620273,0.10231480888884377],[-0.24490739781133555,0.10601851264773696],[-0.2472222126606438,0.10879629046690685],[-0.2472222126606438,0.1111111053162151],[-0.24861110157022873,0.11249996596878284],[-0.24861110157022873,0.11249996596878284],[-0.24907406454009037,0.11296295719566168],[-0.24907406454009037,0.11342592016552333],[-0.24907406454009037,0.11435184610524664],[-0.24907406454009037,0.11435184610524664],[-0.24907406454009037,0.11435184610524664],[-0.24907406454009037,0.11388888313538498],[-0.24907406454009037,0.11342592016552333]],[[-0.0032407275435549243,-0.195833343702058],[-0.0032407275435549243,-0.195833343702058],[-0.0032407275435549243,-0.195833343702058],[-0.0032407275435549243,-0.195833343702058],[-0.0032407275435549243,-0.195833343702058],[-0.0032407275435549243,-0.195833343702058],[-0.0032407275435549243,-0.195833343702058],[-0.0032407275435549243,-0.195833343702058],[-0.0032407275435549243,-0.195833343702058],[-0.001851838633969978,-0.195833343702058],[0.025462976587867295,-0.1976851955815046],[0.07824075515209525,-0.2032408077338788],[0.0967592739465612,-0.2032408077338788],[0.12361112619853681,-0.20462964012942933],[0.13657408935466298,-0.20416667715956768],[0.1462963117217576,-0.20138889934039778],[0.16898149724497838,-0.19814815855136625],[0.1851852011901361,-0.19629636318595406],[0.19814816434626226,-0.19351852885274975],[0.21157409047225006,-0.19259260291302646],[0.21805557205031315,-0.19166673348733756],[0.22546297956809955,-0.19166673348733756],[0.2375000167845024,-0.19166673348733756],[0.24768520212145867,-0.18981482509385655],[0.2541666836995218,-0.18888889915413326],[0.2611111282474465,-0.18842593618427161],[0.26574075794606294,-0.18842593618427161],[0.2694444617049562,-0.18657408430482503],[0.27407409140357264,-0.18611112133496338],[0.2768518692227425,-0.1851851953952401],[0.27824075813232746,-0.1851851953952401],[0.2810185359514974,-0.1851851953952401],[0.28148149892135904,-0.1851851953952401],[0.2837963137706673,-0.1851851953952401],[0.2851852026802522,-0.1851851953952401],[0.28564816565011386,-0.1851851953952401],[0.28564816565011386,-0.1851851953952401],[0.2861111286199755,-0.1851851953952401],[0.2861111286199755,-0.18472228893941284],[0.2861111286199755,-0.18379630648565512],[0.2861111286199755,-0.18333334351579347],[0.2861111286199755,-0.18287038054593183],[0.2861111286199755,-0.18194445460620853]]]",2,"[60,43]",space,5.30888,space,1.269785,0,3,3,4,1,left_2.jpg,left_2_path.jpg,,,,,,,,,,,,,,,,
Image_List_5,,,,,,,,,,,,,,,,43992,2020-11-12_13h38.57.772,analogCatScenes,2020.1.3,Win32,60,"[1536,864]","[[[-0.000462893210350625,-0.20138889934039778],[-0.000462893210350625,-0.20138889934039778],[-0.000462893210350625,-0.20138889934039778],[-0.000462893210350625,-0.20138889934039778],[-0.000462893210350625,-0.20138889934039778],[-0.000462893210350625,-0.20138889934039778],[-0.000462893210350625,-0.20138889934039778],[-0.000462893210350625,-0.20138889934039778],[-0.000462893210350625,-0.20138889934039778],[-0.000462893210350625,-0.20138889934039778],[-0.0023148016038316266,-0.17638889896786875],[-0.012499986940787898,-0.11203704615709958],[-0.017129616639404384,-0.08518519390512395],[-0.018981412004816574,-0.06990741589968955],[-0.02222220930788252,-0.053703711954531844],[-0.024537024157190765,-0.03796297097923579],[-0.024537024157190765,-0.031944452371034354],[-0.024537024157190765,-0.025925933762832924],[-0.024537024157190765,-0.015277785456015004],[-0.024537024157190765,-0.00601852605878203],[-0.02546295009691406,0.0004629555192810518],[-0.025925856552741305,0.005092585217897539],[-0.02685183900649901,0.00787036303706743],[-0.027314801976360655,0.01203702976582227],[-0.02824067140204955,0.018981474313747],[-0.02824067140204955,0.025462955891810083],[-0.029166653855807252,0.03287036340959646],[-0.029166653855807252,0.0370370301383513],[-0.029166653855807252,0.04490740062599933],[-0.029166653855807252,0.04675925250544592],[-0.029166653855807252,0.05046295626433911],[-0.029166653855807252,0.053240734083509],[-0.029166653855807252,0.0560185119026789],[-0.029166653855807252,0.057407400812263844],[-0.029166653855807252,0.06018517863143374],[-0.0296296168256689,0.06435184536018858],[-0.030555486251357792,0.0694444380286667],[-0.030555486251357792,0.0740740677272832],[-0.030555486251357792,0.0768518455464531],[-0.031018505735253846,0.07962962336562297],[-0.031018505735253846,0.08101851227520793],[-0.031018505735253846,0.08240737292777567],[-0.031018505735253846,0.08333332712451617],[-0.031018505735253846,0.08425925306423947],[-0.031018505735253846,0.08472218777708392],[-0.031018505735253846,0.08564814197382441],[-0.031018505735253846,0.08564814197382441],[-0.031018505735253846,0.08564814197382441]],[[0.003240754034508158,-0.20370371418970604],[0.003240754034508158,-0.20370371418970604],[0.003240754034508158,-0.20370371418970604],[0.003240754034508158,-0.20370371418970604],[0.003240754034508158,-0.20370371418970604],[0.003240754034508158,-0.20370371418970604],[0.003240754034508158,-0.20370371418970604],[0.003240754034508158,-0.20370371418970604],[0.003240754034508158,-0.20370371418970604],[0.01620371719063432,-0.20370371418970604],[0.04861112508094973,-0.20416667715956768],[0.08101853297126514,-0.20694445497873756],[0.12037038540950527,-0.2074074179485992],[0.12870371886701495,-0.20648149200887592],[0.14074075608341782,-0.20462964012942933],[0.1527777932998207,-0.20277778824998272],[0.17129631209428664,-0.19907408449108954],[0.18657409009972103,-0.1949074177623347],[0.19907409028598555,-0.19212963994316481],[0.2078703867133569,-0.18888889915413326],[0.22268520174892964,-0.18379630648565512],[0.23333335005574757,-0.18101852866648524],[0.239351868663949,-0.178703713817177],[0.25231483182007514,-0.1703703803596673],[0.264351869036478,-0.1587963061131261],[0.27407409140357264,-0.14907408374603148],[0.2800926100117741,-0.1425926021679684],[0.2851852026802522,-0.13657408355976697],[0.2888889064391454,-0.12962963901184224],[0.290740758318592,-0.12685191770670676],[0.2912037212884537,-0.1254629722830874],[0.29212964722817697,-0.12407408337350245],[0.2925926101980386,-0.1226851944639175],[0.2935185361377619,-0.12037037961460927],[0.29490742504734685,-0.11759265830947377],[0.29490742504734685,-0.11481482397626948],[0.2953703880172085,-0.11342593506668452],[0.2953703880172085,-0.11203704615709958],[0.2953703880172085,-0.10972223130779134],[0.2953703880172085,-0.10787037942834475],[0.2962963139569318,-0.10277778675986661],[0.29675927692679344,-0.09907413951500782],[0.29675927692679344,-0.09490741627221858],[0.2976853158945855,-0.09212963845304868],[0.2976853158945855,-0.0884259346941555],[0.2976853158945855,-0.0875000087544322],[0.2976853158945855,-0.08518519390512395],[0.2981481658363784,-0.08333334202567737],[0.2981481658363784,-0.07824074935719923],[0.2981481658363784,-0.07638889747775263],[0.2981481658363784,-0.0740740826284444],[0.2981481658363784,-0.07361111965858275],[0.2981481658363784,-0.0712963048092745],[0.2981481658363784,-0.0703703788695512],[0.29907409177610167,-0.06805556402024296],[0.29907409177610167,-0.06620371214079636],[0.29907409177610167,-0.06481482323121142],[0.29907409177610167,-0.06342593432162646],[0.29907409177610167,-0.06250000838190317],[0.29907409177610167,-0.06157408244217987],[0.29907409177610167,-0.06157408244217987],[0.29907409177610167,-0.06157408244217987],[0.29907409177610167,-0.06157408244217987],[0.29907409177610167,-0.06157408244217987]]]",2,"[48,64]",space,5.387015,space,0.995865,0,4,4,2,1,ahead_right_2.jpg,ahead_right_2_path.jpg,,,,,,,,,,,,,,,,
Image_List_5,,,,,,,,,,,,,,,,43992,2020-11-12_13h38.57.772,analogCatScenes,2020.1.3,Win32,60,"[1536,864]","[[[-0.006481468332586465,-0.19814815855136625],[-0.006481468332586465,-0.19814815855136625],[-0.006481468332586465,-0.19814815855136625],[-0.006481468332586465,-0.19814815855136625],[-0.006481468332586465,-0.19814815855136625],[-0.006481468332586465,-0.19814815855136625],[-0.006481468332586465,-0.19814815855136625],[-0.0037036905134165726,-0.1930555658828881],[0.012037050461879483,-0.15833334314326444],[0.05000001399053468,-0.08009260123664583],[0.06388890308638413,-0.04629630443674547],[0.075925940302787,-0.021759267034078086],[0.08333334782057339,-0.007407414968366976],[0.08657408860960493,0.005555548187759187],[0.09444445909725295,0.024537029952086783],[0.10185186661503932,0.04814814141503087],[0.10787038522324076,0.06111110457115703],[0.11435186680130384,0.08101851227520793],[0.11851853353005869,0.09444443840119573],[0.12870371886701495,0.11296295719566168],[0.1310185337163232,0.11851851283400147],[0.1337963115354931,0.1263888550646323],[0.1384259412341096,0.13749999459832907],[0.1435185339025877,0.15185181840702297],[0.14537038578203432,0.15601851339279502],[0.1462963117217576,0.15972221715168822],[0.14675927469161926,0.1615740690311348],[0.1481481636012042,0.16435184685030468],[0.14953705251078914,0.1671296246694746],[0.15138890439023575,0.16851851357905953],[0.15231483032995904,0.17037033720148892],[0.15601853408885222,0.1749999669001054],[0.15787038596829883,0.1768518470365692],[0.16018520081760707,0.1787036989160158],[0.16203705269705365,0.1805555507954624],[0.16342594160663862,0.18194441144803014],[0.1662037194258085,0.18333332861463228],[0.16759260833539344,0.18425922629733837],[0.16898149724497838,0.18564814346394054],[0.17037038615456335,0.1861111064338022],[0.17037038615456335,0.1861111064338022],[0.1717592750641483,0.1861111064338022],[0.1717592750641483,0.1861111064338022],[0.1717592750641483,0.1861111064338022],[0.17129631209428664,0.1861111064338022]],[[0.0018519216389576184,-0.19259260291302646],[0.0018519216389576184,-0.19259260291302646],[0.0018519216389576184,-0.19259260291302646],[0.0018519216389576184,-0.19259260291302646],[0.0018519216389576184,-0.19259260291302646],[0.0018519216389576184,-0.19259260291302646],[0.0018519216389576184,-0.19259260291302646],[0.0018519216389576184,-0.19259260291302646],[0.0009259391851999142,-0.1902777880637182],[-0.01666659715550833,-0.15000006619978917],[-0.03703702434345528,-0.10925926833792969],[-0.043055542951656714,-0.09629630518180353],[-0.051851839379028035,-0.0856481568749856],[-0.0629628941416732,-0.06018519353259493],[-0.07361109896252553,-0.03240741534089601],[-0.07824072866114201,-0.02037037812449314],[-0.08333332132962015,-0.007870377938228625],[-0.08796295102823663,0.007407400067205782],[-0.09212961775699148,0.024074066982225136],[-0.09629628448574631,0.03842589079091904],[-0.09999993173060509,0.04675925250544592],[-0.10138887715422445,0.051851845173924056],[-0.10370369200353269,0.0550925859629556],[-0.10601850685284094,0.06203703051088033],[-0.10833332170214918,0.06759258614922012],[-0.11157400597714631,0.07592591960672979],[-0.11342591437062731,0.07916666039576133],[-0.11527776625007391,0.08287036415465453],[-0.11759258109938216,0.08657406791354771],[-0.12268517376786028,0.09490740137105738],[-0.13009252477161226,0.10416666076829036],[-0.1351851739541248,0.11064814234635344],[-0.1407407295924646,0.11851851283400147],[-0.14583332226094273,0.1263888550646323],[-0.14999998898969757,0.13240740192985093],[-0.15277776680886745,0.13611110568874413],[-0.1550925816581757,0.1398148094476373],[-0.15740739650748395,0.1444444391462538],[-0.1587962854170689,0.14722218870840648],[-0.15972221135679218,0.14953700355771474],[-0.16018511781261943,0.15138888369417852],[-0.16157406323623877,0.15370369854348678],[-0.16203702620610042,0.15601851339279502],[-0.16296295214582374,0.1569444393325183],[-0.16481474751123593,0.1587962629549477],[-0.16620369293485526,0.1624999949708581],[-0.1675925818444402,0.16435184685030468],[-0.16898147075402517,0.1671296246694746],[-0.1694443772098524,0.16851851357905953],[-0.17083332263347176,0.17083332842836776],[-0.17314813748278,0.17314814327767603],[-0.17361110045264164,0.1749999669001054],[-0.1740740069084689,0.1759259210968459],[-0.1749999893622266,0.1777777729762925],[-0.17546295233208825,0.1787036989160158],[-0.17638882175777712,0.17916666188587746],[-0.1768518412416732,0.17916666188587746],[-0.1768518412416732,0.1796295965987219]]]",2,"[45,58]",space,5.398095,space,1.20631,0,5,5,6,1,right_left_2.jpg,right_left_2_path.jpg,,,,,,,,,,,,,,,,
Image_List_5,,,,,,,,,,,,,,,,43992,2020-11-12_13h38.57.772,analogCatScenes,2020.1.3,Win32,60,"[1536,864]","[[[0.0009259391851999142,-0.2032408077338788],[0.0009259391851999142,-0.2032408077338788],[0.0009259391851999142,-0.2032408077338788],[0.0009259391851999142,-0.2032408077338788],[0.0009259391851999142,-0.2032408077338788],[0.0009259391851999142,-0.2032408077338788],[0.0009259391851999142,-0.2032408077338788],[0.0009259391851999142,-0.20185186231025942],[0.002777791064646509,-0.18750001024454832],[0.008333346702986293,-0.14212963919810676],[0.015277791250911023,-0.0856481568749856],[0.01620371719063432,-0.07314815668872109],[0.01620371719063432,-0.06296297135176482],[0.018055625584115324,-0.05648148977370174],[0.020833346889250808,-0.04212963770799063],[0.021759272828974104,-0.0342592672203426],[0.02268525528273181,-0.03055556346144941],[0.02268525528273181,-0.024537044853247977],[0.02268525528273181,-0.013888896546430059],[0.02314816173855905,-0.006481489028643679],[0.02314816173855905,-7.450580596923828e-9],[0.02314816173855905,0.006481474127482485],[0.02314816173855905,0.013425918675407215],[0.022222235798835754,0.020833326193193596],[0.022222235798835754,0.02592591886167173],[0.022222235798835754,0.03194443746987316],[0.021296309859112458,0.037962956078074594],[0.021296309859112458,0.04351851171641438],[0.021296309859112458,0.05092591923420076],[0.021296309859112458,0.060648141601295384],[0.020370440433423568,0.06805554911908177],[0.020370440433423568,0.07268517881769825],[0.020370440433423568,0.0768518455464531],[0.020370440433423568,0.08333332712451617],[0.020370440433423568,0.09444443840119573],[0.020370440433423568,0.09907406809981223],[0.020370440433423568,0.10277777185870542],[0.020370440433423568,0.10416666076829036],[0.020370440433423568,0.1083333274970452],[0.020370440433423568,0.11481478081809107],[0.020370440433423568,0.12037036471344807],[0.020370440433423568,0.12222221659289466],[0.020370440433423568,0.12499999441206455],[0.020370440433423568,0.12777777223123443],[0.020833346889250808,0.1342592538092975],[0.020833346889250808,0.14166666132708391],[0.020833346889250808,0.14583332805583873],[0.020833346889250808,0.14722218870840648],[0.020833346889250808,0.1490740688448703],[0.020833346889250808,0.15046295775445523],[0.020833346889250808,0.15324073557362514],[0.020833346889250808,0.15601851339279502],[0.020833346889250808,0.15740740230237996],[0.020833346889250808,0.15925925418182654],[0.020833346889250808,0.16111107780425596],[0.020833346889250808,0.16203703200099645],[0.020833346889250808,0.16388888388044304],[0.020833346889250808,0.16388888388044304],[0.01990742094952751,0.16527777279002798],[0.01990742094952751,0.1662036987297513],[0.01990742094952751,0.16759258763933624],[0.01990742094952751,0.16851851357905953],[0.01990742094952751,0.16898147654892118],[0.01990742094952751,0.16898147654892118]]]",1,[64],space,3.431105,space,0.610015,0,6,6,0,1,ahead_2.jpg,ahead_2_path.jpg,,,,,,,,,,,,,,,,
Image_List_5,,,,,,,,,,,,,,,,43992,2020-11-12_13h38.57.772,analogCatScenes,2020.1.3,Win32,60,"[1536,864]","[[[1.3245476616753471e-8,-0.19814815855136625],[1.3245476616753471e-8,-0.19814815855136625],[1.3245476616753471e-8,-0.19814815855136625],[1.3245476616753471e-8,-0.19814815855136625],[1.3245476616753471e-8,-0.19814815855136625],[1.3245476616753471e-8,-0.19814815855136625],[1.3245476616753471e-8,-0.19814815855136625],[1.3245476616753471e-8,-0.19814815855136625],[1.3245476616753471e-8,-0.19814815855136625],[1.3245476616753471e-8,-0.19814815855136625],[1.3245476616753471e-8,-0.19814815855136625],[-0.0069444313024481135,-0.1939815483366458],[-0.012962949910649547,-0.18657408430482503],[-0.017592579609266034,-0.18287038054593183],[-0.019444431488712628,-0.18101852866648524],[-0.02175924633802087,-0.1796296397569003],[-0.02222220930788252,-0.17824075084731536],[-0.024074061187329115,-0.17638889896786875],[-0.02685183900649901,-0.1750000100582838],[-0.02824067140204955,-0.17314821469287162],[-0.030555486251357792,-0.17175926926925225],[-0.03333332058456209,-0.16805556551035908],[-0.034259246524285386,-0.1662037701449469],[-0.03657406137359363,-0.16296297284188094],[-0.03981474564859076,-0.1597222320528494],[-0.04351850592151836,-0.1569445107477139],[-0.04490739483110331,-0.15509260235423292],[-0.046296283740688254,-0.15324075047478633],[-0.04814813562013485,-0.15185186156520136],[-0.05092591343930474,-0.14907408374603148],[-0.052777765318751335,-0.1472222318665849],[-0.052777765318751335,-0.1472222318665849],[-0.05416665422833628,-0.14490741701727664],[-0.05555554313792123,-0.144444454047415],[-0.05555554313792123,-0.144444454047415],[-0.05601844959374847,-0.1435185281076917],[-0.05601844959374847,-0.1435185281076917],[-0.05601844959374847,-0.1435185281076917]],[[0.00972223561257124,-0.20277778824998272],[0.00972223561257124,-0.20277778824998272],[0.00972223561257124,-0.20277778824998272],[0.00972223561257124,-0.20277778824998272],[0.00972223561257124,-0.20277778824998272],[0.00972223561257124,-0.20277778824998272],[0.00972223561257124,-0.20277778824998272],[0.00972223561257124,-0.20277778824998272],[0.00972223561257124,-0.20277778824998272],[0.00972223561257124,-0.20277778824998272],[0.00972223561257124,-0.20277778824998272],[0.00972223561257124,-0.20277778824998272],[0.012037050461879483,-0.20277778824998272],[0.017592606100219267,-0.20231482528012107],[0.024537050648143998,-0.20231482528012107],[0.029166680346760485,-0.20231482528012107],[0.034259329529273026,-0.20231482528012107],[0.038888959227889514,-0.20231482528012107],[0.043055569442609944,-0.20231482528012107],[0.04861112508094973,-0.20231482528012107],[0.05601853259873611,-0.20231482528012107],[0.06250001417679919,-0.20231482528012107],[0.07129631060417052,-0.20231482528012107],[0.0787037181219569,-0.20231482528012107],[0.08287038485071173,-0.20138889934039778],[0.08935186642877481,-0.20138889934039778],[0.09722223691642284,-0.20138889934039778],[0.10277779255476263,-0.20138889934039778],[0.10740742225337911,-0.20138889934039778],[0.10925927413282571,-0.20138889934039778],[0.11342594086158055,-0.20138889934039778],[0.11712964462047373,-0.20185186231025942],[0.12083334837936693,-0.20185186231025942],[0.12314816322867517,-0.20231482528012107],[0.12685186698756837,-0.20231482528012107],[0.1282407558971533,-0.20231482528012107],[0.1300926077765999,-0.20231482528012107],[0.13148149668618483,-0.20231482528012107],[0.13333334856563145,-0.20231482528012107],[0.1347222374752164,-0.20231482528012107],[0.13518520044507804,-0.20231482528012107],[0.13611112638480133,-0.20231482528012107],[0.13657408935466298,-0.20231482528012107],[0.13657408935466298,-0.20231482528012107],[0.13657408935466298,-0.20231482528012107],[0.13564816341493968,-0.20231482528012107]],[[-0.0097221526075836,-0.20231482528012107],[-0.0097221526075836,-0.20231482528012107],[-0.0097221526075836,-0.20231482528012107],[-0.0097221526075836,-0.20231482528012107],[-0.0097221526075836,-0.20231482528012107],[-0.0097221526075836,-0.20231482528012107],[-0.0097221526075836,-0.20231482528012107],[-0.0097221526075836,-0.20231482528012107],[-0.014351782306200087,-0.20231482528012107],[-0.024074061187329115,-0.20138889934039778],[-0.03703702434345528,-0.20000001043081284],[-0.07453696838821441,-0.1939815483366458],[-0.10046295121450115,-0.18796297321440997],[-0.11527776625007391,-0.1851851953952401],[-0.13379628504453986,-0.18101852866648524],[-0.15740739650748395,-0.17314821469287162],[-0.1768518412416732,-0.16990741738980566],[-0.1884259154882144,-0.16805556551035908],[-0.2064814147987843,-0.16435186175146588],[-0.21990739743880652,-0.1625000098720193],[-0.2263888790168696,-0.1625000098720193],[-0.23148147168534774,-0.1625000098720193],[-0.23564813841410256,-0.1625000098720193],[-0.24675924969078214,-0.1615741404463304],[-0.2523148053291219,-0.16111112096243435],[-0.25833332393732333,-0.16111112096243435],[-0.2671296203646947,-0.16111112096243435],[-0.2787036946112359,-0.16111112096243435],[-0.2861111021290223,-0.16018519502271106],[-0.29166665776736206,-0.15925932559702216],[-0.29444437907249754,-0.15925932559702216],[-0.2986111023152868,-0.1578703801734028],[-0.30092591716459505,-0.1578703801734028],[-0.30185184310431834,-0.1578703801734028],[-0.3041666579536266,-0.1578703801734028],[-0.30601850983307316,-0.1569445107477139],[-0.3064814728029348,-0.1569445107477139],[-0.3083333246823814,-0.15648149126381786],[-0.30879628765224304,-0.15648149126381786]]]",3,"[38,46,39]",,,,,,,,,,,,space,10.16702,ATM4.jpg,space,5.98336,0,0,0,10,1,backstage2.jpg,barbershop3.jpg,ballroom4.jpg,basketballcourt3.jpg,,
Image_List_5,,,,,,,,,,,,,,,,43992,2020-11-12_13h38.57.772,analogCatScenes,2020.1.3,Win32,60,"[1536,864]","[[[0.0018519216389576184,-0.19814815855136625],[0.0018519216389576184,-0.19814815855136625],[0.0018519216389576184,-0.19814815855136625],[0.0018519216389576184,-0.19814815855136625],[0.0018519216389576184,-0.19814815855136625],[0.0018519216389576184,-0.19814815855136625],[0.0018519216389576184,-0.19814815855136625],[0.0018519216389576184,-0.19814815855136625],[0.003703717004369806,-0.1986111780352623],[0.00879636618688235,-0.1995370474609512],[0.012500013431741131,-0.1995370474609512],[0.0236111247084207,-0.20046297340067448],[0.0425926064727483,-0.20138889934039778],[0.06574075496583073,-0.20092599288457055],[0.07407408842334041,-0.20000001043081284],[0.08842594048905152,-0.1976851955815046],[0.10925927413282571,-0.19537038073219634],[0.13703705232452462,-0.18888889915413326],[0.14675927469161926,-0.18703710378872107],[0.15509260814912892,-0.1851851953952401],[0.1662037194258085,-0.1805555656966236],[0.1814814974312429,-0.1750000100582838],[0.19907409028598555,-0.16342593581174258],[0.2185185350201748,-0.14861112077616984],[0.23425927599547086,-0.1342592687104587],[0.24675927618173538,-0.1226851944639175],[0.25370372072966013,-0.11574074991599277],[0.2574074244885533,-0.11342593506668452],[0.26064816527758483,-0.10972223130779134],[0.2666666838857863,-0.10416667566945155],[0.2726852024939877,-0.09907413951500782],[0.2759259432830192,-0.09675932466569959],[0.2819444618912207,-0.09166667548318704],[0.28564816565011386,-0.08796297172429385],[0.2861111286199755,-0.0875000087544322],[0.2888889064391454,-0.08472223093526231],[0.2902777953487303,-0.08240741608595406],[0.29398149910762356,-0.07731482341747593],[0.2972222398966551,-0.0740740826284444],[0.29861112880624,-0.07222223074899779],[0.2995370547459633,-0.0703703788695512],[0.30185186959527155,-0.06759260105038131],[0.3032407585048565,-0.06481482323121142],[0.3046297604425103,-0.06342593432162646],[0.3055555733541648,-0.06157408244217987],[0.307870388203473,-0.05925926759287163],[0.30833335117333466,-0.058796304623009985],[0.30925939014112674,-0.057870378683286684],[0.3097222400829196,-0.05740741571342504],[0.31018520305278124,-0.056944452743563384],[0.31111112899250454,-0.05601852680384009],[0.31111112899250454,-0.05601852680384009],[0.31111112899250454,-0.05601852680384009],[0.31111112899250454,-0.05601852680384009],[0.31111112899250454,-0.05601852680384009],[0.31111112899250454,-0.05601852680384009],[0.31111112899250454,-0.05601852680384009],[0.31111112899250454,-0.05601852680384009],[0.31111112899250454,-0.05601852680384009],[0.31111112899250454,-0.05601852680384009]]]",1,[60],,,,,,,,,,,,,,checkoutcounter9.jpg,space,3.571565,0,1,1,36,1,diner14.jpg,dormroom9.jpg,dining_car3.jpg,doctor1.jpg,,
Image_List_5,,,,,,,,,,,,,,,,43992,2020-11-12_13h38.57.772,analogCatScenes,2020.1.3,Win32,60,"[1536,864]","[[[0.0018519216389576184,-0.20185186231025942],[0.003240754034508158,-0.20185186231025942],[0.00601853185367805,-0.20185186231025942],[0.00879636618688235,-0.20185186231025942],[0.012037050461879483,-0.20185186231025942],[0.014814828281049375,-0.20185186231025942],[0.018055625584115324,-0.20185186231025942],[0.021296309859112458,-0.20138889934039778],[0.025462976587867295,-0.20046297340067448],[0.02824075440703719,-0.20046297340067448],[0.031944514679964786,-0.20046297340067448],[0.036111124894685216,-0.20046297340067448],[0.0407407545933017,-0.1995370474609512],[0.04212964350288665,-0.1995370474609512],[0.046296310231641484,-0.19907408449108954],[0.04768519914122643,-0.19814815855136625],[0.049537051020673024,-0.19814815855136625],[0.05092593993025797,-0.19814815855136625],[0.051388902900119625,-0.19814815855136625],[0.052777848323738975,-0.1976851955815046],[0.05416668071928951,-0.1976851955815046],[0.05509266317304722,-0.1976851955815046],[0.05555556962887446,-0.1976851955815046],[0.05555556962887446,-0.1976851955815046],[0.05555556962887446,-0.1976851955815046],[0.05555556962887446,-0.1976851955815046],[0.05555556962887446,-0.1976851955815046],[0.05555556962887446,-0.1976851955815046],[0.05555556962887446,-0.1976851955815046],[0.05555556962887446,-0.1976851955815046],[0.05555556962887446,-0.1976851955815046]],[[-0.001851838633969978,-0.1939815483366458],[-0.001851838633969978,-0.1939815483366458],[-0.001851838633969978,-0.1939815483366458],[-0.001851838633969978,-0.1939815483366458],[-0.001851838633969978,-0.1939815483366458],[-0.001851838633969978,-0.1939815483366458],[-0.001851838633969978,-0.1939815483366458],[-0.001851838633969978,-0.1939815483366458],[-0.001851838633969978,-0.1939815483366458],[-0.001851838633969978,-0.1939815483366458],[-0.001851838633969978,-0.1986111780352623],[-0.001851838633969978,-0.20972223279790747],[-0.001851838633969978,-0.21342593655680064],[-0.001851838633969978,-0.21805556625541714],[-0.001851838633969978,-0.22175932652834474],[-0.0009259126942466806,-0.22453704783348022],[-0.000462893210350625,-0.22638895622696123],[-0.000462893210350625,-0.22777778862251175],[-0.000462893210350625,-0.22962964050195836],[0.00046297621533826543,-0.2319444553512666],[0.00046297621533826543,-0.2328703812909899],[0.00046297621533826543,-0.23425927020057483],[0.0009259391851999142,-0.2356482156241942],[0.0009259391851999142,-0.23703704801974473],[0.0018519216389576184,-0.23842593692932967],[0.0018519216389576184,-0.23842593692932967],[0.0018519216389576184,-0.23888889989919132],[0.0018519216389576184,-0.2398148258389146],[0.0018519216389576184,-0.24074075177863793],[0.0018519216389576184,-0.24074075177863793],[0.0018519216389576184,-0.24166667771836123],[0.0018519216389576184,-0.24166667771836123],[0.0018519216389576184,-0.24166667771836123],[0.0018519216389576184,-0.24166667771836123],[0.0018519216389576184,-0.24166667771836123]]]",2,"[31,35]",,,,,,,,,,,,,,observatory1.jpg,space,5.145845,0,2,2,78,1,parkinglot3.jpg,poolhall1.jpg,pier5.jpg,pavilion3.jpg,,
Image_List_5,,,,,,,,,,,,,,,,43992,2020-11-12_13h38.57.772,analogCatScenes,2020.1.3,Win32,60,"[1536,864]","[[[1.3245476616753471e-8,-0.20370371418970604],[1.3245476616753471e-8,-0.20370371418970604],[1.3245476616753471e-8,-0.20370371418970604],[1.3245476616753471e-8,-0.20370371418970604],[1.3245476616753471e-8,-0.20370371418970604],[1.3245476616753471e-8,-0.20370371418970604],[1.3245476616753471e-8,-0.20370371418970604],[0.002777791064646509,-0.2032408077338788],[0.03101853222620708,-0.1976851955815046],[0.06250001417679919,-0.1930555658828881],[0.08009260703154185,-0.19074075103357988],[0.09814816285614614,-0.18750001024454832],[0.1129629778917189,-0.18333334351579347],[0.12500001510812175,-0.1805555656966236],[0.13750001529438627,-0.1777778443914881],[0.1425926079628644,-0.1768518619377304],[0.15462964517926728,-0.1750000100582838],[0.16296297863677697,-0.17268519520897557],[0.17407408991345652,-0.16990741738980566],[0.18379631228055116,-0.16805556551035908],[0.19259260870792247,-0.16527778769118917],[0.19814816434626226,-0.16296297284188094],[0.20277779404487875,-0.16296297284188094],[0.20740742374349525,-0.16203704690215764],[0.21064816453252677,-0.1615741404463304],[0.21435186829141997,-0.1606481579925727],[0.21481483126128162,-0.16018519502271106],[0.21712964611058985,-0.16018519502271106],[0.21898149799003644,-0.15925932559702216],[0.2203703868996214,-0.15925932559702216],[0.22083334986948305,-0.1587963061131261],[0.22083334986948305,-0.1587963061131261],[0.22083334986948305,-0.1578703801734028]],[[0.0018519216389576184,-0.19814815855136625],[0.0018519216389576184,-0.19814815855136625],[0.0018519216389576184,-0.19814815855136625],[0.0018519216389576184,-0.19814815855136625],[0.0018519216389576184,-0.19814815855136625],[0.0018519216389576184,-0.19814815855136625],[0.0018519216389576184,-0.19814815855136625],[0.0018519216389576184,-0.19814815855136625],[0.0018519216389576184,-0.19814815855136625],[0.006481551337574105,-0.19629636318595406],[0.013425995885498835,-0.1930555658828881],[0.01620371719063432,-0.19166673348733756],[0.018518532039942564,-0.18935191863802933],[0.0236111247084207,-0.18703710378872107],[0.029166680346760485,-0.18287038054593183],[0.03101853222620708,-0.1814814916363469],[0.032870384105653676,-0.1796296397569003],[0.03472223598510027,-0.1777778443914881],[0.03657414437858127,-0.1759259359980071],[0.03796297677413181,-0.1740740841185605],[0.03935186568371676,-0.1712963062993906],[0.0407407545933017,-0.16851858499425512],[0.04212964350288665,-0.16527778769118917],[0.043518588926506,-0.1625000098720193],[0.043518588926506,-0.16111112096243435],[0.043981495382333244,-0.15740741720354115],[0.044907421322056544,-0.15231488104909743],[0.04537038429191819,-0.1481481578063082],[0.04537038429191819,-0.1453704365011727],[0.04537038429191819,-0.14305562165186445],[0.04537038429191819,-0.1398148243487985],[0.04537038429191819,-0.13842599195324798],[0.044907421322056544,-0.13564815762004367],[0.043981495382333244,-0.13287037980087377],[0.04212964350288665,-0.129166732556015],[0.04120377407719776,-0.12777778713239563],[0.0398148286535784,-0.12500000931322575],[0.038425939743993456,-0.12129630555433256],[0.036111124894685216,-0.11712963882557771],[0.03564816192482357,-0.11481482397626948],[0.034259329529273026,-0.11342593506668452],[0.032870384105653676,-0.11064821376154904],[0.03101853222620708,-0.1064814905187598],[0.030092606286483782,-0.10092593488042001],[0.02824075440703719,-0.09583334221194188],[0.02777779143717554,-0.09074074954346374],[0.02685186549745224,-0.08611111984484726],[0.025925939557728945,-0.07962963826678417],[0.025925939557728945,-0.07592593450789098],[0.025925939557728945,-0.07314815668872109],[0.025925939557728945,-0.07083334183941285],[0.025462976587867295,-0.0685185269901046],[0.024537050648143998,-0.06527778620107307],[0.024537050648143998,-0.06342593432162646],[0.024074087678282348,-0.06018519353259493],[0.02314816173855905,-0.057870378683286684],[0.02268525528273181,-0.05648148977370174],[0.02268525528273181,-0.05509260086411679],[0.02268525528273181,-0.054629637894255144],[0.02268525528273181,-0.054629637894255144],[0.02268525528273181,-0.054629637894255144],[0.02268525528273181,-0.054629637894255144]],[[0.004166736488265862,-0.20231482528012107],[0.004166736488265862,-0.20231482528012107],[0.004166736488265862,-0.20231482528012107],[0.004166736488265862,-0.20231482528012107],[0.004166736488265862,-0.20231482528012107],[0.004166736488265862,-0.20231482528012107],[0.004166736488265862,-0.20231482528012107],[-0.005092522908967112,-0.21620371437597055],[-0.024074061187329115,-0.24027784532281068],[-0.02638887603663736,-0.24212964068822287],[-0.03148146870511549,-0.2481481592964243],[-0.11481480328021226,-0.24861112226628596],[-0.11666665515965885,-0.24768519632656266],[-0.1189814700089671,-0.2462963074169777],[-0.11990739594869039,-0.2462963074169777],[-0.12083326537437929,-0.24583334444711605],[-0.12129628485827534,-0.24583334444711605],[-0.12129628485827534,-0.24583334444711605],[-0.12129628485827534,-0.24583334444711605],[-0.12129628485827534,-0.24583334444711605],[-0.12129628485827534,-0.24583334444711605],[-0.12129628485827534,-0.24583334444711605],[-0.12037035891855205,-0.24583334444711605],[-0.12037035891855205,-0.24583334444711605],[-0.12037035891855205,-0.24583334444711605],[-0.11990739594869039,-0.24583334444711605],[-0.11990739594869039,-0.24583334444711605],[-0.11990739594869039,-0.24583334444711605],[-0.11990739594869039,-0.24583334444711605],[-0.11990739594869039,-0.24583334444711605],[-0.11990739594869039,-0.24583334444711605],[-0.12222221079799864,-0.24490747502142718],[-0.12407406267744524,-0.2444444555375311],[-0.12916665534592336,-0.24351852959780781],[-0.13472215447022876,-0.24305556662794617],[-0.14027776662260294,-0.24212964068822287],[-0.14398141386746172,-0.24212964068822287],[-0.15092585841538644,-0.24027784532281068],[-0.15462961868831404,-0.2398148258389146],[-0.15925924838693054,-0.23888889989919132],[-0.16157406323623877,-0.23842593692932967],[-0.16435184105540868,-0.23842593692932967],[-0.16805554481430185,-0.2365740850498831],[-0.17175919205916065,-0.23611112208002144],[-0.17638882175777712,-0.2347222331704365],[-0.18333326630570188,-0.2319444553512666],[-0.1912036933073843,-0.23055556644168165],[-0.19490734055224307,-0.22870377107626946],[-0.2018517851001678,-0.22638895622696123],[-0.2101851750717119,-0.22129630704444866],[-0.2138888788306051,-0.21712969682972824],[-0.2180554890453255,-0.212962973586939],[-0.22037030389463375,-0.21157408467735406],[-0.22592591604700796,-0.20694445497873756],[-0.22870369386617784,-0.2032408077338788],[-0.23287036059493268,-0.20000001043081284],[-0.23657400783979146,-0.19629636318595406],[-0.24027776811271906,-0.19166673348733756],[-0.2407407310825807,-0.1902777880637182],[-0.24398147187161226,-0.18657408430482503],[-0.24675924969078214,-0.18333334351579347],[-0.2472222126606438,-0.1796296397569003],[-0.24861110157022873,-0.17638889896786875],[-0.2518518423592603,-0.16759260254049743],[-0.2532407312688452,-0.16018519502271106],[-0.2532407312688452,-0.15648149126381786],[-0.2532407312688452,-0.15370371344464798],[-0.2532407312688452,-0.15138889859533972],[-0.2532407312688452,-0.15000006619978917],[-0.25370369423870687,-0.14907408374603148],[-0.25370369423870687,-0.14768525135048094],[-0.25370369423870687,-0.1472222318665849],[-0.25370369423870687,-0.14675926889672322]]]",3,"[33,62,73]",,,,,,,,,,,,,,clothingstore3.jpg,space,7.240075,0,3,3,40,1,drycleaners4.jpg,farm1.jpg,drymountains.jpg,dugout1.jpg,,
Image_List_5,,,,,,,,,,,,,,,,43992,2020-11-12_13h38.57.772,analogCatScenes,2020.1.3,Win32,60,"[1536,864]","[[[0.0018519216389576184,-0.19537038073219634],[0.0018519216389576184,-0.19537038073219634],[0.0018519216389576184,-0.19537038073219634],[0.0018519216389576184,-0.19537038073219634],[0.0018519216389576184,-0.19537038073219634],[0.0018519216389576184,-0.19537038073219634],[-0.0027777080596588684,-0.1902777880637182],[-0.0097221526075836,-0.1824074740901046],[-0.0296296168256689,-0.16481482472132752],[-0.046296283740688254,-0.15277778750492466],[-0.05555554313792123,-0.14490741701727664],[-0.06064807929236496,-0.14120371325838346],[-0.06666665441460079,-0.13518519465018203],[-0.07407406193238718,-0.12731482416253398],[-0.08379622778544739,-0.11805556476530102],[-0.08981480290768323,-0.11111112021737629],[-0.09490739557616136,-0.10509260160917486],[-0.09861109933505456,-0.10000000894069672],[-0.10509258091311764,-0.09212963845304868],[-0.10925919112783807,-0.08472223093526231],[-0.11435184031035062,-0.07685186044761429],[-0.12037035891855205,-0.0685185269901046],[-0.12361109970758359,-0.06250000838190317],[-0.12731480346647678,-0.05740741571342504],[-0.1305555442555083,-0.05277778601480855],[-0.13472215447022876,-0.047685193346330416],[-0.1379629517732947,-0.04398148958743722],[-0.1407407295924646,-0.040277785828544035],[-0.14490739632121943,-0.0342592672203426],[-0.14814813711025096,-0.029629637521726114],[-0.15046295195955922,-0.024537044853247977],[-0.15277776680886745,-0.021759267034078086],[-0.15555548811400294,-0.01990741515463149],[-0.1569444335376223,-0.016203711395738302],[-0.15740739650748395,-0.014814822486153355],[-0.1587962854170689,-0.01296297060670676],[-0.16018511781261943,-0.011111118727260165],[-0.16203702620610042,-0.008333340908090273],[-0.16388887808554703,-0.006944451998505328],[-0.16527776699513197,-0.004629637149197084],[-0.16574072996499362,-0.004166674179335435],[-0.1675925818444402,-0.002777785269750489],[-0.1675925818444402,-0.0018518593300271917],[-0.1675925818444402,-0.0018518593300271917],[-0.16712956236054416,-0.0023148222998888406],[-0.16620369293485526,-0.002777785269750489],[-0.16574072996499362,-0.0037037112094737866]],[[0.002777791064646509,-0.20000001043081284],[0.002777791064646509,-0.20000001043081284],[0.002777791064646509,-0.20000001043081284],[0.002777791064646509,-0.20000001043081284],[0.002777791064646509,-0.20000001043081284],[0.002777791064646509,-0.20000001043081284],[0.002777791064646509,-0.20000001043081284],[0.002777791064646509,-0.20000001043081284],[0.002777791064646509,-0.20000001043081284],[0.002777791064646509,-0.1939815483366458],[0.006481551337574105,-0.18101852866648524],[0.01620371719063432,-0.15324075047478633],[0.02314816173855905,-0.12731482416253398],[0.029166680346760485,-0.1083333989122408],[0.031944514679964786,-0.10324074972972826],[0.034259329529273026,-0.09675932466569959],[0.03703705083440851,-0.08657408281470891],[0.04027779162344006,-0.07962963826678417],[0.04120377407719776,-0.07314815668872109],[0.0425926064727483,-0.06574074917093471],[0.04537038429191819,-0.057870378683286684],[0.04768519914122643,-0.051388897105223603],[0.049537051020673024,-0.04490741552716052],[0.05185186586998127,-0.03888889691895909],[0.053703717749427865,-0.03148148940117271],[0.05648149556859776,-0.02083334109435479],[0.0597222363576293,-0.013888896546430059],[0.06203705120693754,-0.009259266847813571],[0.06435186605624578,-0.0037037112094737866],[0.06712964387541567,0.0037036963083125927],[0.06944445872472392,0.008333326006929079],[0.06944445872472392,0.011111103826098971],[0.07037038466444721,0.014814807584992162],[0.07175927357403217,0.019907400253470296],[0.07407408842334041,0.024999992921948433],[0.07500001436306371,0.027777770741118327],[0.07546297733292535,0.02962962262056492],[0.075925940302787,0.031018511530149867],[0.07824075515209525,0.03287036340959646],[0.0787037181219569,0.034722215289043054],[0.07962964406168019,0.0370370301383513],[0.08101853297126514,0.03842589079091904],[0.08148149594112679,0.038888882017797895],[0.08240742188085008,0.03981480795752119],[0.08240742188085008,0.03981480795752119],[0.08287038485071173,0.04074070564022728],[0.08287038485071173,0.04074070564022728],[0.08287038485071173,0.04074070564022728],[0.08287038485071173,0.04074070564022728],[0.08287038485071173,0.04074070564022728]]]",2,"[47,50]",,,,,,,,,,,,,,homegarage2.jpg,space,5.338285,0,4,4,64,1,igloo2.jpg,newsstand5.jpg,jewelrystore8.jpg,lab5.jpg,,
Image_List_5,,,,,,,,,,,,,,,,43992,2020-11-12_13h38.57.772,analogCatScenes,2020.1.3,Win32,60,"[1536,864]","[[[0.00231482809478486,-0.2032408077338788],[0.00231482809478486,-0.2032408077338788],[0.00231482809478486,-0.2032408077338788],[0.00231482809478486,-0.2032408077338788],[0.00231482809478486,-0.2032408077338788],[0.00231482809478486,-0.2032408077338788],[0.00231482809478486,-0.2032408077338788],[0.00231482809478486,-0.2032408077338788],[0.00231482809478486,-0.2032408077338788],[0.00231482809478486,-0.2032408077338788],[1.3245476616753471e-8,-0.20046297340067448],[-0.0027777080596588684,-0.19629636318595406],[-0.006018505362724817,-0.19166673348733756],[-0.010648135061341303,-0.18472228893941284],[-0.01666659715550833,-0.17546302954217985],[-0.02222220930788252,-0.16388895529563866],[-0.029166653855807252,-0.15231488104909743],[-0.034259246524285386,-0.14305562165186445],[-0.03749993079928252,-0.13750000949949026],[-0.04074072810234847,-0.1342592687104587],[-0.04398146889138001,-0.12870371307211895],[-0.0476851726502732,-0.1236111204036408],[-0.052777765318751335,-0.11388889803654617],[-0.05555554313792123,-0.10972223130779134],[-0.05972220986667606,-0.10231482379000496],[-0.06388887659543091,-0.09629630518180353],[-0.06898146926390904,-0.08657408281470891],[-0.07407406193238718,-0.08009260123664583],[-0.07731480272141872,-0.0740740826284444],[-0.08055554351045026,-0.0694444529298279],[-0.0856481361789284,-0.06064815650245658],[-0.08888887696795994,-0.0541666749243935],[-0.09166665478712982,-0.04953704522577701],[-0.09444443260629971,-0.04490741552716052],[-0.09675924745560796,-0.04074074879840568],[-0.09722221042546961,-0.03981482285868238],[-0.09722221042546961,-0.03796297097923579],[-0.09861109933505456,-0.03750000800937414],[-0.09861109933505456,-0.03657408206965084],[-0.09861109933505456,-0.036111119099789195],[-0.09861109933505456,-0.036111119099789195],[-0.09861109933505456,-0.036111119099789195],[-0.09861109933505456,-0.036111119099789195],[-0.09861109933505456,-0.036111119099789195],[-0.09861109933505456,-0.036111119099789195],[-0.09861109933505456,-0.036111119099789195]]]",1,[46],,,,,,,,,,,,,,dentist2.jpg,space,2.789925,0,5,5,41,1,dugout4.jpg,farm3.jpg,drymountains3.jpg,fabricstore1.jpg,,
Image_List_5,,,,,,,,,,,,,,,,43992,2020-11-12_13h38.57.772,analogCatScenes,2020.1.3,Win32,60,"[1536,864]","[[[-0.0041666534832782215,-0.195833343702058],[-0.0041666534832782215,-0.195833343702058],[-0.0041666534832782215,-0.195833343702058],[-0.0041666534832782215,-0.195833343702058],[-0.0041666534832782215,-0.195833343702058],[-0.0041666534832782215,-0.195833343702058],[-0.0041666534832782215,-0.195833343702058],[-0.0041666534832782215,-0.195833343702058],[-0.0041666534832782215,-0.195833343702058],[0.0013889021550615628,-0.19166673348733756],[0.0055555688838164015,-0.18703710378872107],[0.012500013431741131,-0.17916667678703865],[0.021296309859112458,-0.16574075066105085],[0.025925939557728945,-0.1569445107477139],[0.029166680346760485,-0.14953704671589313],[0.031944514679964786,-0.1416666762282451],[0.035185198954961916,-0.13148154740532322],[0.03657414437858127,-0.12731482416253398],[0.03750001380427016,-0.12222228800809026],[0.038888959227889514,-0.11574074991599277],[0.0398148286535784,-0.10787037942834475],[0.0407407545933017,-0.10324074972972826],[0.041666680533025,-0.09907413951500782],[0.041666680533025,-0.09398149033249528],[0.041666680533025,-0.0884259346941555],[0.041666680533025,-0.07962963826678417],[0.041666680533025,-0.07546297153802933],[0.04120377407719776,-0.06805556402024296],[0.04027779162344006,-0.05972223056273328],[0.03935186568371676,-0.047685193346330416],[0.038425939743993456,-0.040277785828544035],[0.03703705083440851,-0.0342592672203426],[0.03703705083440851,-0.03055556346144941],[0.03472223598510027,-0.02083334109435479],[0.03148149519606873,-0.009259266847813571],[0.030092606286483782,-0.0018518593300271917],[0.029166680346760485,0.002777770368589295],[0.02824075440703719,0.005555548187759187],[0.02777779143717554,0.010648140856237323],[0.025925939557728945,0.01620369649457711],[0.024537050648143998,0.021759252132916893],[0.0236111247084207,0.028703696680841623],[0.022222235798835754,0.03194443746987316],[0.021296309859112458,0.03749999310821295],[0.01990742094952751,0.04305552048953553],[0.018055625584115324,0.049537030324615816],[0.017592606100219267,0.052314779886768505],[0.01666668016049597,0.05370369705337065],[0.01620371719063432,0.05555554893281725],[0.015277791250911023,0.05833332675198714],[0.014814828281049375,0.059722215661572084],[0.014351865311187727,0.06111110457115703],[0.013425995885498835,0.06296295645060362],[0.013425995885498835,0.06342591942046527],[0.013425995885498835,0.06435184536018858],[0.013425995885498835,0.06435184536018858],[0.013425995885498835,0.06481480833005022],[0.013425995885498835,0.06481480833005022]]]",1,[58],,,,,,,,,,,,,,forestpath2.jpg,space,2.6764,0,6,6,52,1,gasstation7.jpg,hardwarestore1.jpg,frontFoyer6.jpg,highway.jpg,,
Image_List_5,,,,,,,,,,,,,,,,43992,2020-11-12_13h38.57.772,analogCatScenes,2020.1.3,Win32,60,"[1536,864]","[[[0.002777791064646509,-0.20185186231025942],[0.002777791064646509,-0.20185186231025942],[0.002777791064646509,-0.20185186231025942],[0.002777791064646509,-0.20185186231025942],[0.002777791064646509,-0.20185186231025942],[0.002777791064646509,-0.20185186231025942],[0.004629642944093104,-0.1976851955815046],[0.007407420763262996,-0.19259260291302646],[0.015277791250911023,-0.17222223223911393],[0.025000070132040055,-0.14768525135048094],[0.02777779143717554,-0.14120371325838346],[0.030092606286483782,-0.13564815762004367],[0.032870384105653676,-0.12453710285739851],[0.03472223598510027,-0.11342593506668452],[0.03472223598510027,-0.10925926833792969],[0.03564816192482357,-0.10231482379000496],[0.036111124894685216,-0.09583334221194188],[0.038425939743993456,-0.0902777865736021],[0.04027779162344006,-0.08333334202567737],[0.04027779162344006,-0.07777778638733758],[0.04212964350288665,-0.0694444529298279],[0.043981495382333244,-0.05925926759287163],[0.047222236171364784,-0.04814815631619206],[0.04814821862512249,-0.04444445255729887],[0.049537051020673024,-0.043518526617575576],[0.049537051020673024,-0.040277785828544035],[0.050463033474430735,-0.03842593394909744],[0.050463033474430735,-0.03657408206965084],[0.051388902900119625,-0.0351851931600659],[0.05185186586998127,-0.0333333412806193],[0.05324075477956622,-0.03240741534089601],[0.05416668071928951,-0.031944452371034354],[0.05416668071928951,-0.031944452371034354],[0.05416668071928951,-0.031944452371034354],[0.05416668071928951,-0.031944452371034354],[0.05416668071928951,-0.032870378310757654]],[[0.0013889021550615628,-0.20416667715956768],[0.0013889021550615628,-0.20416667715956768],[0.0013889021550615628,-0.20416667715956768],[0.0013889021550615628,-0.20416667715956768],[0.0013889021550615628,-0.20416667715956768],[0.0013889021550615628,-0.20416667715956768],[0.0013889021550615628,-0.20416667715956768],[0.0013889021550615628,-0.20416667715956768],[0.0013889021550615628,-0.20416667715956768],[0.0013889021550615628,-0.20416667715956768],[0.0013889021550615628,-0.20416667715956768],[-0.0009259126942466806,-0.20046297340067448],[-0.006018505362724817,-0.1930555658828881],[-0.010185172091479655,-0.18703710378872107],[-0.012962949910649547,-0.1805555656966236],[-0.018981412004816574,-0.1703703803596673],[-0.022685172277744168,-0.1625000098720193],[-0.027314801976360655,-0.15277778750492466],[-0.03148146870511549,-0.1435185281076917],[-0.03333332058456209,-0.13657408355976697],[-0.03472220949414703,-0.1333333427707354],[-0.03796295028317858,-0.12453710285739851],[-0.04074072810234847,-0.11712963882557771],[-0.043055542951656714,-0.11157408318723794],[-0.04444437534720725,-0.1064814905187598],[-0.04583332077082661,-0.10277778675986661],[-0.04814813562013485,-0.10046297191055836],[-0.050462950469443095,-0.09768519409138847],[-0.05555554313792123,-0.09398149033249528],[-0.059259246896814416,-0.09120371251332539],[-0.06111109877626101,-0.0893518606338788],[-0.06527770899098144,-0.08611111984484726],[-0.06805554332418574,-0.08379630499553901],[-0.06990733868959793,-0.08240741608595406],[-0.07314813599266388,-0.07962963826678417],[-0.07546295084197212,-0.07824074935719923],[-0.07916659808683091,-0.07546297153802933],[-0.0828703583597585,-0.0712963048092745],[-0.0856481361789284,-0.06805556402024296],[-0.08796295102823663,-0.06435186026134977],[-0.09074067233337212,-0.061111119472318225],[-0.09305548718268036,-0.05833334165314833],[-0.09583332151588467,-0.05601852680384009],[-0.09768511688129686,-0.053703711954531844],[-0.09953702527477785,-0.051388897105223603],[-0.1009259141843628,-0.05000000819563866],[-0.10462956142922158,-0.04722223037646876],[-0.10509258091311764,-0.04722223037646876],[-0.10694437627852983,-0.04629630443674547],[-0.11018517358159577,-0.04398148958743722],[-0.11203702546104237,-0.04212963770799063],[-0.11249998843090402,-0.04120371176826733],[-0.11527776625007391,-0.039351859888820735],[-0.11666665515965885,-0.03842593394909744],[-0.1180555440692438,-0.03564815612992755],[-0.11990739594869039,-0.0342592672203426],[-0.12129628485827534,-0.03240741534089601],[-0.12268517376786028,-0.03148148940117271],[-0.12407406267744524,-0.029629637521726114],[-0.12546289507299577,-0.02777778564227952],[-0.12685184049661513,-0.026388896732694574],[-0.12870369237606172,-0.024537044853247977],[-0.13009252477161226,-0.023148155943663033],[-0.13101850722536998,-0.021759267034078086],[-0.13287035910481657,-0.02037037812449314],[-0.1333333220746782,-0.02037037812449314],[-0.1333333220746782,-0.01990741515463149],[-0.13472215447022876,-0.018518526245046546],[-0.1351851739541248,-0.018518526245046546],[-0.1351851739541248,-0.018518526245046546],[-0.1351851739541248,-0.018518526245046546],[-0.1351851739541248,-0.018518526245046546],[-0.1351851739541248,-0.018518526245046546],[-0.1351851739541248,-0.018518526245046546],[-0.1351851739541248,-0.018518526245046546],[-0.1351851739541248,-0.018518526245046546]]]",2,"[36,76]",,,,,,,,,,,,,,cabin3.jpg,space,5.104905,0,7,7,31,1,cubicle4.jpg,desertvegetation6.jpg,conference4.jpg,courtroom2.jpg,,
Image_List_5,,,,,,,,,,,,,,,,43992,2020-11-12_13h38.57.772,analogCatScenes,2020.1.3,Win32,60,"[1536,864]","[[[0.00601853185367805,-0.19444445479247305],[0.03101853222620708,-0.19166673348733756],[0.04583340377581425,-0.18981482509385655],[0.053703717749427865,-0.18796297321440997],[0.060185199327490946,-0.18564815836510173],[0.06805556981513898,-0.18379630648565512],[0.07268519951375546,-0.18379630648565512],[0.07731482921237195,-0.1814814916363469],[0.08009260703154185,-0.1814814916363469],[0.08472223673015833,-0.18101852866648524],[0.08750001454932822,-0.18009265924079634],[0.09074075533835976,-0.1796296397569003],[0.09305557018766801,-0.1796296397569003],[0.0958333480068379,-0.178703713817177],[0.09768519988628449,-0.178703713817177],[0.09814816285614614,-0.17824075084731536],[0.09953705176573109,-0.17824075084731536],[0.10046297770545438,-0.17824075084731536],[0.10092594067531603,-0.17824075084731536],[0.10092594067531603,-0.17824075084731536],[0.10092594067531603,-0.17731482490759204],[0.10092594067531603,-0.17731482490759204]],[[0.0009259391851999142,-0.20138889934039778],[0.0009259391851999142,-0.20138889934039778],[0.0009259391851999142,-0.20138889934039778],[0.0009259391851999142,-0.20138889934039778],[0.0009259391851999142,-0.20138889934039778],[0.0009259391851999142,-0.20138889934039778],[0.0009259391851999142,-0.20138889934039778],[0.0009259391851999142,-0.20138889934039778],[0.0009259391851999142,-0.20138889934039778],[0.0009259391851999142,-0.20138889934039778],[0.0009259391851999142,-0.20138889934039778],[-0.0069444313024481135,-0.19907408449108954],[-0.017129616639404384,-0.19629636318595406],[-0.03703702434345528,-0.18842593618427161],[-0.05648146907764452,-0.18101852866648524],[-0.06435183956529256,-0.1759259359980071],[-0.07453696838821441,-0.1703703803596673],[-0.08472221023920509,-0.16388895529563866],[-0.09398146963643807,-0.15740741720354115],[-0.1009259141843628,-0.15277778750492466],[-0.10416665497339433,-0.14953704671589313],[-0.11111109952131908,-0.144444454047415],[-0.1162036356757628,-0.1398148243487985],[-0.1180555440692438,-0.13657408355976697],[-0.11944443297882874,-0.13611117710393972],[-0.12222221079799864,-0.1342592687104587],[-0.12361109970758359,-0.13287037980087377],[-0.12499998861716853,-0.13055556495156553],[-0.12638887752675348,-0.12962963901184224],[-0.12824072940620007,-0.1282407501022573],[-0.12824072940620007,-0.12685191770670676],[-0.129629618315785,-0.12638889822281069],[-0.129629618315785,-0.1254629722830874],[-0.13009252477161226,-0.12500000931322575],[-0.13101850722536998,-0.12407408337350245],[-0.13101850722536998,-0.12407408337350245],[-0.13101850722536998,-0.1236111204036408],[-0.13101850722536998,-0.1236111204036408]]]",2,"[22,38]",,,,,,,,,,,,,,bistrooutdoor6.jpg,space,5.310965,0,8,8,22,1,bowlingalley5.jpg,church6.jpg,cargo5.jpg,cemetery.jpg,,
Image_List_5,,,,,,,,,,,,,,,,43992,2020-11-12_13h38.57.772,analogCatScenes,2020.1.3,Win32,60,"[1536,864]","[[[-0.001851838633969978,-0.19814815855136625],[-0.001851838633969978,-0.19814815855136625],[-0.001851838633969978,-0.19814815855136625],[-0.001851838633969978,-0.19814815855136625],[-0.001851838633969978,-0.19814815855136625],[-0.001851838633969978,-0.19814815855136625],[-0.001851838633969978,-0.19814815855136625],[-0.001851838633969978,-0.19814815855136625],[-0.001851838633969978,-0.19814815855136625],[-0.009259246151756358,-0.19351852885274975],[-0.03611109840373198,-0.17638889896786875],[-0.07083332114335564,-0.15185186156520136],[-0.08703702508851334,-0.14120371325838346],[-0.10370369200353269,-0.1300926019817039],[-0.12314808022368753,-0.11527784346016554],[-0.1398148036527413,-0.10277778675986661],[-0.14814813711025096,-0.09629630518180353],[-0.15648147056776066,-0.0902777865736021],[-0.16111110026637712,-0.08703704578457055],[-0.16712956236054416,-0.08287037905581572],[-0.1703703596636101,-0.07962963826678417],[-0.17824073015125813,-0.06990741589968955],[-0.1847222117293212,-0.06064815650245658],[-0.18981480439779935,-0.0541666749243935],[-0.1939814711265542,-0.04814815631619206],[-0.1958333230060008,-0.04537037849702217],[-0.19814813785530902,-0.043518526617575576],[-0.19953697025085956,-0.04120371176826733],[-0.19999998973475563,-0.03981482285868238],[-0.2018517851001678,-0.03796297097923579],[-0.2018517851001678,-0.03750000800937414],[-0.20277776755392551,-0.03657408206965084],[-0.20277776755392551,-0.036111119099789195],[-0.20277776755392551,-0.03564815612992755],[-0.20277776755392551,-0.03564815612992755],[-0.20231480458406387,-0.03564815612992755]],[[1.3245476616753471e-8,-0.20462964012942933],[1.3245476616753471e-8,-0.20462964012942933],[1.3245476616753471e-8,-0.20462964012942933],[1.3245476616753471e-8,-0.20462964012942933],[1.3245476616753471e-8,-0.20462964012942933],[1.3245476616753471e-8,-0.20462964012942933],[1.3245476616753471e-8,-0.20462964012942933],[0.007407420763262996,-0.20416667715956768],[0.0236111247084207,-0.20092599288457055],[0.0407407545933017,-0.19675926964178128],[0.061111125267214246,-0.19074075103357988],[0.06990742169458557,-0.18796297321440997],[0.07731482921237195,-0.18564815836510173],[0.08564816266988162,-0.1824074740901046],[0.09351853315752966,-0.1796296397569003],[0.10231482958490098,-0.1750000100582838],[0.10972223710268736,-0.17175926926925225],[0.11388890383144219,-0.16898149145008237],[0.11851853353005869,-0.16574075066105085],[0.12175927431909023,-0.16111112096243435],[0.12407408916839847,-0.15555556532409456],[0.12638890401770672,-0.15231488104909743],[0.12685186698756837,-0.14953704671589313],[0.12777779292729166,-0.14583334295699993],[0.12870371886701495,-0.14212963919810676],[0.12962964480673825,-0.13611117710393972],[0.1300926077765999,-0.13287037980087377],[0.1300926077765999,-0.12962963901184224],[0.1300926077765999,-0.12685191770670676],[0.1300926077765999,-0.12500000931322575],[0.1300926077765999,-0.12222228800809026],[0.1300926077765999,-0.11990747315878202],[0.1300926077765999,-0.11712963882557771],[0.1291666818368766,-0.11296302861085729],[0.12870371886701495,-0.11157408318723794],[0.12777779292729166,-0.10972223130779134],[0.12731482995743001,-0.10740741645848309],[0.12685186698756837,-0.1046296386393132],[0.12546297807798343,-0.10370376921362431],[0.12546297807798343,-0.10138895436431607],[0.12453705213826012,-0.10000000894069672],[0.12407408916839847,-0.09861112003111178],[0.12407408916839847,-0.09768519409138847],[0.12407408916839847,-0.09675932466569959],[0.12407408916839847,-0.09675932466569959],[0.12407408916839847,-0.09629630518180353],[0.12407408916839847,-0.09629630518180353]]]",2,"[36,47]",,,,,,,,,,,,,,rooftop3.jpg,space,4.39102,0,9,9,85,1,recordingstudio4.jpg,sidewalk5.jpg,ruralroad2.jpg,sandDunes_desert_outdoor3.jpg,,
Image_List_5,,,,,,,,,,,,,,,,43992,2020-11-12_13h38.57.772,analogCatScenes,2020.1.3,Win32,60,"[1536,864]","[[[-0.0032407275435549243,-0.19814815855136625],[-0.0032407275435549243,-0.19814815855136625],[-0.0032407275435549243,-0.19814815855136625],[-0.0032407275435549243,-0.19814815855136625],[-0.0032407275435549243,-0.19814815855136625],[-0.0032407275435549243,-0.19814815855136625],[-0.0032407275435549243,-0.19814815855136625],[-0.0032407275435549243,-0.19814815855136625],[-0.0032407275435549243,-0.19814815855136625],[-0.006481468332586465,-0.19351852885274975],[-0.011574061001064602,-0.18564815836510173],[-0.02222220930788252,-0.1703703803596673],[-0.04120369107221012,-0.13750000949949026],[-0.05462961719819793,-0.11296302861085729],[-0.056944432047506176,-0.10694445348862144],[-0.05972220986667606,-0.10231482379000496],[-0.06111109877626101,-0.09907413951500782],[-0.06342591362556925,-0.09166667548318704],[-0.06388887659543091,-0.0893518606338788],[-0.0657407284748775,-0.08379630499553901],[-0.06805554332418574,-0.07824074935719923],[-0.06990733868959793,-0.06990741589968955],[-0.07083332114335564,-0.06712963808051965],[-0.07222215353890617,-0.06250000838190317],[-0.07314813599266388,-0.05601852680384009],[-0.07361109896252553,-0.05092593413536196],[-0.07453696838821441,-0.046759267406607116],[-0.07546295084197212,-0.045833341466883816],[-0.07592591381183376,-0.04444445255729887],[-0.07592591381183376,-0.04166667473812898],[-0.07592591381183376,-0.040277785828544035],[-0.07592591381183376,-0.03981482285868238],[-0.07592591381183376,-0.03981482285868238],[-0.07592591381183376,-0.03842593394909744],[-0.07592591381183376,-0.03750000800937414],[-0.07592591381183376,-0.03750000800937414],[-0.07592591381183376,-0.03750000800937414],[-0.07592591381183376,-0.03796297097923579]],[[-0.0027777080596588684,-0.19629636318595406],[-0.0027777080596588684,-0.19629636318595406],[-0.0027777080596588684,-0.19629636318595406],[-0.0027777080596588684,-0.19629636318595406],[-0.0027777080596588684,-0.19629636318595406],[-0.0027777080596588684,-0.19629636318595406],[-0.0027777080596588684,-0.19629636318595406],[-0.0027777080596588684,-0.19629636318595406],[-0.0027777080596588684,-0.19629636318595406],[-0.0027777080596588684,-0.19629636318595406],[-0.0027777080596588684,-0.19629636318595406],[-0.0037036905134165726,-0.19629636318595406],[-0.024074061187329115,-0.1902777880637182],[-0.04999998749958144,-0.1824074740901046],[-0.07592591381183376,-0.1740740841185605],[-0.09305548718268036,-0.1662037701449469],[-0.11435184031035062,-0.15555556532409456],[-0.12916665534592336,-0.1472222318665849],[-0.1398148036527413,-0.1407408068025562],[-0.14907406304997425,-0.13611117710393972],[-0.156018507597899,-0.13194445386115047],[-0.16111110026637712,-0.12962963901184224],[-0.1675925818444402,-0.12638889822281069],[-0.1749999893622266,-0.12407408337350245],[-0.18749998954849112,-0.11759265830947377],[-0.19259252570293484,-0.11574074991599277],[-0.19953697025085956,-0.11250000912696123],[-0.20601850834295707,-0.10925926833792969],[-0.2236111011976997,-0.10231482379000496],[-0.24675924969078214,-0.09259260142291034],[-0.250925916419537,-0.09120371251332539],[-0.26018517581677,-0.08657408281470891],[-0.26481480551538644,-0.08425926796540066],[-0.2675925833345563,-0.08333334202567737],[-0.26990739818386456,-0.08240741608595406],[-0.2703703611537262,-0.08194445311609241],[-0.27083332412358785,-0.08194445311609241]],[[0.003240754034508158,-0.20185186231025942],[0.003240754034508158,-0.20185186231025942],[0.003240754034508158,-0.20185186231025942],[0.003240754034508158,-0.20185186231025942],[0.003240754034508158,-0.20185186231025942],[0.003240754034508158,-0.20185186231025942],[0.003240754034508158,-0.20185186231025942],[0.003240754034508158,-0.20185186231025942],[0.003240754034508158,-0.20185186231025942],[0.00601853185367805,-0.20092599288457055],[0.01944445797966586,-0.1939815483366458],[0.050463033474430735,-0.1777778443914881],[0.08333334782057339,-0.1587963061131261],[0.10972223710268736,-0.1407408068025562],[0.11944445946978198,-0.1333333427707354],[0.13055557074646154,-0.12453710285739851],[0.14166668202314112,-0.11342593506668452],[0.16666668239567015,-0.09537037924208024],[0.17870371961207301,-0.08518519390512395],[0.18750001603944433,-0.08055556420650747],[0.19074075682847588,-0.07916667529692252],[0.19305557167778412,-0.07824074935719923],[0.19490742355723073,-0.07824074935719923],[0.19537038652709238,-0.07824074935719923],[0.19629631246681567,-0.07777778638733758],[0.19814816434626226,-0.07685186044761429],[0.19907409028598555,-0.07638889747775263],[0.20046297919557052,-0.07500000856816769],[0.2013889051352938,-0.0740740826284444],[0.20277779404487875,-0.07361111965858275],[0.20370371998460204,-0.07314815668872109],[0.2032407570147404,-0.07222223074899779],[0.20277779404487875,-0.07222223074899779]]]",3,"[38,37,33]",,,,,,,,,,,,,,horsebarn9.jpg,space,5.36271,0,10,10,66,1,library_aisle10.jpg,office3.jpg,laundromat3.jpg,liquorstore.jpg,,
Image_List_5,,,,,,,,,,,,,,,,43992,2020-11-12_13h38.57.772,analogCatScenes,2020.1.3,Win32,60,"[1536,864]","[[[0.003703717004369806,-0.20185186231025942],[0.003703717004369806,-0.20185186231025942],[0.003703717004369806,-0.20185186231025942],[0.003703717004369806,-0.20185186231025942],[0.003703717004369806,-0.20185186231025942],[0.003703717004369806,-0.20185186231025942],[0.003703717004369806,-0.20185186231025942],[0.003703717004369806,-0.20185186231025942],[0.003703717004369806,-0.20185186231025942],[0.003703717004369806,-0.20185186231025942],[0.003240754034508158,-0.20000001043081284],[-0.0009259126942466806,-0.18333334351579347],[-0.0037036905134165726,-0.16851858499425512],[-0.00462961645313987,-0.14629630592686158],[-0.0041666534832782215,-0.11064821376154904],[-0.0027777080596588684,-0.09629630518180353],[-0.0009259126942466806,-0.08518519390512395],[0.00046297621533826543,-0.07777778638733758],[0.003240754034508158,-0.0694444529298279],[0.003703717004369806,-0.06388889729148811],[0.004629642944093104,-0.062037045412041525],[0.005092605913954752,-0.06064815650245658],[0.00601853185367805,-0.058796304623009985],[0.006481551337574105,-0.0541666749243935],[0.007870383733124644,-0.04953704522577701],[0.009259272642709591,-0.04722223037646876],[0.009259272642709591,-0.04537037849702217],[0.010185198582432888,-0.043518526617575576],[0.011111181036190592,-0.04074074879840568],[0.012500013431741131,-0.037037045039512495],[0.013888902341326078,-0.0342592672203426],[0.013888902341326078,-0.0333333412806193],[0.015277791250911023,-0.031944452371034354],[0.015277791250911023,-0.03055556346144941],[0.01666668016049597,-0.029166674551864464],[0.01666668016049597,-0.028703711582002817],[0.017592606100219267,-0.028703711582002817],[0.017592606100219267,-0.02777778564227952],[0.018055625584115324,-0.026388896732694574],[0.01944445797966586,-0.02361111891352468],[0.01990742094952751,-0.021759267034078086],[0.020833346889250808,-0.02037037812449314],[0.022222235798835754,-0.018518526245046546],[0.022222235798835754,-0.018055563275184896],[0.022222235798835754,-0.0171296373354616],[0.022222235798835754,-0.015740748425876652],[0.0236111247084207,-0.015277785456015004],[0.024074087678282348,-0.014351859516291707],[0.024074087678282348,-0.013888896546430059],[0.024074087678282348,-0.013888896546430059],[0.024074087678282348,-0.013425933576568409],[0.024074087678282348,-0.012037044666983463],[0.024074087678282348,-0.011111118727260165],[0.024074087678282348,-0.011111118727260165],[0.024074087678282348,-0.010648155757398517],[0.024074087678282348,-0.010648155757398517],[0.024074087678282348,-0.010648155757398517],[0.024074087678282348,-0.010648155757398517]]]",1,[58],,,,,,,,,,,,,,warehouseoutside3.jpg,space,2.970985,0,11,11,97,1,warehouseoutside4.jpg,wineVineyard2.jpg,waitingroom4.jpg,winebarrel3.jpg,,
Image_List_5,,,,,,,,,,,,,,,,43992,2020-11-12_13h38.57.772,analogCatScenes,2020.1.3,Win32,60,"[1536,864]","[[[0.00046297621533826543,-0.1976851955815046],[0.00046297621533826543,-0.1976851955815046],[0.00046297621533826543,-0.1976851955815046],[0.00046297621533826543,-0.1976851955815046],[0.00046297621533826543,-0.1976851955815046],[0.00046297621533826543,-0.1976851955815046],[0.00046297621533826543,-0.1976851955815046],[0.00046297621533826543,-0.1976851955815046],[0.00046297621533826543,-0.1976851955815046],[0.00046297621533826543,-0.1976851955815046],[0.00046297621533826543,-0.1976851955815046],[0.00046297621533826543,-0.1939815483366458],[0.00046297621533826543,-0.18657408430482503],[0.0009259391851999142,-0.1777778443914881],[0.0009259391851999142,-0.16851858499425512],[0.0009259391851999142,-0.1606481579925727],[0.0009259391851999142,-0.15138889859533972],[0.0009259391851999142,-0.13842599195324798],[0.0009259391851999142,-0.13055556495156553],[0.00046297621533826543,-0.11805556476530102],[0.00046297621533826543,-0.11250000912696123],[0.00046297621533826543,-0.10601858406293256],[0.00046297621533826543,-0.09814815706125012],[0.00046297621533826543,-0.09166667548318704],[0.00046297621533826543,-0.0875000087544322],[0.00046297621533826543,-0.08425926796540066],[0.00046297621533826543,-0.07916667529692252],[0.00046297621533826543,-0.07314815668872109],[0.00046297621533826543,-0.06527778620107307],[0.00046297621533826543,-0.062037045412041525],[0.00046297621533826543,-0.05833334165314833],[0.00046297621533826543,-0.05648148977370174],[0.00046297621533826543,-0.053703711954531844],[0.00046297621533826543,-0.05185186007508525],[0.00046297621533826543,-0.049074082255915356],[0.00046297621533826543,-0.046759267406607116],[0.00046297621533826543,-0.04629630443674547],[0.00046297621533826543,-0.04444445255729887],[0.0013889021550615628,-0.04212963770799063],[0.0013889021550615628,-0.040277785828544035],[0.0013889021550615628,-0.03842593394909744],[0.0013889021550615628,-0.037037045039512495],[0.0013889021550615628,-0.0342592672203426],[0.0013889021550615628,-0.032870378310757654],[0.0013889021550615628,-0.03240741534089601],[0.0013889021550615628,-0.03101852643131106],[0.0013889021550615628,-0.029629637521726114],[0.0013889021550615628,-0.029629637521726114],[0.0013889021550615628,-0.029166674551864464],[0.0013889021550615628,-0.028240748612141167],[0.0013889021550615628,-0.02777778564227952],[0.0013889021550615628,-0.02731482267241787],[0.0013889021550615628,-0.02731482267241787],[0.0013889021550615628,-0.02731482267241787],[0.0013889021550615628,-0.02731482267241787]],[[0.0009259391851999142,-0.20370371418970604],[0.0009259391851999142,-0.20370371418970604],[0.0009259391851999142,-0.20370371418970604],[0.0009259391851999142,-0.20370371418970604],[0.0009259391851999142,-0.20370371418970604],[0.0009259391851999142,-0.20370371418970604],[0.0009259391851999142,-0.20370371418970604],[0.0009259391851999142,-0.20370371418970604],[0.0009259391851999142,-0.20370371418970604],[0.0009259391851999142,-0.20370371418970604],[0.01990742094952751,-0.19629636318595406],[0.041666680533025,-0.18842593618427161],[0.05601853259873611,-0.1824074740901046],[0.06620371793569238,-0.1768518619377304],[0.0787037181219569,-0.17268519520897557],[0.09120371830822141,-0.16851858499425512],[0.10231482958490098,-0.16481482472132752],[0.10879631116296407,-0.1606481579925727],[0.12685186698756837,-0.15370371344464798],[0.13935186717383288,-0.14861112077616984],[0.1509259414203741,-0.14398149107755334],[0.16018520081760707,-0.1407408068025562],[0.16388890457650027,-0.1398148243487985],[0.16851853427511673,-0.13842599195324798],[0.17314816397373323,-0.13750000949949026],[0.17824075664221137,-0.13611117710393972],[0.18472223822027445,-0.1342592687104587],[0.1898148308887526,-0.13287037980087377],[0.1976852013764006,-0.1300926019817039],[0.2078703867133569,-0.12685191770670676],[0.21527779423114327,-0.12314815743377915],[0.2231481647187913,-0.12083334258447091],[0.22638890550782284,-0.11851852773516267],[0.2365740908447791,-0.11388889803654617],[0.24444446133242714,-0.11064821376154904],[0.25231483182007514,-0.10694445348862144],[0.25879631339813824,-0.10370376921362431],[0.26805557279537123,-0.09953704597083507],[0.27129631358440276,-0.09861112003111178],[0.2759259432830192,-0.09629630518180353],[0.27870372110218916,-0.09583334221194188],[0.2810185359514974,-0.09583334221194188],[0.28148149892135904,-0.09583334221194188],[0.2819444618912207,-0.09490741627221858]]]",2,"[55,44]",,,,,,,,,,,,,,bleachers6.jpg,space,4.525215,0,12,12,23,1,bus_shelter.jpg,church8.jpg,carmechanic4.jpeg,cemetery3.jpg,,
Image_List_5,,,,,,,,,,,,,,,,43992,2020-11-12_13h38.57.772,analogCatScenes,2020.1.3,Win32,60,"[1536,864]","[[[0.0013889021550615628,-0.20370371418970604],[0.0013889021550615628,-0.20370371418970604],[0.0013889021550615628,-0.20370371418970604],[0.0013889021550615628,-0.20370371418970604],[0.0013889021550615628,-0.20370371418970604],[0.0013889021550615628,-0.20370371418970604],[0.0013889021550615628,-0.20370371418970604],[0.0013889021550615628,-0.20370371418970604],[0.0013889021550615628,-0.20370371418970604],[0.003703717004369806,-0.20138889934039778],[0.011574087492017835,-0.19814815855136625],[0.025462976587867295,-0.1930555658828881],[0.05416668071928951,-0.17916667678703865],[0.07175927357403217,-0.17175926926925225],[0.08472223673015833,-0.16435186175146588],[0.09259260721780636,-0.16018519502271106],[0.10046297770545438,-0.1569445107477139],[0.10833334819310242,-0.15231488104909743],[0.11574075571088879,-0.1481481578063082],[0.12268520025881352,-0.14490741701727664],[0.12870371886701495,-0.1425926021679684],[0.1310185337163232,-0.14027778731866014],[0.13657408935466298,-0.13842599195324798],[0.13935186717383288,-0.13703704652962861],[0.14537038578203432,-0.13379636225463148],[0.1518518673600974,-0.13055556495156553],[0.15833334893816048,-0.12638889822281069],[0.161574089727192,-0.12407408337350245],[0.1671296453655318,-0.12083334258447091],[0.170833349124425,-0.11898149070502431],[0.17638890476276478,-0.11435186100640783],[0.18101853446138125,-0.11111112021737629],[0.1842592752504128,-0.1083333989122408],[0.187962979009306,-0.1055555645790365],[0.1898148308887526,-0.10416667566945155],[0.19120371979833753,-0.10370376921362431],[0.19259260870792247,-0.10231482379000496],[0.1939814976175074,-0.10185186082014332],[0.19537038652709238,-0.10092593488042001],[0.19537038652709238,-0.10092593488042001],[0.19583334949695402,-0.10046297191055836],[0.19675927543667732,-0.10046297191055836],[0.19675927543667732,-0.09953704597083507],[0.19675927543667732,-0.09953704597083507],[0.19675927543667732,-0.09953704597083507],[0.19675927543667732,-0.09953704597083507],[0.19675927543667732,-0.09953704597083507],[0.19629631246681567,-0.09953704597083507],[0.19629631246681567,-0.09953704597083507]]]",1,[49],,,,,,,,,,,,,,yogastudio1.jpg,space,3.34972,0,13,13,99,1,wineVineyard9.jpg,yogastudio4.jpg,windmill2.jpg,wrestlingring7.jpg,,
Image_List_5,,,,,,,,,,,,,,,,43992,2020-11-12_13h38.57.772,analogCatScenes,2020.1.3,Win32,60,"[1536,864]","[[[0.003703717004369806,-0.1949074177623347],[0.003703717004369806,-0.1949074177623347],[0.003703717004369806,-0.1949074177623347],[0.003703717004369806,-0.1949074177623347],[0.003703717004369806,-0.1949074177623347],[0.003703717004369806,-0.1949074177623347],[0.003703717004369806,-0.1949074177623347],[0.00601853185367805,-0.195833343702058],[0.011111181036190592,-0.19675926964178128],[0.020833346889250808,-0.1976851955815046],[0.05833334744804435,-0.20000001043081284],[0.08611112563974327,-0.19907408449108954],[0.11620371868075044,-0.19444445479247305],[0.14398149687244935,-0.18611112133496338],[0.1754629788230415,-0.17222223223911393],[0.18750001603944433,-0.16666667660077414],[0.1976852013764006,-0.16111112096243435],[0.2078703867133569,-0.15648149126381786],[0.2194444609598981,-0.15000006619978917],[0.22731483144754613,-0.14768525135048094],[0.23148149817630095,-0.14490741701727664],[0.239351868663949,-0.1416666762282451],[0.2509259429104902,-0.13611117710393972],[0.2625000171570314,-0.129166732556015],[0.273611128433711,-0.1226851944639175],[0.28055557298163575,-0.11805556476530102],[0.29305557316790026,-0.10879630536806804],[0.3037037214747182,-0.10231482379000496],[0.31435186978153606,-0.09583334221194188],[0.3212963143294608,-0.09074074954346374],[0.334259277485587,-0.08148149014623077],[0.3370371683328257,-0.07916667529692252],[0.3384259442143418,-0.07777778638733758],[0.33981483312392674,-0.07638889747775263],[0.34120372203351174,-0.07500000856816769],[0.3416667980314422,-0.07453704559830604],[0.3425926109430967,-0.07361111965858275],[0.3430555739129583,-0.07314815668872109],[0.3430555739129583,-0.07314815668872109],[0.3430555739129583,-0.07314815668872109],[0.3430555739129583,-0.07314815668872109],[0.3430555739129583,-0.07314815668872109],[0.3430555739129583,-0.07268519371885944]]]",1,[43],,,,,,,,,,,,,,warehouse1.jpg,space,2.07842,0,14,14,96,1,warehouse4.jpg,warehouseoutside1.jpg,tenniscourt3.jpg,windmill1.jpg,,
Image_List_5,,,,,,,,,,,,,,,,43992,2020-11-12_13h38.57.772,analogCatScenes,2020.1.3,Win32,60,"[1536,864]","[[[0.003240754034508158,-0.19675926964178128],[0.003240754034508158,-0.19675926964178128],[0.003240754034508158,-0.19675926964178128],[0.003240754034508158,-0.19675926964178128],[0.003240754034508158,-0.19675926964178128],[0.003240754034508158,-0.19675926964178128],[0.003240754034508158,-0.19675926964178128],[0.003240754034508158,-0.19675926964178128],[0.003240754034508158,-0.19675926964178128],[0.003240754034508158,-0.19675926964178128],[0.010648161552294536,-0.19675926964178128],[0.025000070132040055,-0.19722223261164296],[0.047222236171364784,-0.19907408449108954],[0.06157408823707589,-0.20046297340067448],[0.07129631060417052,-0.20046297340067448],[0.08287038485071173,-0.20000001043081284],[0.10925927413282571,-0.19537038073219634],[0.13518520044507804,-0.18842593618427161],[0.16018520081760707,-0.1777778443914881],[0.1750000158531798,-0.17083339984356338],[0.19629631246681567,-0.16018519502271106],[0.2032407570147404,-0.1578703801734028],[0.20601853483391028,-0.1569445107477139],[0.2069444607736336,-0.15555556532409456],[0.2120370534421117,-0.15509260235423292],[0.21250001641197336,-0.15509260235423292],[0.21388890532155833,-0.15509260235423292],[0.21481483126128162,-0.15509260235423292],[0.21527779423114327,-0.15462969589840567],[0.2166666831407282,-0.15324075047478633],[0.2166666831407282,-0.15324075047478633],[0.2166666831407282,-0.15324075047478633]]]",1,[32],,,,,,,,,,,,,,desertvegetation2.jpg,space,2.16774,0,15,15,42,1,exerciseequipment3.jpg,firestation3.jpg,drymountains6.jpg,farm4.jpg,,
Image_List_5,,,,,,,,,,,,,,,,43992,2020-11-12_13h38.57.772,analogCatScenes,2020.1.3,Win32,60,"[1536,864]","[[[-0.0055555423928631675,-0.20000001043081284],[-0.0055555423928631675,-0.20000001043081284],[-0.0055555423928631675,-0.20000001043081284],[-0.0055555423928631675,-0.20000001043081284],[-0.0055555423928631675,-0.20000001043081284],[-0.0055555423928631675,-0.20000001043081284],[-0.0055555423928631675,-0.20000001043081284],[-0.0055555423928631675,-0.20000001043081284],[-0.0055555423928631675,-0.20000001043081284],[-0.0055555423928631675,-0.20000001043081284],[-0.0055555423928631675,-0.20000001043081284],[-0.00462961645313987,-0.1995370474609512],[0.00231482809478486,-0.1976851955815046],[0.006481551337574105,-0.19629636318595406],[0.017592606100219267,-0.19259260291302646],[0.02685186549745224,-0.18981482509385655],[0.04212964350288665,-0.18425926945551677],[0.05648149556859776,-0.1777778443914881],[0.0777777921822336,-0.16990741738980566],[0.09305557018766801,-0.1615741404463304],[0.1120370519519956,-0.14907408374603148],[0.11990742243964363,-0.14583334295699993],[0.12361112619853681,-0.14398149107755334],[0.12777779292729166,-0.1425926021679684],[0.13703705232452462,-0.13657408355976697],[0.14490742281217267,-0.13148154740532322],[0.1509259414203741,-0.12870371307211895],[0.15648149705871386,-0.12453710285739851],[0.1699074231847017,-0.11620371288585442],[0.1750000158531798,-0.11296302861085729],[0.1842592752504128,-0.1055555645790365],[0.19259260870792247,-0.09722223112152682],[0.19583334949695402,-0.09305556439277199],[0.19722223840653896,-0.09120371251332539],[0.20000001622570884,-0.0875000087544322],[0.20277779404487875,-0.08333334202567737],[0.20555557186404863,-0.07916667529692252],[0.2069444607736336,-0.07685186044761429],[0.20879631265308018,-0.07361111965858275],[0.21527779423114327,-0.06574074917093471],[0.222222238779068,-0.05601852680384009],[0.22777779441740778,-0.04814815631619206],[0.23194446114616263,-0.04166667473812898],[0.23518520193519415,-0.039351859888820735],[0.2365740908447791,-0.03657408206965084],[0.2384259427242257,-0.0342592672203426],[0.24074075757353394,-0.031944452371034354],[0.24398149836256547,-0.02777778564227952],[0.24861112806118196,-0.02361111891352468],[0.25138890588035184,-0.019444452184769843],[0.25370372072966013,-0.01759260030532325],[0.25509260963924507,-0.01666667436559995],[0.25648149854883,-0.014814822486153355],[0.25694446151869166,-0.014351859516291707],[0.2583333504282766,-0.013425933576568409],[0.2583333504282766,-0.01296297060670676],[0.25972223933786154,-0.012037044666983463],[0.25972223933786154,-0.012037044666983463],[0.25972223933786154,-0.012037044666983463]],[[0.0009259391851999142,-0.1976851955815046],[0.0009259391851999142,-0.1976851955815046],[0.0009259391851999142,-0.1976851955815046],[0.0009259391851999142,-0.1976851955815046],[0.0009259391851999142,-0.1976851955815046],[0.0009259391851999142,-0.1976851955815046],[0.0009259391851999142,-0.1976851955815046],[0.0009259391851999142,-0.1976851955815046],[0.0009259391851999142,-0.1976851955815046],[0.0009259391851999142,-0.1976851955815046],[0.0009259391851999142,-0.1976851955815046],[0.0009259391851999142,-0.1976851955815046],[0.0055555688838164015,-0.19444445479247305],[0.012500013431741131,-0.19212963994316481],[0.018055625584115324,-0.18796297321440997],[0.025000070132040055,-0.18379630648565512],[0.031944514679964786,-0.1796296397569003],[0.03657414437858127,-0.1759259359980071],[0.043981495382333244,-0.1712963062993906],[0.049537051020673024,-0.16805556551035908],[0.05324075477956622,-0.16388895529563866],[0.056944458538459405,-0.1606481579925727],[0.060185199327490946,-0.1578703801734028],[0.06435186605624578,-0.15555556532409456],[0.06898149575486227,-0.15092593562547807],[0.07314816248361711,-0.14768525135048094],[0.07824075515209525,-0.14120371325838346],[0.08009260703154185,-0.13842599195324798],[0.08518519970001998,-0.1333333427707354],[0.08888890345891316,-0.129166732556015],[0.09166668127808306,-0.12453710285739851],[0.09305557018766801,-0.12314815743377915],[0.09444445909725295,-0.12129630555433256],[0.0949074220671146,-0.11944445367488596],[0.09629631097669955,-0.11666667585571606],[0.0967592739465612,-0.11388889803654617],[0.09768519988628449,-0.11203704615709958],[0.09768519988628449,-0.10972223130779134],[0.09768519988628449,-0.10694445348862144],[0.09768519988628449,-0.10509260160917486],[0.09722223691642284,-0.10231482379000496],[0.0967592739465612,-0.09907413951500782],[0.09537038503697624,-0.09629630518180353],[0.09537038503697624,-0.09305556439277199],[0.09444445909725295,-0.0902777865736021],[0.0939814961273913,-0.08703704578457055],[0.0921296442479447,-0.08101852717636912],[0.09166668127808306,-0.07731482341747593],[0.09027779236849812,-0.07592593450789098],[0.08888890345891316,-0.07222223074899779],[0.08750001454932822,-0.06898148995996625],[0.08611112563974327,-0.066666675110658],[0.08379631079043504,-0.06481482323121142],[0.08287038485071173,-0.06342593432162646],[0.07962964406168019,-0.06064815650245658],[0.0768518662425103,-0.058796304623009985],[0.07268519951375546,-0.056944452743563384],[0.06898149575486227,-0.054629637894255144],[0.06435186605624578,-0.0523148230449469],[0.0606481622973526,-0.05092593413536196],[0.056944458538459405,-0.04953704522577701],[0.053703717749427865,-0.04861111928605371],[0.04907408805081138,-0.04722223037646876],[0.04583340377581425,-0.046759267406607116],[0.04444445835219489,-0.046759267406607116],[0.04120377407719776,-0.046759267406607116],[0.03703705083440851,-0.046759267406607116],[0.03240742113579203,-0.046759267406607116],[0.030555569256345432,-0.046759267406607116],[0.029166680346760485,-0.046759267406607116],[0.02685186549745224,-0.04814815631619206],[0.025462976587867295,-0.049074082255915356],[0.024074087678282348,-0.049074082255915356],[0.02314816173855905,-0.049074082255915356],[0.022222235798835754,-0.049074082255915356],[0.022222235798835754,-0.049074082255915356],[0.022222235798835754,-0.049074082255915356],[0.022222235798835754,-0.049074082255915356]]]",2,"[59,78]",,,,,,,,,,,,,,shoestore4.jpg,space,5.70966,0,16,16,90,1,savanna5.jpg,trainStation1.jpg,sidewalk1.jpg,stripmall3.jpg,,
