image_list,key_resp_intructions.keys,key_resp_intructions.rt,key_resp_intructions_3.keys,key_resp_intructions_3.rt,PracticeComplete_2.keys,PracticeComplete_2.rt,PracticeComplete_3.keys,PracticeComplete_3.rt,demo_trials.thisRepN,demo_trials.thisTrialN,demo_trials.thisN,demo_trials.thisIndex,demo_trials.ran,demo_images,path_images,participant,date,expName,psychopyVersion,OS,frameRate,windowSize,practice_complete.keys,practice_complete.rt,boxes_checked,PracticeComplete.keys,PracticeComplete.rt,practice_trials.thisRepN,practice_trials.thisTrialN,practice_trials.thisN,practice_trials.thisIndex,practice_trials.ran,practice_images,feedback_images,key_resp_intructions_2.keys,key_resp_intructions_2.rt,Image_List_2,trial_complete.keys,trial_complete.rt,trial_mouse.x,trial_mouse.y,trial_mouse.leftButton,trial_mouse.midButton,trial_mouse.rightButton,trial_mouse.time,trial_mouse.clicked_name,trials.thisRepN,trials.thisTrialN,trials.thisN,trials.thisIndex,trials.ran,Image_List_1,Image_List_3,Image_List_4,Image_List_5,key_resp.keys,key_resp.rt
Image_List_2,space,12.314555,space,5.865635,space,13.46499,space,3.19732,0,0,0,4,1,left.jpg,left_path.jpg,44025,2020-11-20_22h08.57.691,lingCatScenes,2020.1.3,Win32,60,,,,,,,,,,,,,,,,,,,,,,,,,,,,,,,,,,,,
Image_List_2,,,,,space,6.49474,space,3.88238,0,1,1,6,1,right_left.jpg,right_left_path.jpg,44025,2020-11-20_22h08.57.691,lingCatScenes,2020.1.3,Win32,60,,,,,,,,,,,,,,,,,,,,,,,,,,,,,,,,,,,,
Image_List_2,,,,,space,2.343845,space,3.099375,0,2,2,2,1,ahead_right.jpg,ahead_right_path.jpg,44025,2020-11-20_22h08.57.691,lingCatScenes,2020.1.3,Win32,60,,,,,,,,,,,,,,,,,,,,,,,,,,,,,,,,,,,,
Image_List_2,,,,,space,3.84533,space,1.561115,0,3,3,0,1,ahead.jpg,ahead_path.jpg,44025,2020-11-20_22h08.57.691,lingCatScenes,2020.1.3,Win32,60,,,,,,,,,,,,,,,,,,,,,,,,,,,,,,,,,,,,
Image_List_2,,,,,space,3.104765,space,24.293595,0,4,4,3,1,ahead_right_left.jpg,ahead_right_left_path.jpg,44025,2020-11-20_22h08.57.691,lingCatScenes,2020.1.3,Win32,60,,,,,,,,,,,,,,,,,,,,,,,,,,,,,,,,,,,,
Image_List_2,,,,,space,3.059565,space,2.86284,0,5,5,5,1,right.jpg,right_path.jpg,44025,2020-11-20_22h08.57.691,lingCatScenes,2020.1.3,Win32,60,,,,,,,,,,,,,,,,,,,,,,,,,,,,,,,,,,,,
Image_List_2,,,,,space,2.93634,space,2.996685,0,6,6,1,1,ahead_left.jpg,ahead_left_path.jpg,44025,2020-11-20_22h08.57.691,lingCatScenes,2020.1.3,Win32,60,,,,,,,,,,,,,,,,,,,,,,,,,,,,,,,,,,,,
Image_List_2,,,,,,,,,,,,,,,,44025,2020-11-20_22h08.57.691,lingCatScenes,2020.1.3,Win32,60,"[1366,768]",space,1.69602,[],space,6.76284,0,0,0,4,1,left_2.jpg,left_2_path.jpg,,,,,,,,,,,,,,,,,,,,,,,
Image_List_2,,,,,,,,,,,,,,,,44025,2020-11-20_22h08.57.691,lingCatScenes,2020.1.3,Win32,60,"[1366,768]",space,35.218155,"[""right_box""]",space,5.08121,0,1,1,5,1,right_2.jpg,right_2_path.jpg,,,,,,,,,,,,,,,,,,,,,,,
Image_List_2,,,,,,,,,,,,,,,,44025,2020-11-20_22h08.57.691,lingCatScenes,2020.1.3,Win32,60,"[1366,768]",space,12.607945,"[""slight_right_box"",""left_box""]",space,2.85358,0,2,2,1,1,ahead_left_2.jpg,ahead_left_2_path.jpg,,,,,,,,,,,,,,,,,,,,,,,
Image_List_2,,,,,,,,,,,,,,,,44025,2020-11-20_22h08.57.691,lingCatScenes,2020.1.3,Win32,60,"[1366,768]",space,8.116465,"[""right_box"",""left_box""]",space,2.204675,0,3,3,6,1,right_left_2.jpg,right_left_2_path.jpg,,,,,,,,,,,,,,,,,,,,,,,
Image_List_2,,,,,,,,,,,,,,,,44025,2020-11-20_22h08.57.691,lingCatScenes,2020.1.3,Win32,60,"[1366,768]",space,8.758785,"[""ahead_box"",""left_box""]",space,2.910355,0,4,4,3,1,ahead_right_left_2.jpg,ahead_right_left_2_path.jpg,,,,,,,,,,,,,,,,,,,,,,,
Image_List_2,,,,,,,,,,,,,,,,44025,2020-11-20_22h08.57.691,lingCatScenes,2020.1.3,Win32,60,"[1366,768]",space,2.505225,"[""ahead_box""]",space,1.31779,0,5,5,0,1,ahead_2.jpg,ahead_2_path.jpg,,,,,,,,,,,,,,,,,,,,,,,
Image_List_2,,,,,,,,,,,,,,,,44025,2020-11-20_22h08.57.691,lingCatScenes,2020.1.3,Win32,60,"[1366,768]",space,4.592225,"[""ahead_box"",""sharp_right_box""]",space,3.20863,0,6,6,2,1,ahead_right_2.jpg,ahead_right_2_path.jpg,,,,,,,,,,,,,,,,,,,,,,,
Image_List_2,,,,,,,,,,,,,,,,44025,2020-11-20_22h08.57.691,lingCatScenes,2020.1.3,Win32,60,"[1366,768]",,,"[""trial_ahead_box""]",,,,,,,,,,space,4.96003,pavilion5.jpg,space,12.286565,[-0.018229166666666668],[-0.30859375],[1],[0],[0],[8.488834999967366],"[""trial_ahead_box""]",0,0,0,71,1,metroInside2.jpg,metroInside3.jpg,museum3.jpg,jewelrystore.jpg,,
Image_List_2,,,,,,,,,,,,,,,,44025,2020-11-20_22h08.57.691,lingCatScenes,2020.1.3,Win32,60,"[1366,768]",,,"[""trial_left_box"",""trial_right_box"",""trial_sharp_left_box""]",,,,,,,,,,,,yogastudio4.jpg,space,22.481025,"[-0.4010416666666667,0.016927083333333332,0.40625,0.009114583333333334,-0.6041666666666666]","[-0.3098958333333333,-0.2838541666666667,-0.2890625,-0.3033854166666667,-0.2994791666666667]","[1,1,1,1,1]","[0,0,0,0,0]","[0,0,0,0,0]","[13.902705000014976,15.009554999996908,17.036500000045635,19.394654999952763,20.721279999939725]","[""trial_left_box"",""trial_ahead_box"",""trial_right_box"",""trial_ahead_box"",""trial_sharp_left_box""]",0,1,1,99,1,wineVineyard9.jpg,windmill2.jpg,wrestlingring7.jpg,yogastudio1.jpg,,
Image_List_2,,,,,,,,,,,,,,,,44025,2020-11-20_22h08.57.691,lingCatScenes,2020.1.3,Win32,60,"[1366,768]",,,"[""trial_sharp_left_box""]",,,,,,,,,,,,cafeteria6.jpg,space,2.84558,[-0.5989583333333334],[-0.31640625],[1],[0],[0],[2.1300049999263138],"[""trial_sharp_left_box""]",0,2,2,16,1,basement.jpg,breakroom2.jpg,campusquad4.jpg,barbershop2.jpg,,
Image_List_2,,,,,,,,,,,,,,,,44025,2020-11-20_22h08.57.691,lingCatScenes,2020.1.3,Win32,60,"[1366,768]",,,"[""trial_left_box"",""trial_right_box""]",,,,,,,,,,,,sculpturegarden1.jpg,space,5.90307,"[-0.4322916666666667,-0.3997395833333333,0.421875]","[-0.3072916666666667,-0.2864583333333333,-0.2981770833333333]","[1,1,1]","[0,0,0]","[0,0,0]","[2.2729450000915676,3.6483749999897555,5.238394999993034]","[""trial_left_box"",""trial_right_box""]",0,3,3,83,1,readingroom1.jpg,promenadeDeck6.jpg,restaurant8.jpg,readingroom2.jpg,,
Image_List_2,,,,,,,,,,,,,,,,44025,2020-11-20_22h08.57.691,lingCatScenes,2020.1.3,Win32,60,"[1366,768]",,,"[""trial_right_box"",""trial_left_box""]",,,,,,,,,,,,deck2.jpg,space,3.66085,"[0.40625,-0.4075520833333333]","[-0.296875,-0.2864583333333333]","[1,1]","[0,0]","[0,0]","[1.9083050000481308,3.0617499999934807]","[""trial_right_box"",""trial_left_box""]",0,4,4,29,1,cornfield2.jpg,cliff2.jpg,constructionSite4.jpg,bridalboutique3.jpg,,
Image_List_2,,,,,,,,,,,,,,,,44025,2020-11-20_22h08.57.691,lingCatScenes,2020.1.3,Win32,60,"[1366,768]",,,"[""trial_sharp_left_box"",""trial_left_box""]",,,,,,,,,,,,horsebarn11.jpg,space,4.99507,"[-0.609375,-0.41015625]","[-0.2981770833333333,-0.3046875]","[1,1]","[0,0]","[0,0]","[2.7306350000435486,3.803124999976717]","[""trial_sharp_left_box"",""trial_left_box""]",0,5,5,54,1,greenhouse2.jpg,gazebo2.jpg,homegarage4.jpg,frontFoyer.jpg,,
Image_List_2,,,,,,,,,,,,,,,,44025,2020-11-20_22h08.57.691,lingCatScenes,2020.1.3,Win32,60,"[1366,768]",,,"[""trial_ahead_box""]",,,,,,,,,,,,warehouse2.jpg,space,2.47694,[-0.0026041666666666665],[-0.2994791666666667],[1],[0],[0],[1.9249249999411404],"[""trial_ahead_box""]",0,6,6,95,1,waitingroom2.jpg,stripmall6.jpg,weightroom4.jpg,tvstudio3.jpg,,
Image_List_2,,,,,,,,,,,,,,,,44025,2020-11-20_22h08.57.691,lingCatScenes,2020.1.3,Win32,60,"[1366,768]",,,"[""trial_right_box""]",,,,,,,,,,,,trainStation5.jpg,space,3.858575,[0.4231770833333333],[-0.3072916666666667],[1],[0],[0],[2.953860000008717],"[""trial_right_box""]",0,7,7,91,1,shoestore2.jpg,skatepark5.jpg,ticket_counter6.jpg,sidewalk3.jpg,,
Image_List_2,,,,,,,,,,,,,,,,44025,2020-11-20_22h08.57.691,lingCatScenes,2020.1.3,Win32,60,"[1366,768]",,,"[""trial_sharp_left_box"",""trial_left_box"",""trial_slight_left_box"",""trial_ahead_box"",""trial_slight_right_box"",""trial_sharp_right_box"",""trial_right_box""]",,,,,,,,,,,,parkinglot.jpg,space,8.45538,"[-0.6223958333333334,-0.4140625,-0.20572916666666666,-0.010416666666666666,0.20833333333333334,0.4270833333333333,0.58984375,0.4153645833333333]","[-0.3033854166666667,-0.2877604166666667,-0.2916666666666667,-0.2916666666666667,-0.2942708333333333,-0.3059895833333333,-0.30078125,-0.3072916666666667]","[1,1,1,1,1,1,1,1]","[0,0,0,0,0,0,0,0]","[0,0,0,0,0,0,0,0]","[2.224279999965802,2.992809999966994,3.815779999946244,4.663100000005215,5.440145000000484,6.161824999959208,6.978155000018887,7.696785000036471]","[""trial_sharp_left_box"",""trial_left_box"",""trial_slight_left_box"",""trial_ahead_box"",""trial_slight_right_box"",""trial_sharp_right_box"",""trial_right_box""]",0,8,8,68,1,liquorstore7.jpg,lightingstore4.jpg,lockerroom2.jpg,hospitalroom3.jpg,,
Image_List_2,,,,,,,,,,,,,,,,44025,2020-11-20_22h08.57.691,lingCatScenes,2020.1.3,Win32,60,"[1366,768]",,,"[""trial_ahead_box""]",,,,,,,,,,,,frontFoyer7.jpg,space,3.99427,[0.01953125],[-0.3177083333333333],[1],[0],[0],[1.6170299999648705],"[""trial_ahead_box""]",0,9,9,45,1,fittingroom2.jpg,factory1.jpg,forestpath4.jpg,dock4.jpg,,
Image_List_2,,,,,,,,,,,,,,,,44025,2020-11-20_22h08.57.691,lingCatScenes,2020.1.3,Win32,60,"[1366,768]",,,"[""trial_right_box"",""trial_left_box""]",,,,,,,,,,,,newsstand7.jpg,space,3.449045,"[0.38671875,-0.3802083333333333]","[-0.2942708333333333,-0.2942708333333333]","[1,1]","[0,0]","[0,0]","[1.8698099999455735,3.042729999986477]","[""trial_right_box"",""trial_left_box""]",0,10,10,65,1,igloo5.jpg,laundromat2.jpeg,labClass7.jpg,homeoffice8.jpg,,
Image_List_2,,,,,,,,,,,,,,,,44025,2020-11-20_22h08.57.691,lingCatScenes,2020.1.3,Win32,60,"[1366,768]",,,"[""trial_ahead_box""]",,,,,,,,,,,,dormroom9.jpg,space,3.589605,[0.010416666666666666],[-0.3098958333333333],[1],[0],[0],[1.9237999999895692],"[""trial_ahead_box""]",0,11,11,36,1,diner14.jpg,dining_car3.jpg,doctor1.jpg,checkoutcounter9.jpg,,
Image_List_2,,,,,,,,,,,,,,,,44025,2020-11-20_22h08.57.691,lingCatScenes,2020.1.3,Win32,60,"[1366,768]",,,"[""trial_ahead_box"",""trial_slight_right_box"",""trial_slight_left_box""]",,,,,,,,,,,,banquetHall6.jpg,space,4.168655,"[0.013020833333333334,0.19921875,-0.18489583333333334]","[-0.296875,-0.3111979166666667,-0.3059895833333333]","[1,1,1]","[0,0,0]","[0,0,0]","[1.9740900000324473,2.7947949999943376,3.8139600000577047]","[""trial_ahead_box"",""trial_slight_right_box"",""trial_slight_left_box""]",0,12,12,8,1,attic3.jpg,balconyIN.jpg,bar.jpg,applestore4.jpg,,
Image_List_2,,,,,,,,,,,,,,,,44025,2020-11-20_22h08.57.691,lingCatScenes,2020.1.3,Win32,60,"[1366,768]",,,"[""trial_right_box"",""trial_sharp_left_box""]",,,,,,,,,,,,waitingroom3.jpg,space,3.782735,"[0.4231770833333333,-0.5989583333333334]","[-0.3059895833333333,-0.28125]","[1,1]","[0,0]","[0,0]","[2.2088450000155717,3.328979999991134]","[""trial_right_box"",""trial_sharp_left_box""]",0,13,13,94,1,treehouse.jpg,staircase6.jpg,weightroom.jpg,trainStation3.jpg,,
Image_List_2,,,,,,,,,,,,,,,,44025,2020-11-20_22h08.57.691,lingCatScenes,2020.1.3,Win32,60,"[1366,768]",,,"[""trial_sharp_left_box"",""trial_sharp_right_box""]",,,,,,,,,,,,bar2.jpg,space,4.78952,"[-0.61328125,0.6236979166666666]","[-0.2825520833333333,-0.2994791666666667]","[1,1]","[0,0]","[0,0]","[1.6047949999338016,2.9771349999355152]","[""trial_sharp_left_box"",""trial_sharp_right_box""]",0,14,14,9,1,auto_showroom3.jpg,ballroom2.jpg,basement5.jpg,arcade2.jpg,,
Image_List_2,,,,,,,,,,,,,,,,44025,2020-11-20_22h08.57.691,lingCatScenes,2020.1.3,Win32,60,"[1366,768]",,,"[""trial_ahead_box""]",,,,,,,,,,,,playroom6.jpg,space,2.509965,[0.00390625],[-0.2838541666666667],[1],[0],[0],[2.0591750000603497],"[""trial_ahead_box""]",0,15,15,77,1,parkinggarage2.jpg,pasture9.jpg,park8.jpg,mallindoor6.jpg,,
Image_List_2,,,,,,,,,,,,,,,,44025,2020-11-20_22h08.57.691,lingCatScenes,2020.1.3,Win32,60,"[1366,768]",,,"[""trial_left_box""]",,,,,,,,,,,,diner12.jpg,space,1.791125,[-0.4114583333333333],[-0.3216145833333333],[1],[0],[0],[1.5346400000853464],"[""trial_left_box""]",0,16,16,32,1,dancestudio6.jpg,constructionSite2.jpg,dentist4.jpg,cabin4.jpg,,
Image_List_2,,,,,,,,,,,,,,,,44025,2020-11-20_22h08.57.691,lingCatScenes,2020.1.3,Win32,60,"[1366,768]",,,"[""trial_ahead_box""]",,,,,,,,,,,,attic1.jpg,space,3.995625,"[0.02734375,0]","[-0.3098958333333333,-0.3059895833333333]","[1,1]","[0,0]","[0,0]","[2.015944999991916,3.1378699999768287]","[""trial_ahead_box""]",0,17,17,3,1,apartmentBuilding2.jpg,aquarium1.jpg,appleorchard2.jpg,alley3.jpg,,
Image_List_2,,,,,,,,,,,,,,,,44025,2020-11-20_22h08.57.691,lingCatScenes,2020.1.3,Win32,60,"[1366,768]",,,"[""trial_ahead_box"",""trial_slight_left_box"",""trial_left_box"",""trial_slight_right_box"",""trial_right_box""]",,,,,,,,,,,,park7.jpg,space,5.04496,"[0,-0.21744791666666666,-0.3958333333333333,0.20572916666666666,0.421875]","[-0.3059895833333333,-0.296875,-0.2877604166666667,-0.2994791666666667,-0.2877604166666667]","[1,1,1,1,1]","[0,0,0,0,0]","[0,0,0,0,0]","[1.4881850000238046,2.208740000030957,2.9621599999954924,3.8672350000124425,4.687329999986105]","[""trial_ahead_box"",""trial_slight_left_box"",""trial_left_box"",""trial_slight_right_box"",""trial_right_box""]",0,18,18,67,1,library_aisle3.jpg,laundromat4.jpg,liquorstore2.jpg,hospitalroom2.jpg,,
Image_List_2,,,,,,,,,,,,,,,,44025,2020-11-20_22h08.57.691,lingCatScenes,2020.1.3,Win32,60,"[1366,768]",,,"[""trial_sharp_right_box"",""trial_right_box"",""trial_slight_right_box"",""trial_ahead_box"",""trial_slight_left_box"",""trial_left_box"",""trial_sharp_left_box""]",,,,,,,,,,,,sandDunes_desert_outdoor9.jpg,space,6.7409,"[0.5911458333333334,0.3841145833333333,0.21875,0.0013020833333333333,-0.21744791666666666,-0.3854166666666667,-0.5950520833333334]","[-0.3046875,-0.3046875,-0.30078125,-0.2864583333333333,-0.296875,-0.2864583333333333,-0.2877604166666667]","[1,1,1,1,1,1,1]","[0,0,0,0,0,0,0]","[0,0,0,0,0,0,0]","[2.1692650000331923,3.149165000068024,3.961775000090711,4.58374500006903,5.154220000025816,5.873395000002347,6.541045000078157]","[""trial_sharp_right_box"",""trial_right_box"",""trial_slight_right_box"",""trial_ahead_box"",""trial_slight_left_box"",""trial_left_box"",""trial_sharp_left_box""]",0,19,19,82,1,publicrestroom2.jpg,promenadeDeck3.jpg,readingroom4.jpg,postoffice4.jpg,,
Image_List_2,,,,,,,,,,,,,,,,44025,2020-11-20_22h08.57.691,lingCatScenes,2020.1.3,Win32,60,"[1366,768]",,,"[""trial_sharp_left_box"",""trial_sharp_right_box""]",,,,,,,,,,,,grocerystore6.jpg,space,5.455675,"[-0.6315104166666666,-0.5963541666666666,0.5716145833333334,0.6002604166666666]","[-0.3046875,-0.2877604166666667,-0.2734375,-0.2955729166666667]","[1,1,1,1]","[0,0,0,0]","[0,0,0,0]","[1.2122300000628456,2.7837900000158697,4.312760000000708,4.928285000030883]","[""trial_sharp_left_box"",""trial_sharp_right_box""]",0,20,20,50,1,frontLawn4.jpg,forestpath6.jpg,hallway2.jpg,fireplace4.jpg,,
Image_List_2,,,,,,,,,,,,,,,,44025,2020-11-20_22h08.57.691,lingCatScenes,2020.1.3,Win32,60,"[1366,768]",,,"[""trial_ahead_box"",""trial_slight_right_box"",""trial_slight_left_box""]",,,,,,,,,,,,track5.jpg,space,7.093325,"[0.00390625,0.22526041666666666,0.20572916666666666,-0.22265625]","[-0.3125,-0.2864583333333333,-0.3190104166666667,-0.2838541666666667]","[1,1,1,1]","[0,0,0,0]","[0,0,0,0]","[2.905449999962002,4.7962599999736995,6.071249999920838,6.740714999963529]","[""trial_ahead_box"",""trial_slight_right_box"",""trial_slight_left_box""]",0,21,21,89,1,ruralroad7.jpg,ShowJumping7.jpg,staircase7.jpg,sculpturegarden3.jpg,,
Image_List_2,,,,,,,,,,,,,,,,44025,2020-11-20_22h08.57.691,lingCatScenes,2020.1.3,Win32,60,"[1366,768]",,,"[""trial_left_box""]",,,,,,,,,,,,jail1.jpg,space,1.88466,[-0.390625],[-0.3072916666666667],[1],[0],[0],[1.4719650000333786],"[""trial_left_box""]",0,22,22,57,1,hayfield5.jpg,hallway4.jpg,hut5.jpg,gazebo.jpg,,
Image_List_2,,,,,,,,,,,,,,,,44025,2020-11-20_22h08.57.691,lingCatScenes,2020.1.3,Win32,60,"[1366,768]",,,"[""trial_ahead_box"",""trial_right_box"",""trial_sharp_left_box"",""trial_left_box""]",,,,,,,,,,,,playground10.jpg,space,8.45815,"[0.026041666666666668,0.00390625,0.3997395833333333,0.3997395833333333,-0.609375,-0.4036458333333333]","[-0.2955729166666667,-0.2903645833333333,-0.2682291666666667,-0.2877604166666667,-0.2981770833333333,-0.3138020833333333]","[1,1,1,1,1,1]","[0,0,0,0,0,0]","[0,0,0,0,0,0]","[1.7714550000382587,3.011140000075102,4.116275000036694,4.7860400000354275,5.808010000037029,8.200055000022985]","[""trial_ahead_box"",""trial_right_box"",""trial_sharp_left_box"",""trial_left_box""]",0,23,23,74,1,newsstand2.jpg,observatory4.jpeg,operatingroom1.jpg,lightingstore2.jpg,,
Image_List_2,,,,,,,,,,,,,,,,44025,2020-11-20_22h08.57.691,lingCatScenes,2020.1.3,Win32,60,"[1366,768]",,,"[""trial_ahead_box"",""trial_slight_right_box""]",,,,,,,,,,,,hotelRoom3.jpg,space,2.922145,"[0.0078125,0.19791666666666666]","[-0.2994791666666667,-0.2942708333333333]","[1,1]","[0,0]","[0,0]","[1.7437800000188872,2.532980000018142]","[""trial_ahead_box"",""trial_slight_right_box""]",0,24,24,55,1,greenmountains.jpg,gazebo5.jpg,hotelRoom7.jpg,frontLawn2.jpg,,
Image_List_2,,,,,,,,,,,,,,,,44025,2020-11-20_22h08.57.691,lingCatScenes,2020.1.3,Win32,60,"[1366,768]",,,"[""trial_sharp_left_box"",""trial_sharp_right_box"",""trial_ahead_box""]",,,,,,,,,,,,firestation3.jpg,space,5.67858,"[-0.5885416666666666,0.6119791666666666,0.024739583333333332]","[-0.29296875,-0.2981770833333333,-0.2916666666666667]","[1,1,1]","[0,0,0]","[0,0,0]","[3.0771499999100342,4.535204999963753,5.406454999931157]","[""trial_sharp_left_box"",""trial_sharp_right_box"",""trial_ahead_box""]",0,25,25,42,1,exerciseequipment3.jpg,drymountains6.jpg,farm4.jpg,desertvegetation2.jpg,,
Image_List_2,,,,,,,,,,,,,,,,44025,2020-11-20_22h08.57.691,lingCatScenes,2020.1.3,Win32,60,"[1366,768]",,,"[""trial_left_box""]",,,,,,,,,,,,stripmall.jpg,space,2.369625,[-0.41796875],[-0.3072916666666667],[1],[0],[0],[1.9041799999540672],"[""trial_left_box""]",0,26,26,86,1,restaurant14.jpg,ruralroad3.jpg,sandDunes_desert_outdoor8.jpg,rooftop4.jpg,,
Image_List_2,,,,,,,,,,,,,,,,44025,2020-11-20_22h08.57.691,lingCatScenes,2020.1.3,Win32,60,"[1366,768]",,,"[""trial_ahead_box""]",,,,,,,,,,,,hallway5.jpg,space,2.79317,[0.005208333333333333],[-0.2799479166666667],[1],[0],[0],[1.6342449999647215],"[""trial_ahead_box""]",0,27,27,51,1,gasstation6.jpg,frontDoor5.jpg,hayfield4.jpg,firestation5.jpg,,
Image_List_2,,,,,,,,,,,,,,,,44025,2020-11-20_22h08.57.691,lingCatScenes,2020.1.3,Win32,60,"[1366,768]",,,"[""trial_ahead_box""]",,,,,,,,,,,,desertvegetation6.jpg,space,2.16142,[0.005208333333333333],[-0.2799479166666667],[1],[0],[0],[1.8054550000233576],"[""trial_ahead_box""]",0,28,28,31,1,cubicle4.jpg,conference4.jpg,courtroom2.jpg,cabin3.jpg,,
Image_List_2,,,,,,,,,,,,,,,,44025,2020-11-20_22h08.57.691,lingCatScenes,2020.1.3,Win32,60,"[1366,768]",,,"[""trial_slight_right_box"",""trial_sharp_left_box""]",,,,,,,,,,,,baggageClaim2.jpg,space,5.7688,"[0.18098958333333334,-0.4075520833333333,-0.6002604166666666,-0.4010416666666667]","[-0.3033854166666667,-0.3177083333333333,-0.3098958333333333,-0.2994791666666667]","[1,1,1,1]","[0,0,0,0]","[0,0,0,0]","[1.8038399999495596,2.9738449999131262,4.029289999976754,4.700099999899976]","[""trial_slight_right_box"",""trial_left_box"",""trial_sharp_left_box"",""trial_left_box""]",0,29,29,4,1,artStudio1.jpg,auto_showroom1.jpg,appleorchard3.jpg,alley4.jpg,,
Image_List_2,,,,,,,,,,,,,,,,44025,2020-11-20_22h08.57.691,lingCatScenes,2020.1.3,Win32,60,"[1366,768]",,,"[""trial_slight_right_box""]",,,,,,,,,,,,alley2.jpg,space,2.110695,[0.20963541666666666],[-0.3151041666666667],[1],[0],[0],[1.7581050000153482],"[""trial_slight_right_box""]",0,30,30,0,1,airplanecabin1.jpg,appleorchard4.jpg,airplanecabin5.jpg,airplanecabin3.jpg,,
Image_List_2,,,,,,,,,,,,,,,,44025,2020-11-20_22h08.57.691,lingCatScenes,2020.1.3,Win32,60,"[1366,768]",,,"[""trial_ahead_box"",""trial_slight_right_box""]",,,,,,,,,,,,lab1.jpg,space,3.11574,"[-0.0026041666666666665,0.19921875]","[-0.3111979166666667,-0.3033854166666667]","[1,1]","[0,0]","[0,0]","[1.6049699999857694,2.82425000006333]","[""trial_ahead_box"",""trial_slight_right_box""]",0,31,31,58,1,highway7.jpg,hedgemaze1.jpg,igloo4.jpg,grocerystore2.jpg,,
Image_List_2,,,,,,,,,,,,,,,,44025,2020-11-20_22h08.57.691,lingCatScenes,2020.1.3,Win32,60,"[1366,768]",,,"[""trial_left_box"",""trial_right_box""]",,,,,,,,,,,,farm3.jpg,space,3.61791,"[-0.3971354166666667,0.4166666666666667]","[-0.3020833333333333,-0.28125]","[1,1]","[0,0]","[0,0]","[1.9723900000099093,3.1085549999261275]","[""trial_left_box"",""trial_right_box""]",0,32,32,41,1,dugout4.jpg,drymountains3.jpg,fabricstore1.jpg,dentist2.jpg,,
Image_List_2,,,,,,,,,,,,,,,,44025,2020-11-20_22h08.57.691,lingCatScenes,2020.1.3,Win32,60,"[1366,768]",,,"[""trial_ahead_box""]",,,,,,,,,,,,library_aisle8.jpg,space,3.649545,"[-0.03515625,-0.0013020833333333333,-0.22916666666666666]","[-0.3268229166666667,-0.32421875,-0.2981770833333333]","[1,1,1]","[0,0,0]","[0,0,0]","[1.6751899999799207,2.539754999917932,3.297840000013821]","[""trial_ahead_box""]",0,33,33,59,1,homegarden7.jpg,highway4.jpg,kindergarten_classroom5.jpg,grocerystore3.jpg,,
Image_List_2,,,,,,,,,,,,,,,,44025,2020-11-20_22h08.57.691,lingCatScenes,2020.1.3,Win32,60,"[1366,768]",,,"[""trial_right_box"",""trial_sharp_left_box""]",,,,,,,,,,,,arcade1.jpg,space,5.11475,"[0.3697916666666667,0.4010416666666667,-0.6080729166666666]","[-0.2942708333333333,-0.30078125,-0.3111979166666667]","[1,1,1]","[0,0,0]","[0,0,0]","[2.4371500000124797,3.428569999989122,4.7984700000379235]","[""trial_right_box"",""trial_sharp_left_box""]",0,34,34,2,1,alley1.jpg,applestore6.jpg,apartmentBuilding4.jpg,airportTerminal6.jpg,,
Image_List_2,,,,,,,,,,,,,,,,44025,2020-11-20_22h08.57.691,lingCatScenes,2020.1.3,Win32,60,"[1366,768]",,,"[""trial_right_box"",""trial_left_box""]",,,,,,,,,,,,banquetHall2.jpg,space,3.62261,"[0.3997395833333333,-0.3893229166666667]","[-0.2994791666666667,-0.2890625]","[1,1]","[0,0]","[0,0]","[2.454150000005029,3.422664999961853]","[""trial_right_box"",""trial_left_box""]",0,35,35,6,1,ATM1.jpg,auto_showroom5.jpg,baggageClaim1.jpg,apartmentBuilding3.jpg,,
Image_List_2,,,,,,,,,,,,,,,,44025,2020-11-20_22h08.57.691,lingCatScenes,2020.1.3,Win32,60,"[1366,768]",,,"[""trial_ahead_box""]",,,,,,,,,,,,photographer_studio2.jpg,space,1.870545,[0.015625],[-0.31640625],[1],[0],[0],[1.5627800000365824],"[""trial_ahead_box""]",0,36,36,73,1,musicStore3.jpg,nursery.jpg,nursery4.jpg,library_aisle9.jpg,,
Image_List_2,,,,,,,,,,,,,,,,44025,2020-11-20_22h08.57.691,lingCatScenes,2020.1.3,Win32,60,"[1366,768]",,,"[""trial_ahead_box"",""trial_slight_left_box"",""trial_slight_right_box""]",,,,,,,,,,,,volleyballcourt.jpg,space,5.00652,"[0.01171875,-0.21484375,0.1953125]","[-0.3125,-0.3111979166666667,-0.2955729166666667]","[1,1,1]","[0,0,0]","[0,0,0]","[1.6904550000326708,3.781425000051968,4.64945499994792]","[""trial_ahead_box"",""trial_slight_left_box"",""trial_slight_right_box""]",0,37,37,92,1,staircase.jpg,skatepark7.jpg,tvstudio2.jpg,soccerfield2.jpg,,
Image_List_2,,,,,,,,,,,,,,,,44025,2020-11-20_22h08.57.691,lingCatScenes,2020.1.3,Win32,60,"[1366,768]",,,"[""trial_ahead_box"",""trial_left_box"",""trial_right_box""]",,,,,,,,,,,,golfcourse6.jpg,space,4.3472,"[0.010416666666666666,-0.3815104166666667,0.41015625]","[-0.30859375,-0.3229166666666667,-0.29296875]","[1,1,1]","[0,0,0]","[0,0,0]","[1.664489999995567,2.6394449999788776,3.7913549999939278]","[""trial_ahead_box"",""trial_left_box"",""trial_right_box""]",0,38,38,48,1,frontDoor2.jpg,fittingroom5.jpg,golfcourse7.jpg,fabricstore2.jpg,,
Image_List_2,,,,,,,,,,,,,,,,44025,2020-11-20_22h08.57.691,lingCatScenes,2020.1.3,Win32,60,"[1366,768]",,,"[""trial_ahead_box"",""trial_slight_right_box""]",,,,,,,,,,,,frontFoyer4.jpg,space,2.566075,"[-0.022135416666666668,0.18619791666666666]","[-0.3033854166666667,-0.296875]","[1,1]","[0,0]","[0,0]","[1.5886650000466034,2.3074600000400096]","[""trial_ahead_box"",""trial_slight_right_box""]",0,39,39,44,1,firestation2.jpg,elevatorOutside1.jpg,foodcourt6.jpg,dock2.jpg,,
Image_List_2,,,,,,,,,,,,,,,,44025,2020-11-20_22h08.57.691,lingCatScenes,2020.1.3,Win32,60,"[1366,768]",,,"[""trial_ahead_box""]",,,,,,,,,,,,barbershop3.jpg,space,1.767635,[0.00390625],[-0.3072916666666667],[1],[0],[0],[1.3515749999787658],"[""trial_ahead_box""]",0,40,40,10,1,backstage2.jpg,ballroom4.jpg,basketballcourt3.jpg,ATM4.jpg,,
Image_List_2,,,,,,,,,,,,,,,,44025,2020-11-20_22h08.57.691,lingCatScenes,2020.1.3,Win32,60,"[1366,768]",,,"[""trial_ahead_box""]",,,,,,,,,,,,metroInside4.jpg,space,1.35991,[-0.0078125],[-0.3072916666666667],[1],[0],[0],[0.9520750000374392],"[""trial_ahead_box""]",0,41,41,61,1,HorseRaceTrack.jpg,homegarden6.jpg,kindergarten_classroom7.jpg,hayfield6.jpg,,
Image_List_2,,,,,,,,,,,,,,,,44025,2020-11-20_22h08.57.691,lingCatScenes,2020.1.3,Win32,60,"[1366,768]",,,"[""trial_ahead_box""]",,,,,,,,,,,,trainStation1.jpg,space,4.87358,"[-0.037760416666666664,-0.0013020833333333333]","[-0.3033854166666667,-0.3098958333333333]","[1,1]","[0,0]","[0,0]","[1.3366900000255555,2.1083700000308454]","[""trial_ahead_box""]",0,42,42,90,1,savanna5.jpg,sidewalk1.jpg,stripmall3.jpg,shoestore4.jpg,,
Image_List_2,,,,,,,,,,,,,,,,44025,2020-11-20_22h08.57.691,lingCatScenes,2020.1.3,Win32,60,"[1366,768]",,,"[""trial_slight_left_box""]",,,,,,,,,,,,cliff3.jpg,space,2.674885,[-0.20442708333333334],[-0.2955729166666667],[1],[0],[0],[1.983005000045523],"[""trial_slight_left_box""]",0,43,43,24,1,campsite.jpg,cave6.jpg,cemetery5.jpg,boardwalk.jpg,,
Image_List_2,,,,,,,,,,,,,,,,44025,2020-11-20_22h08.57.691,lingCatScenes,2020.1.3,Win32,60,"[1366,768]",,,"[""trial_ahead_box"",""trial_left_box"",""trial_right_box""]",,,,,,,,,,,,campsite6.jpg,space,5.135485,"[0.02734375,0,-0.3854166666666667,0.39453125]","[-0.30859375,-0.28515625,-0.2838541666666667,-0.2981770833333333]","[1,1,1,1]","[0,0,0,0]","[0,0,0,0]","[1.936464999918826,2.8884499999694526,3.858574999962002,4.8346749999327585]","[""trial_ahead_box"",""trial_left_box"",""trial_right_box""]",0,44,44,17,1,bikerack1.jpg,breakroom4.jpg,carmechanic.jpg,baseball6.jpg,,
Image_List_2,,,,,,,,,,,,,,,,44025,2020-11-20_22h08.57.691,lingCatScenes,2020.1.3,Win32,60,"[1366,768]",,,"[""trial_sharp_left_box"",""trial_sharp_right_box""]",,,,,,,,,,,,casino3.jpg,space,4.17903,"[-0.61328125,0.59375]","[-0.2864583333333333,-0.29296875]","[1,1]","[0,0]","[0,0]","[2.4032400000141934,3.8269699999364093]","[""trial_sharp_left_box"",""trial_sharp_right_box""]",0,45,45,19,1,boardwalk2.jpg,cafeteria1.jpg,castle4.jpg,basketballcourt.jpg,,
Image_List_2,,,,,,,,,,,,,,,,44025,2020-11-20_22h08.57.691,lingCatScenes,2020.1.3,Win32,60,"[1366,768]",,,"[""trial_slight_right_box""]",,,,,,,,,,,,hut3.jpg,space,3.516565,"[0.21354166666666666,0.21223958333333334]","[-0.2669270833333333,-0.2864583333333333]","[1,1]","[0,0]","[0,0]","[1.504700000048615,2.625080000027083]","[""trial_slight_right_box""]",0,46,46,56,1,grocerystore5.jpg,golfcourse10.jpg,hut1.jpg,gasstation2.jpg,,
Image_List_2,,,,,,,,,,,,,,,,44025,2020-11-20_22h08.57.691,lingCatScenes,2020.1.3,Win32,60,"[1366,768]",,,"[""trial_left_box""]",,,,,,,,,,,,office3.jpg,space,2.934715,"[-0.4010416666666667,-0.3997395833333333]","[-0.3463541666666667,-0.3203125]","[1,1]","[0,0]","[0,0]","[2.0605599998962134,2.627754999906756]","[""trial_left_box""]",0,47,47,66,1,library_aisle10.jpg,laundromat3.jpg,liquorstore.jpg,horsebarn9.jpg,,
Image_List_2,,,,,,,,,,,,,,,,44025,2020-11-20_22h08.57.691,lingCatScenes,2020.1.3,Win32,60,"[1366,768]",,,"[""trial_right_box"",""trial_ahead_box""]",,,,,,,,,,,,cafeteria5.jpg,space,5.458235,"[0.375,0.375,0.3763020833333333,0.0078125]","[-0.2877604166666667,-0.2877604166666667,-0.2890625,-0.3059895833333333]","[1,1,1,1]","[0,0,0,0]","[0,0,0,0]","[2.223505000001751,3.1823749999748543,4.148460000054911,5.070685000042431]","[""trial_right_box"",""trial_ahead_box""]",0,48,48,15,1,bambooforest4.jpg,bleachers8.jpg,cabinIndoors.jpg,bar8.jpg,,
Image_List_2,,,,,,,,,,,,,,,,44025,2020-11-20_22h08.57.691,lingCatScenes,2020.1.3,Win32,60,"[1366,768]",,,"[""trial_ahead_box""]",,,,,,,,,,,,wineVineyard8.jpg,space,1.729675,[0.0078125],[-0.3059895833333333],[1],[0],[0],[1.1538600000785664],"[""trial_ahead_box""]",0,49,49,98,1,weightroom5.jpg,warehouse3.jpg,winebarrel4.jpg,winebarrel2.jpg,,
Image_List_2,,,,,,,,,,,,,,,,44025,2020-11-20_22h08.57.691,lingCatScenes,2020.1.3,Win32,60,"[1366,768]",,,"[""trial_ahead_box""]",,,,,,,,,,,,theater2.jpg,space,3.13324,"[0,0]","[-0.328125,-0.30859375]","[1,1]","[0,0]","[0,0]","[1.8052099999040365,2.7773299999535084]","[""trial_ahead_box""]",0,50,50,87,1,restaurantkitchen2.jpg,savanna.jpg,sculpturegarden2.jpg,RVinside2.jpg,,
Image_List_2,,,,,,,,,,,,,,,,44025,2020-11-20_22h08.57.691,lingCatScenes,2020.1.3,Win32,60,"[1366,768]",,,"[""trial_left_box""]",,,,,,,,,,,,minigolf.jpg,space,4.905245,[-0.4010416666666667],[-0.32421875],[1],[0],[0],[3.0459549999795854],"[""trial_left_box""]",0,51,51,62,1,hotellobby2.jpg,horsebarn8.jpg,lab3.jpg,hayfield7.jpg,,
Image_List_2,,,,,,,,,,,,,,,,44025,2020-11-20_22h08.57.691,lingCatScenes,2020.1.3,Win32,60,"[1366,768]",,,[],,,,,,,,,,,,apartmentBuilding1.jpg,space,1.92273,[0.0078125],[-0.328125],[1],[0],[0],[1.5563350000884384],[],0,52,52,1,1,airportTerminal4.jpg,applestore1.jpg,airportTerminal3.jpg,airportTerminal2.jpg,,
Image_List_2,,,,,,,,,,,,,,,,44025,2020-11-20_22h08.57.691,lingCatScenes,2020.1.3,Win32,60,"[1366,768]",,,"[""trial_ahead_box"",""trial_slight_right_box""]",,,,,,,,,,,,driveway4.jpg,space,4.16387,"[-0.005208333333333333,0.22786458333333334,0.19661458333333334]","[-0.2903645833333333,-0.3059895833333333,-0.3072916666666667]","[1,1,1]","[0,0,0]","[0,0,0]","[1.9720599999418482,2.994025000021793,3.6441199999535456]","[""trial_ahead_box"",""trial_slight_right_box""]",0,53,53,37,1,dining_car.jpg,dinosaur4.jpg,driveway7.jpg,citystreet9.jpg,,
Image_List_2,,,,,,,,,,,,,,,,44025,2020-11-20_22h08.57.691,lingCatScenes,2020.1.3,Win32,60,"[1366,768]",,,"[""trial_slight_right_box""]",,,,,,,,,,,,homeoffice.jpg,space,7.93741,[0.2109375],[-0.3098958333333333],[1],[0],[0],[1.4524299999466166],"[""trial_slight_right_box""]",0,54,54,53,1,gazebo3.jpg,frontLawn3.jpg,homegarage3.jpg,fountain.jpg,,
Image_List_2,,,,,,,,,,,,,,,,44025,2020-11-20_22h08.57.691,lingCatScenes,2020.1.3,Win32,60,"[1366,768]",,,"[""trial_sharp_left_box"",""trial_sharp_right_box""]",,,,,,,,,,,,courtroom3.jpg,space,19.289405,"[-0.6328125,-0.5859375,0.6276041666666666,0.60546875]","[-0.2838541666666667,-0.3125,-0.2981770833333333,-0.30859375]","[1,1,1,1]","[0,0,0,0]","[0,0,0,0]","[15.568194999941625,16.489449999993667,17.69177499995567,18.412704999907874]","[""trial_sharp_left_box"",""trial_sharp_right_box""]",0,55,55,27,1,castle3.jpg,churchInside4.jpg,closet.jpg,brewery2.jpg,,
Image_List_2,,,,,,,,,,,,,,,,44025,2020-11-20_22h08.57.691,lingCatScenes,2020.1.3,Win32,60,"[1366,768]",,,"[""trial_ahead_box""]",,,,,,,,,,,,pharmacy4.jpg,space,5.9938,"[-0.028645833333333332,-0.0078125]","[-0.2942708333333333,-0.3020833333333333]","[1,1]","[0,0]","[0,0]","[2.7989300000481308,5.323810000088997]","[""trial_ahead_box""]",0,56,56,72,1,museum5.jpg,musicStore1.jpg,museum4.jpg,kindergarten_classroom.jpg,,
Image_List_2,,,,,,,,,,,,,,,,44025,2020-11-20_22h08.57.691,lingCatScenes,2020.1.3,Win32,60,"[1366,768]",,,"[""trial_left_box"",""trial_right_box""]",,,,,,,,,,,,eyeglassstore9.jpg,space,35.91287,"[-0.4140625,0.39453125]","[-0.2981770833333333,-0.2994791666666667]","[1,1]","[0,0]","[0,0]","[34.42068500001915,35.609504999942146]","[""trial_left_box"",""trial_right_box""]",0,57,57,39,1,driveway6.jpg,drycleaners6.jpg,drymountains5.jpg,cliff5.jpg,,
Image_List_2,,,,,,,,,,,,,,,,44025,2020-11-20_22h08.57.691,lingCatScenes,2020.1.3,Win32,60,"[1366,768]",,,"[""trial_ahead_box""]",,,,,,,,,,,,sidewalk5.jpg,space,1.81209,[0.0078125],[-0.3033854166666667],[1],[0],[0],[1.325650000013411],"[""trial_ahead_box""]",0,58,58,85,1,recordingstudio4.jpg,ruralroad2.jpg,sandDunes_desert_outdoor3.jpg,rooftop3.jpg,,
Image_List_2,,,,,,,,,,,,,,,,44025,2020-11-20_22h08.57.691,lingCatScenes,2020.1.3,Win32,60,"[1366,768]",,,"[""trial_slight_left_box"",""trial_right_box""]",,,,,,,,,,,,newsstand5.jpg,space,2.988575,"[-0.20963541666666666,0.4192708333333333]","[-0.3059895833333333,-0.2994791666666667]","[1,1]","[0,0]","[0,0]","[1.6292100000428036,2.6952799999853596]","[""trial_slight_left_box"",""trial_right_box""]",0,59,59,64,1,igloo2.jpg,jewelrystore8.jpg,lab5.jpg,homegarage2.jpg,,
Image_List_2,,,,,,,,,,,,,,,,44025,2020-11-20_22h08.57.691,lingCatScenes,2020.1.3,Win32,60,"[1366,768]",,,"[""trial_left_box"",""trial_ahead_box""]",,,,,,,,,,,,racecarcourse2.jpg,space,7.469325,"[-0.3854166666666667,-0.0026041666666666665]","[-0.3020833333333333,-0.3098958333333333]","[1,1]","[0,0]","[0,0]","[5.390325000043958,6.866389999981038]","[""trial_left_box"",""trial_ahead_box""]",0,60,60,80,1,pavilion2.jpg,porch.jpg,poolhall5.jpg,parkinggarage4.jpg,,
Image_List_2,,,,,,,,,,,,,,,,44025,2020-11-20_22h08.57.691,lingCatScenes,2020.1.3,Win32,60,"[1366,768]",,,"[""trial_ahead_box""]",,,,,,,,,,,,pavilion.jpg,space,5.090915,[-0.0026041666666666665],[-0.3033854166666667],[1],[0],[0],[1.9033550000749528],"[""trial_ahead_box""]",0,61,61,70,1,lockerroom4.jpg,lockerroom3.jpg,minigolf8.jpg,igloo.jpg,,
Image_List_2,,,,,,,,,,,,,,,,44025,2020-11-20_22h08.57.691,lingCatScenes,2020.1.3,Win32,60,"[1366,768]",,,"[""trial_slight_right_box""]",,,,,,,,,,,,poolhall2.jpeg,space,2.971045,[0.18098958333333334],[-0.2994791666666667],[1],[0],[0],[2.6576000000350177],"[""trial_slight_right_box""]",0,62,62,79,1,pasture.jpg,playground9.jpg,pier2.jpg,observatory2.jpg,,
Image_List_2,,,,,,,,,,,,,,,,44025,2020-11-20_22h08.57.691,lingCatScenes,2020.1.3,Win32,60,"[1366,768]",,,"[""trial_sharp_left_box""]",,,,,,,,,,,,diningroom1.jpg,space,2.745365,"[-0.6419270833333334,-0.6106770833333334]","[-0.28515625,-0.3098958333333333]","[1,1]","[0,0]","[0,0]","[1.7189900000812486,2.491165000014007]","[""trial_sharp_left_box""]",0,63,63,33,1,deck1.jpg,courthouse2.jpg,diner10.jpg,cabinIndoors5.jpg,,
Image_List_2,,,,,,,,,,,,,,,,44025,2020-11-20_22h08.57.691,lingCatScenes,2020.1.3,Win32,60,"[1366,768]",,,"[""trial_ahead_box""]",,,,,,,,,,,,cemetery6.jpg,space,6.89935,"[-0.0078125,0.3958333333333333,0.3958333333333333]","[-0.3111979166666667,-0.2955729166666667,-0.2955729166666667]","[1,1,1]","[0,0,0]","[0,0,0]","[3.131790000014007,6.380955000058748,6.496215000050142]","[""trial_ahead_box"",""trial_right_box"",""trial_right_box""]",0,64,64,21,1,botanicalGarden6.jpg,campusquad3.jpg,cave5.jpg,beach1.jpeg,,
Image_List_2,,,,,,,,,,,,,,,,44025,2020-11-20_22h08.57.691,lingCatScenes,2020.1.3,Win32,60,"[1366,768]",,,"[""trial_slight_left_box"",""trial_slight_right_box""]",,,,,,,,,,,,bowlingalley3.jpg,space,5.81608,"[-0.19661458333333334,0.18229166666666666]","[-0.3046875,-0.30859375]","[1,1]","[0,0]","[0,0]","[4.590014999965206,5.555994999944232]","[""trial_slight_left_box"",""trial_slight_right_box""]",0,65,65,13,1,balconyIN2.jpg,beach2.jpg,boardwalk4.jpg,backyard6.jpg,,
Image_List_2,,,,,,,,,,,,,,,,44025,2020-11-20_22h08.57.691,lingCatScenes,2020.1.3,Win32,60,"[1366,768]",,,"[""trial_left_box""]",,,,,,,,,,,,wineVineyard2.jpg,space,1.91508,[-0.41015625],[-0.29296875],[1],[0],[0],[1.573259999975562],"[""trial_left_box""]",0,66,66,97,1,warehouseoutside4.jpg,waitingroom4.jpg,winebarrel3.jpg,warehouseoutside3.jpg,,
Image_List_2,,,,,,,,,,,,,,,,44025,2020-11-20_22h08.57.691,lingCatScenes,2020.1.3,Win32,60,"[1366,768]",,,"[""trial_left_box""]",,,,,,,,,,,,breakroom5.jpg,space,1.741115,[-0.4049479166666667],[-0.3138020833333333],[1],[0],[0],[1.4677350000711158],"[""trial_left_box""]",0,67,67,14,1,ballroom1.jpg,bistrooutdoor5.jpg,botanicalGarden5.jpg,ballroom3.jpg,,
Image_List_2,,,,,,,,,,,,,,,,44025,2020-11-20_22h08.57.691,lingCatScenes,2020.1.3,Win32,60,"[1366,768]",,,"[""trial_right_box"",""trial_ahead_box""]",,,,,,,,,,,,dancestudio5.jpg,space,3.075065,"[0.3841145833333333,0.013020833333333334]","[-0.2916666666666667,-0.2942708333333333]","[1,1]","[0,0]","[0,0]","[1.852184999966994,2.820259999949485]","[""trial_right_box"",""trial_ahead_box""]",0,68,68,28,1,churchInside1.jpg,citystreet10.jpg,clothingstore5.jpg,bridalboutique2.jpg,,
Image_List_2,,,,,,,,,,,,,,,,44025,2020-11-20_22h08.57.691,lingCatScenes,2020.1.3,Win32,60,"[1366,768]",,,"[""trial_ahead_box"",""trial_left_box"",""trial_right_box""]",,,,,,,,,,,,church6.jpg,space,5.194345,"[0.02734375,-0.0026041666666666665,-0.390625,0.4127604166666667]","[-0.3190104166666667,-0.2942708333333333,-0.2981770833333333,-0.2955729166666667]","[1,1,1,1]","[0,0,0,0]","[0,0,0,0]","[1.8046249999897555,2.5275100000435486,3.9978500000433996,4.886025000014342]","[""trial_ahead_box"",""trial_left_box"",""trial_right_box""]",0,69,69,22,1,bowlingalley5.jpg,cargo5.jpg,cemetery.jpg,bistrooutdoor6.jpg,,
Image_List_2,,,,,,,,,,,,,,,,44025,2020-11-20_22h08.57.691,lingCatScenes,2020.1.3,Win32,60,"[1366,768]",,,"[""trial_ahead_box""]",,,,,,,,,,,,dock3.jpg,space,2.067295,[0.01171875],[-0.29296875],[1],[0],[0],[1.5330149999354035],"[""trial_ahead_box""]",0,70,70,35,1,deck5.jpg,cubicle7.jpg,dining_car6.jpg,carmechanic2.jpg,,
Image_List_2,,,,,,,,,,,,,,,,44025,2020-11-20_22h08.57.691,lingCatScenes,2020.1.3,Win32,60,"[1366,768]",,,"[""trial_slight_right_box""]",,,,,,,,,,,,poolhall1.jpg,space,1.745625,[0.17708333333333334],[-0.3020833333333333],[1],[0],[0],[1.4363499999744818],"[""trial_slight_right_box""]",0,71,71,78,1,parkinglot3.jpg,pier5.jpg,pavilion3.jpg,observatory1.jpg,,
Image_List_2,,,,,,,,,,,,,,,,44025,2020-11-20_22h08.57.691,lingCatScenes,2020.1.3,Win32,60,"[1366,768]",,,"[""trial_ahead_box""]",,,,,,,,,,,,playground6.jpg,space,2.074585,[0.01953125],[-0.3059895833333333],[1],[0],[0],[1.6016149999340996],"[""trial_ahead_box""]",0,72,72,75,1,pantry5.jpg,operatingroom4.jpg,park.jpg,lockerroom.jpg,,
Image_List_2,,,,,,,,,,,,,,,,44025,2020-11-20_22h08.57.691,lingCatScenes,2020.1.3,Win32,60,"[1366,768]",,,"[""trial_ahead_box""]",,,,,,,,,,,,cornfield4.jpg,space,1.52471,[-0.00390625],[-0.3059895833333333],[1],[0],[0],[1.1161700000520796],"[""trial_ahead_box""]",0,73,73,26,1,campusquad2.jpg,church4.jpg,churchInside3.jpg,botanicalGarden7.jpg,,
Image_List_2,,,,,,,,,,,,,,,,44025,2020-11-20_22h08.57.691,lingCatScenes,2020.1.3,Win32,60,"[1366,768]",,,"[""trial_left_box""]",,,,,,,,,,,,banquetHall4.jpg,space,1.78587,[-0.4049479166666667],[-0.2890625],[1],[0],[0],[1.5184849998913705],"[""trial_left_box""]",0,74,74,7,1,attic2.jpg,backstage1.jpg,baggageClaim3.jpg,applestore2.jpg,,
Image_List_2,,,,,,,,,,,,,,,,44025,2020-11-20_22h08.57.691,lingCatScenes,2020.1.3,Win32,60,"[1366,768]",,,"[""trial_ahead_box""]",,,,,,,,,,,,ruralroad5.jpg,space,9.125945,"[-0.00390625,-0.21223958333333334,-0.3880208333333333,-0.59765625,-0.5924479166666666,-0.39453125,-0.19791666666666666]","[-0.2981770833333333,-0.3098958333333333,-0.2981770833333333,-0.3033854166666667,-0.2955729166666667,-0.30078125,-0.2955729166666667]","[1,1,1,1,1,1,1]","[0,0,0,0,0,0,0]","[0,0,0,0,0,0,0]","[1.5024449999909848,3.029824999975972,3.796779999975115,4.72081500000786,6.591634999960661,7.294300000066869,7.9652700000442564]","[""trial_ahead_box"",""trial_slight_left_box"",""trial_left_box"",""trial_sharp_left_box"",""trial_sharp_left_box"",""trial_left_box"",""trial_slight_left_box""]",0,75,75,81,1,promenadeDeck.jpg,promenadeDeck2.jpg,rainforest5.jpg,pasture8.jpg,,
Image_List_2,,,,,,,,,,,,,,,,44025,2020-11-20_22h08.57.691,lingCatScenes,2020.1.3,Win32,60,"[1366,768]",,,"[""trial_ahead_box""]",,,,,,,,,,,,lightingstore3.jpg,space,2.09481,[-0.024739583333333332],[-0.2981770833333333],[1],[0],[0],[1.6032950000371784],"[""trial_ahead_box""]",0,76,76,60,1,hometheater2.jpg,homegarage.jpg,kindergarten_classroom6.jpg,hallway.jpg,,
Image_List_2,,,,,,,,,,,,,,,,44025,2020-11-20_22h08.57.691,lingCatScenes,2020.1.3,Win32,60,"[1366,768]",,,"[""trial_ahead_box""]",,,,,,,,,,,,frontLawn5.jpg,space,1.35807,[-0.024739583333333332],[-0.2981770833333333],[1],[0],[0],[1.0031350000062957],"[""trial_ahead_box""]",0,77,77,46,1,flowershop.jpg,farmersmarket4.jpg,fountain4.jpg,dormroom6.jpg,,
Image_List_2,,,,,,,,,,,,,,,,44025,2020-11-20_22h08.57.691,lingCatScenes,2020.1.3,Win32,60,"[1366,768]",,,"[""trial_slight_right_box""]",,,,,,,,,,,,volleyballcourt4.jpg,space,2.17769,[0.21223958333333334],[-0.2890625],[1],[0],[0],[1.4215100000146776],"[""trial_slight_right_box""]",0,78,78,93,1,tollbooth8.jpg,staircase4.jpg,warehouseoutside2.jpg,tenniscourt.jpg,,
Image_List_2,,,,,,,,,,,,,,,,44025,2020-11-20_22h08.57.691,lingCatScenes,2020.1.3,Win32,60,"[1366,768]",,,"[""trial_slight_left_box""]",,,,,,,,,,,,sidewalk2.jpg,space,1.556765,[-0.203125],[-0.30078125],[1],[0],[0],[1.3062399999471381],"[""trial_slight_left_box""]",0,79,79,84,1,readingroom5.jpg,restaurant13.jpg,sandDunes_desert_outdoor.jpg,rooftop2.jpg,,
Image_List_2,,,,,,,,,,,,,,,,44025,2020-11-20_22h08.57.691,lingCatScenes,2020.1.3,Win32,60,"[1366,768]",,,"[""trial_slight_right_box""]",,,,,,,,,,,,conference3.jpg,space,2.36586,[0.22395833333333334],[-0.3046875],[1],[0],[0],[1.6062750000273809],"[""trial_slight_right_box""]",0,80,80,25,1,campsite7.jpg,church3.jpg,checkoutcounter2.jpg,botanicalGarden4.jpg,,
Image_List_2,,,,,,,,,,,,,,,,44025,2020-11-20_22h08.57.691,lingCatScenes,2020.1.3,Win32,60,"[1366,768]",,,"[""trial_slight_right_box""]",,,,,,,,,,,,playroom4.jpg,space,2.69264,"[0.22526041666666666,0.18229166666666666]","[-0.3020833333333333,-0.2942708333333333]","[1,1]","[0,0]","[0,0]","[1.1651099999435246,2.3917900000233203]","[""trial_slight_right_box""]",0,81,81,76,1,parkinggarage.jpg,parkinggarage3.jpg,park2.jpg,lookout4.jpg,,
Image_List_2,,,,,,,,,,,,,,,,44025,2020-11-20_22h08.57.691,lingCatScenes,2020.1.3,Win32,60,"[1366,768]",,,"[""trial_left_box""]",,,,,,,,,,,,casino1.jpg,space,2.213585,[-0.3919270833333333],[-0.2981770833333333],[1],[0],[0],[1.9057849999517202],"[""trial_left_box""]",0,82,82,18,1,bleachers5.jpg,brewery4.jpg,castle2.jpg,basement6.jpg,,
Image_List_2,,,,,,,,,,,,,,,,44025,2020-11-20_22h08.57.691,lingCatScenes,2020.1.3,Win32,60,"[1366,768]",,,"[""trial_ahead_box""]",,,,,,,,,,,,desertvegetation3.jpg,space,3.10125,[-0.01171875],[-0.3020833333333333],[1],[0],[0],[1.6751100000692531],"[""trial_ahead_box""]",0,83,83,30,1,courthouse1.jpg,clothingstore2.jpg,copyroom2.jpg,bus_shelter3.jpg,,
Image_List_2,,,,,,,,,,,,,,,,44025,2020-11-20_22h08.57.691,lingCatScenes,2020.1.3,Win32,60,"[1366,768]",,,"[""trial_sharp_left_box"",""trial_sharp_right_box""]",,,,,,,,,,,,greenhouse5.jpg,space,4.31959,"[-0.60546875,0.5963541666666666]","[-0.3098958333333333,-0.3046875]","[1,1]","[0,0]","[0,0]","[2.0906899999827147,3.7633800000185147]","[""trial_sharp_left_box"",""trial_sharp_right_box""]",0,84,84,49,1,frontDoor3.jpg,flowershop3.jpg,greenhouse.jpg,farm2.jpg,,
Image_List_2,,,,,,,,,,,,,,,,44025,2020-11-20_22h08.57.691,lingCatScenes,2020.1.3,Win32,60,"[1366,768]",,,"[""trial_slight_right_box""]",,,,,,,,,,,,bedroom6.jpg,space,1.71419,[0.1953125],[-0.30859375],[1],[0],[0],[1.4598349999869242],"[""trial_slight_right_box""]",0,85,85,12,1,baggageClaim4.jpg,bambooforest5.jpg,bleachers7.jpg,backyard5.jpg,,
Image_List_2,,,,,,,,,,,,,,,,44025,2020-11-20_22h08.57.691,lingCatScenes,2020.1.3,Win32,60,"[1366,768]",,,"[""trial_ahead_box"",""trial_slight_right_box"",""trial_slight_left_box""]",,,,,,,,,,,,basketballcourt4.jpg,space,3.68397,"[0.005208333333333333,0.19010416666666666,-0.18880208333333334]","[-0.3138020833333333,-0.296875,-0.2825520833333333]","[1,1,1]","[0,0,0]","[0,0,0]","[1.4864550000056624,2.1545400000177324,3.330229999963194]","[""trial_ahead_box"",""trial_slight_right_box"",""trial_slight_left_box""]",0,86,86,11,1,backyard2.jpg,bambooforest3.jpg,baywindow5.jpg,backyard1.jpg,,
Image_List_2,,,,,,,,,,,,,,,,44025,2020-11-20_22h08.57.691,lingCatScenes,2020.1.3,Win32,60,"[1366,768]",,,"[""trial_slight_left_box""]",,,,,,,,,,,,church8.jpg,space,2.716985,[-0.21875],[-0.3098958333333333],[1],[0],[0],[2.3412849999731407],"[""trial_slight_left_box""]",0,87,87,23,1,bus_shelter.jpg,carmechanic4.jpeg,cemetery3.jpg,bleachers6.jpg,,
Image_List_2,,,,,,,,,,,,,,,,44025,2020-11-20_22h08.57.691,lingCatScenes,2020.1.3,Win32,60,"[1366,768]",,,"[""trial_ahead_box"",""trial_right_box""]",,,,,,,,,,,,warehouseoutside1.jpg,space,9.3248,"[0.016927083333333332,0.4036458333333333]","[-0.30859375,-0.2994791666666667]","[1,1]","[0,0]","[0,0]","[7.969515000004321,9.067475000047125]","[""trial_ahead_box"",""trial_right_box""]",0,88,88,96,1,warehouse4.jpg,tenniscourt3.jpg,windmill1.jpg,warehouse1.jpg,,
Image_List_2,,,,,,,,,,,,,,,,44025,2020-11-20_22h08.57.691,lingCatScenes,2020.1.3,Win32,60,"[1366,768]",,,"[""trial_ahead_box""]",,,,,,,,,,,,elevatorOutside4.jpg,space,1.873155,[-0.0026041666666666665],[-0.2799479166666667],[1],[0],[0],[1.5155800000065938],"[""trial_ahead_box""]",0,89,89,38,1,dining_car2.jpg,dock1.jpg,driveway8.jpg,classroom1.jpg,,
Image_List_2,,,,,,,,,,,,,,,,44025,2020-11-20_22h08.57.691,lingCatScenes,2020.1.3,Win32,60,"[1366,768]",,,"[""trial_ahead_box"",""trial_left_box"",""trial_right_box""]",,,,,,,,,,,,farm1.jpg,space,3.41668,"[0.01171875,-0.3815104166666667,0.3828125]","[-0.30859375,-0.2981770833333333,-0.2994791666666667]","[1,1,1]","[0,0,0]","[0,0,0]","[1.0867050000233576,2.290709999972023,3.158905000076629]","[""trial_ahead_box"",""trial_left_box"",""trial_right_box""]",0,90,90,40,1,drycleaners4.jpg,drymountains.jpg,dugout1.jpg,clothingstore3.jpg,,
Image_List_2,,,,,,,,,,,,,,,,44025,2020-11-20_22h08.57.691,lingCatScenes,2020.1.3,Win32,60,"[1366,768]",,,"[""trial_left_box""]",,,,,,,,,,,,museum6.jpg,space,1.82072,[-0.4140625],[-0.2994791666666667],[1],[0],[0],[1.5366800000192598],"[""trial_left_box""]",0,91,91,63,1,hut2.jpg,hotelRoom2.jpg,lab4.jpg,highway2.jpg,,
Image_List_2,,,,,,,,,,,,,,,,44025,2020-11-20_22h08.57.691,lingCatScenes,2020.1.3,Win32,60,"[1366,768]",,,"[""trial_left_box""]",,,,,,,,,,,,forestpath10.jpg,space,1.567715,[-0.4166666666666667],[-0.2838541666666667],[1],[0],[0],[1.3124750000424683],"[""trial_left_box""]",0,92,92,43,1,exerciseequipment5.jpg,dugout2.jpg,foodcourt.jpg,diningroom3.jpg,,
Image_List_2,,,,,,,,,,,,,,,,44025,2020-11-20_22h08.57.691,lingCatScenes,2020.1.3,Win32,60,"[1366,768]",,,"[""trial_slight_right_box""]",,,,,,,,,,,,gasstation8.jpg,space,2.427865,[0.19661458333333334],[-0.3046875],[1],[0],[0],[1.956815000041388],"[""trial_slight_right_box""]",0,93,93,47,1,frontDoor.jpg,firestation4.jpg,fountain7.jpg,elevatorOutside2.jpg,,
Image_List_2,,,,,,,,,,,,,,,,44025,2020-11-20_22h08.57.691,lingCatScenes,2020.1.3,Win32,60,"[1366,768]",,,"[""trial_ahead_box""]",,,,,,,,,,,,bambooforest.jpg,space,1.79584,[0.006510416666666667],[-0.2903645833333333],[1],[0],[0],[1.4927399998996407],"[""trial_ahead_box""]",0,94,94,5,1,artStudio3.jpg,auto_showroom4.jpg,attic4.jpg,amusement3.jpg,,
Image_List_2,,,,,,,,,,,,,,,,44025,2020-11-20_22h08.57.691,lingCatScenes,2020.1.3,Win32,60,"[1366,768]",,,"[""trial_slight_right_box""]",,,,,,,,,,,,hardwarestore1.jpg,space,1.964775,[0.18098958333333334],[-0.2903645833333333],[1],[0],[0],[1.6248400000622496],"[""trial_slight_right_box""]",0,95,95,52,1,gasstation7.jpg,frontFoyer6.jpg,highway.jpg,forestpath2.jpg,,
Image_List_2,,,,,,,,,,,,,,,,44025,2020-11-20_22h08.57.691,lingCatScenes,2020.1.3,Win32,60,"[1366,768]",,,"[""trial_ahead_box"",""trial_left_box""]",,,,,,,,,,,,parkinglot2.jpg,space,4.58107,"[-0.005208333333333333,-0.4322916666666667,-0.4088541666666667]","[-0.3033854166666667,-0.3033854166666667,-0.3020833333333333]","[1,1,1]","[0,0,0]","[0,0,0]","[1.1755950000369921,2.4971600000280887,4.290069999988191]","[""trial_ahead_box"",""trial_left_box""]",0,96,96,69,1,liquorstore8.jpg,livingroom.jpg,metroInside1.jpg,icecream2.jpg,,
Image_List_2,,,,,,,,,,,,,,,,44025,2020-11-20_22h08.57.691,lingCatScenes,2020.1.3,Win32,60,"[1366,768]",,,"[""trial_slight_right_box""]",,,,,,,,,,,,cave.jpg,space,2.72612,[0.21614583333333334],[-0.2890625],[1],[0],[0],[2.170894999988377],"[""trial_slight_right_box""]",0,97,97,20,1,boardwalk6.jpg,campsite3.jpg,cave4.jpg,basketballcourt7.jpg,,
Image_List_2,,,,,,,,,,,,,,,,44025,2020-11-20_22h08.57.691,lingCatScenes,2020.1.3,Win32,60,"[1366,768]",,,"[""trial_slight_left_box""]",,,,,,,,,,,,track.jpg,space,3.20025,[-0.20182291666666666],[-0.296875],[1],[0],[0],[2.745340000023134],"[""trial_slight_left_box""]",0,98,98,88,1,rooftop1.jpg,sculpturegarden4.jpg,soccerfield.jpg,sandbox.jpg,,
Image_List_2,,,,,,,,,,,,,,,,44025,2020-11-20_22h08.57.691,lingCatScenes,2020.1.3,Win32,60,"[1366,768]",,,"[""trial_sharp_left_box"",""trial_right_box""]",,,,,,,,,,,,diningroom5.jpg,space,3.47081,"[-0.6015625,0.40625]","[-0.3111979166666667,-0.3203125]","[1,1]","[0,0]","[0,0]","[2.057954999967478,3.2286899999016896]","[""trial_sharp_left_box"",""trial_right_box""]",0,99,99,34,1,deck4.jpg,courthouse4.jpg,diner11.jpg,campusquad1.jpg,,
Image_List_2,,,,,,,,,,,,,,,,44025,2020-11-20_22h08.57.691,lingCatScenes,2020.1.3,Win32,60,,,,,,,,,,,,,,,,,,,,,,,,,,,,,,,,,,,space,47.96144
