image_list,key_resp_intructions.keys,key_resp_intructions.rt,key_resp_intructions_3.keys,key_resp_intructions_3.rt,PracticeComplete_2.keys,PracticeComplete_2.rt,PracticeComplete_3.keys,PracticeComplete_3.rt,demo_trials.thisRepN,demo_trials.thisTrialN,demo_trials.thisN,demo_trials.thisIndex,demo_trials.ran,demo_images,path_images,participant,date,expName,psychopyVersion,OS,frameRate,windowSize,practice_complete.keys,practice_complete.rt,boxes_checked,PracticeComplete.keys,PracticeComplete.rt,practice_trials.thisRepN,practice_trials.thisTrialN,practice_trials.thisN,practice_trials.thisIndex,practice_trials.ran,practice_images,feedback_images,key_resp_intructions_2.keys,key_resp_intructions_2.rt,Image_List_3,trial_complete.keys,trial_complete.rt,trial_mouse.x,trial_mouse.y,trial_mouse.leftButton,trial_mouse.midButton,trial_mouse.rightButton,trial_mouse.time,trial_mouse.clicked_name,trials.thisRepN,trials.thisTrialN,trials.thisN,trials.thisIndex,trials.ran,Image_List_1,Image_List_2,Image_List_4,Image_List_5,key_resp.keys,key_resp.rt
Image_List_3,space,6.23395,space,4.518835,space,13.393185,space,3.92433,0,0,0,1,1,ahead_left.jpg,ahead_left_path.jpg,44080,2020-11-18_17h24.22.162,lingCatScenes,2020.1.3,MacIntel,60,,,,,,,,,,,,,,,,,,,,,,,,,,,,,,,,,,,,
Image_List_3,,,,,space,3.04525,space,8.06788,0,1,1,4,1,left.jpg,left_path.jpg,44080,2020-11-18_17h24.22.162,lingCatScenes,2020.1.3,MacIntel,60,,,,,,,,,,,,,,,,,,,,,,,,,,,,,,,,,,,,
Image_List_3,,,,,space,3.24855,space,4.028475,0,2,2,6,1,right_left.jpg,right_left_path.jpg,44080,2020-11-18_17h24.22.162,lingCatScenes,2020.1.3,MacIntel,60,,,,,,,,,,,,,,,,,,,,,,,,,,,,,,,,,,,,
Image_List_3,,,,,space,1.811955,space,0.55557,0,3,3,0,1,ahead.jpg,ahead_path.jpg,44080,2020-11-18_17h24.22.162,lingCatScenes,2020.1.3,MacIntel,60,,,,,,,,,,,,,,,,,,,,,,,,,,,,,,,,,,,,
Image_List_3,,,,,space,3.329735,space,0.9337,0,4,4,2,1,ahead_right.jpg,ahead_right_path.jpg,44080,2020-11-18_17h24.22.162,lingCatScenes,2020.1.3,MacIntel,60,,,,,,,,,,,,,,,,,,,,,,,,,,,,,,,,,,,,
Image_List_3,,,,,space,4.138935,space,4.653175,0,5,5,3,1,ahead_right_left.jpg,ahead_right_left_path.jpg,44080,2020-11-18_17h24.22.162,lingCatScenes,2020.1.3,MacIntel,60,,,,,,,,,,,,,,,,,,,,,,,,,,,,,,,,,,,,
Image_List_3,,,,,space,3.18339,space,5.352795,0,6,6,5,1,right.jpg,right_path.jpg,44080,2020-11-18_17h24.22.162,lingCatScenes,2020.1.3,MacIntel,60,,,,,,,,,,,,,,,,,,,,,,,,,,,,,,,,,,,,
Image_List_3,,,,,,,,,,,,,,,,44080,2020-11-18_17h24.22.162,lingCatScenes,2020.1.3,MacIntel,60,"[1440,900]",space,16.183245,"[""ahead_box"",""sharp_left_box""]",space,3.434535,0,0,0,1,1,ahead_left_2.jpg,ahead_left_2_path.jpg,,,,,,,,,,,,,,,,,,,,,,,
Image_List_3,,,,,,,,,,,,,,,,44080,2020-11-18_17h24.22.162,lingCatScenes,2020.1.3,MacIntel,60,"[1440,900]",space,13.12563,"[""sharp_right_box"",""ahead_box"",""sharp_left_box""]",space,2.42184,0,1,1,3,1,ahead_right_left_2.jpg,ahead_right_left_2_path.jpg,,,,,,,,,,,,,,,,,,,,,,,
Image_List_3,,,,,,,,,,,,,,,,44080,2020-11-18_17h24.22.162,lingCatScenes,2020.1.3,MacIntel,60,"[1440,900]",space,5.583735,"[""ahead_box""]",space,0.65856,0,2,2,0,1,ahead_2.jpg,ahead_2_path.jpg,,,,,,,,,,,,,,,,,,,,,,,
Image_List_3,,,,,,,,,,,,,,,,44080,2020-11-18_17h24.22.162,lingCatScenes,2020.1.3,MacIntel,60,"[1440,900]",space,10.08701,"[""sharp_right_box""]",space,0.82471,0,3,3,5,1,right_2.jpg,right_2_path.jpg,,,,,,,,,,,,,,,,,,,,,,,
Image_List_3,,,,,,,,,,,,,,,,44080,2020-11-18_17h24.22.162,lingCatScenes,2020.1.3,MacIntel,60,"[1440,900]",space,7.35269,"[""sharp_left_box""]",space,0.793335,0,4,4,4,1,left_2.jpg,left_2_path.jpg,,,,,,,,,,,,,,,,,,,,,,,
Image_List_3,,,,,,,,,,,,,,,,44080,2020-11-18_17h24.22.162,lingCatScenes,2020.1.3,MacIntel,60,"[1440,900]",space,6.17842,"[""slight_left_box"",""slight_right_box""]",space,1.005885,0,5,5,6,1,right_left_2.jpg,right_left_2_path.jpg,,,,,,,,,,,,,,,,,,,,,,,
Image_List_3,,,,,,,,,,,,,,,,44080,2020-11-18_17h24.22.162,lingCatScenes,2020.1.3,MacIntel,60,"[1440,900]",space,5.29109,"[""ahead_box""]",space,1.015945,0,6,6,2,1,ahead_right_2.jpg,ahead_right_2_path.jpg,,,,,,,,,,,,,,,,,,,,,,,
Image_List_3,,,,,,,,,,,,,,,,44080,2020-11-18_17h24.22.162,lingCatScenes,2020.1.3,MacIntel,60,"[1440,900]",,,"[""trial_ahead_box""]",,,,,,,,,,space,3.17038,promenadeDeck3.jpg,space,5.02798,"[0.02299045138888889,0.020073784722222224,-0.0003515625]","[-0.2583420138888889,-0.2714887152777778,-0.3040190972222222]","[1,1,1]","[0,0,0]","[0,0,0]","[2.9969749999872874,3.480584999997518,4.214179999995395]","[""trial_ahead_box""]",0,0,0,82,1,publicrestroom2.jpg,sandDunes_desert_outdoor9.jpg,readingroom4.jpg,postoffice4.jpg,,
Image_List_3,,,,,,,,,,,,,,,,44080,2020-11-18_17h24.22.162,lingCatScenes,2020.1.3,MacIntel,60,"[1440,900]",,,"[""trial_sharp_left_box""]",,,,,,,,,,,,ruralroad3.jpg,space,7.79089,[-0.5931814236111111],[-0.31590711805555555],[1],[0],[0],[3.2588050000049407],"[""trial_sharp_left_box""]",0,1,1,86,1,restaurant14.jpg,stripmall.jpg,sandDunes_desert_outdoor8.jpg,rooftop4.jpg,,
Image_List_3,,,,,,,,,,,,,,,,44080,2020-11-18_17h24.22.162,lingCatScenes,2020.1.3,MacIntel,60,"[1440,900]",,,"[""trial_ahead_box"",""trial_left_box""]",,,,,,,,,,,,hotelRoom2.jpg,space,4.055645,"[0.010399305555555556,-0.38664930555555554]","[-0.2970876736111111,-0.3119921875]","[1,1]","[0,0]","[0,0]","[1.8917999999976018,3.5249800000019604]","[""trial_ahead_box"",""trial_left_box""]",0,2,2,63,1,hut2.jpg,museum6.jpg,lab4.jpg,highway2.jpg,,
Image_List_3,,,,,,,,,,,,,,,,44080,2020-11-18_17h24.22.162,lingCatScenes,2020.1.3,MacIntel,60,"[1440,900]",,,"[""trial_ahead_box""]",,,,,,,,,,,,churchInside4.jpg,space,4.20541,[-0.007569444444444445],[-0.30419704861111113],[1],[0],[0],[3.244395000001532],"[""trial_ahead_box""]",0,3,3,27,1,castle3.jpg,courtroom3.jpg,closet.jpg,brewery2.jpg,,
Image_List_3,,,,,,,,,,,,,,,,44080,2020-11-18_17h24.22.162,lingCatScenes,2020.1.3,MacIntel,60,"[1440,900]",,,"[""trial_sharp_left_box"",""trial_slight_right_box""]",,,,,,,,,,,,clothingstore2.jpg,space,6.11428,"[-0.5874956597222222,0.22320746527777777]","[-0.3044140625,-0.31371961805555554]","[1,1]","[0,0]","[0,0]","[3.0103549999912502,5.6449500000017]","[""trial_sharp_left_box"",""trial_slight_right_box""]",0,4,4,30,1,courthouse1.jpg,desertvegetation3.jpg,copyroom2.jpg,bus_shelter3.jpg,,
Image_List_3,,,,,,,,,,,,,,,,44080,2020-11-18_17h24.22.162,lingCatScenes,2020.1.3,MacIntel,60,"[1440,900]",,,"[""trial_ahead_box""]",,,,,,,,,,,,restaurant13.jpg,space,3.48014,[-0.011675347222222222],[-0.2836675347222222],[1],[0],[0],[2.9471550000016578],"[""trial_ahead_box""]",0,5,5,84,1,readingroom5.jpg,sidewalk2.jpg,sandDunes_desert_outdoor.jpg,rooftop2.jpg,,
Image_List_3,,,,,,,,,,,,,,,,44080,2020-11-18_17h24.22.162,lingCatScenes,2020.1.3,MacIntel,60,"[1440,900]",,,"[""trial_sharp_left_box"",""trial_ahead_box""]",,,,,,,,,,,,playground9.jpg,space,7.4225,"[-0.58875,-0.0034331597222222224]","[-0.3133203125,-0.2965798611111111]","[1,1]","[0,0]","[0,0]","[4.308189999996102,6.458064999998896]","[""trial_sharp_left_box"",""trial_ahead_box""]",0,6,6,79,1,pasture.jpg,poolhall2.jpeg,pier2.jpg,observatory2.jpg,,
Image_List_3,,,,,,,,,,,,,,,,44080,2020-11-18_17h24.22.162,lingCatScenes,2020.1.3,MacIntel,60,"[1440,900]",,,"[""trial_sharp_left_box""]",,,,,,,,,,,,fittingroom5.jpg,space,4.897805,"[-0.574453125,-0.5980208333333333]","[-0.3096050347222222,-0.3131293402777778]","[1,1]","[0,0]","[0,0]","[2.9936699999962,4.211689999996452]","[""trial_sharp_left_box""]",0,7,7,48,1,frontDoor2.jpg,golfcourse6.jpg,golfcourse7.jpg,fabricstore2.jpg,,
Image_List_3,,,,,,,,,,,,,,,,44080,2020-11-18_17h24.22.162,lingCatScenes,2020.1.3,MacIntel,60,"[1440,900]",,,"[""trial_ahead_box"",""trial_slight_right_box"",""trial_sharp_left_box""]",,,,,,,,,,,,waitingroom4.jpg,space,9.16255,"[0.003068576388888889,0.18011284722222223,-0.5699131944444444,-0.5851128472222222]","[-0.29573350694444445,-0.28643663194444446,-0.3065190972222222,-0.28890625]","[1,1,1,1]","[0,0,0,0]","[0,0,0,0]","[3.3094200000050478,4.292889999996987,7.227090000000317,8.561275000000023]","[""trial_ahead_box"",""trial_slight_right_box"",""trial_sharp_left_box""]",0,8,8,97,1,warehouseoutside4.jpg,wineVineyard2.jpg,winebarrel3.jpg,warehouseoutside3.jpg,,
Image_List_3,,,,,,,,,,,,,,,,44080,2020-11-18_17h24.22.162,lingCatScenes,2020.1.3,MacIntel,60,"[1440,900]",,,"[""trial_ahead_box""]",,,,,,,,,,,,auto_showroom5.jpg,space,3.126645,[0.006740451388888889],[-0.31776041666666666],[1],[0],[0],[1.6419299999979557],"[""trial_ahead_box""]",0,9,9,6,1,ATM1.jpg,banquetHall2.jpg,baggageClaim1.jpg,apartmentBuilding3.jpg,,
Image_List_3,,,,,,,,,,,,,,,,44080,2020-11-18_17h24.22.162,lingCatScenes,2020.1.3,MacIntel,60,"[1440,900]",,,"[""trial_slight_right_box""]",,,,,,,,,,,,bistrooutdoor5.jpg,space,2.469915,[0.18950086805555555],[-0.29890190972222225],[1],[0],[0],[1.8944100000080653],"[""trial_slight_right_box""]",0,10,10,14,1,ballroom1.jpg,breakroom5.jpg,botanicalGarden5.jpg,ballroom3.jpg,,
Image_List_3,,,,,,,,,,,,,,,,44080,2020-11-18_17h24.22.162,lingCatScenes,2020.1.3,MacIntel,60,"[1440,900]",,,"[""trial_ahead_box"",""trial_slight_left_box"",""trial_slight_right_box"",""trial_right_box"",""trial_sharp_right_box"",""trial_left_box"",""trial_sharp_left_box""]",,,,,,,,,,,,gazebo5.jpg,space,10.26007,"[0.002443576388888889,-0.21921875,0.19078993055555554,0.4005121527777778,0.6066232638888889,-0.42201822916666665,-0.6399435763888889,-0.6008029513888888]","[-0.3207204861111111,-0.30767795138888887,-0.28923177083333335,-0.2979340277777778,-0.3054600694444444,-0.27631076388888887,-0.3006987847222222,-0.30104600694444444]","[1,1,1,1,1,1,1,1]","[0,0,0,0,0,0,0,0]","[0,0,0,0,0,0,0,0]","[1.896679999990738,4.5465949999925215,5.429019999995944,6.295599999997648,7.0301499999914085,8.430704999991576,9.096980000002077,9.663119999997434]","[""trial_ahead_box"",""trial_slight_left_box"",""trial_slight_right_box"",""trial_right_box"",""trial_sharp_right_box"",""trial_left_box"",""trial_sharp_left_box""]",0,11,11,55,1,greenmountains.jpg,hotelRoom3.jpg,hotelRoom7.jpg,frontLawn2.jpg,,
Image_List_3,,,,,,,,,,,,,,,,44080,2020-11-18_17h24.22.162,lingCatScenes,2020.1.3,MacIntel,60,"[1440,900]",,,"[""trial_ahead_box"",""trial_right_box""]",,,,,,,,,,,,dugout2.jpg,space,7.65797,"[-0.007847222222222222,0.38609809027777775]","[-0.3034722222222222,-0.2866753472222222]","[1,1]","[0,0]","[0,0]","[5.559850000005099,6.843624999994063]","[""trial_ahead_box"",""trial_right_box""]",0,12,12,43,1,exerciseequipment5.jpg,forestpath10.jpg,foodcourt.jpg,diningroom3.jpg,,
Image_List_3,,,,,,,,,,,,,,,,44080,2020-11-18_17h24.22.162,lingCatScenes,2020.1.3,MacIntel,60,"[1440,900]",,,"[""trial_ahead_box""]",,,,,,,,,,,,jewelrystore8.jpg,space,12.42219,[0.023880208333333333],[-0.3088064236111111],[1],[0],[0],[10.924820000000182],"[""trial_ahead_box""]",0,13,13,64,1,igloo2.jpg,newsstand5.jpg,lab5.jpg,homegarage2.jpg,,
Image_List_3,,,,,,,,,,,,,,,,44080,2020-11-18_17h24.22.162,lingCatScenes,2020.1.3,MacIntel,60,"[1440,900]",,,"[""trial_ahead_box"",""trial_slight_left_box"",""trial_left_box"",""trial_sharp_left_box"",""trial_slight_right_box"",""trial_right_box"",""trial_sharp_right_box""]",,,,,,,,,,,,savanna.jpg,space,5.896115,"[0.0012717013888888888,-0.18948350694444444,-0.37821180555555556,-0.6090581597222222,0.20588541666666665,0.44664496527777775,0.4119010416666667,0.6113020833333334]","[-0.29641927083333336,-0.30336805555555557,-0.30819878472222223,-0.29336805555555556,-0.31700954861111114,-0.30856770833333336,-0.30721788194444444,-0.3112673611111111]","[1,1,1,1,1,1,1,1]","[0,0,0,0,0,0,0,0]","[0,0,0,0,0,0,0,0]","[1.3101600000081817,1.8775299999979325,2.4941150000086054,3.1428450000094017,3.9754749999992782,4.493679999999586,4.926955000002636,5.476825000005192]","[""trial_ahead_box"",""trial_slight_left_box"",""trial_left_box"",""trial_sharp_left_box"",""trial_slight_right_box"",""trial_right_box"",""trial_sharp_right_box""]",0,14,14,87,1,restaurantkitchen2.jpg,theater2.jpg,sculpturegarden2.jpg,RVinside2.jpg,,
Image_List_3,,,,,,,,,,,,,,,,44080,2020-11-18_17h24.22.162,lingCatScenes,2020.1.3,MacIntel,60,"[1440,900]",,,"[""trial_ahead_box"",""trial_slight_left_box""]",,,,,,,,,,,,drycleaners6.jpg,space,6.7072,"[0.0133984375,-0.19322482638888888]","[-0.28387586805555554,-0.2908029513888889]","[1,1]","[0,0]","[0,0]","[4.992655000009108,5.975734999999986]","[""trial_ahead_box"",""trial_slight_left_box""]",0,15,15,39,1,driveway6.jpg,eyeglassstore9.jpg,drymountains5.jpg,cliff5.jpg,,
Image_List_3,,,,,,,,,,,,,,,,44080,2020-11-18_17h24.22.162,lingCatScenes,2020.1.3,MacIntel,60,"[1440,900]",,,"[""trial_ahead_box"",""trial_left_box""]",,,,,,,,,,,,factory1.jpg,space,6.147875,"[0.0014453125,-0.39575086805555554]","[-0.29824652777777777,-0.29522135416666667]","[1,1]","[0,0]","[0,0]","[2.7436849999940023,3.9948099999892293]","[""trial_ahead_box"",""trial_left_box""]",0,16,16,45,1,fittingroom2.jpg,frontFoyer7.jpg,forestpath4.jpg,dock4.jpg,,
Image_List_3,,,,,,,,,,,,,,,,44080,2020-11-18_17h24.22.162,lingCatScenes,2020.1.3,MacIntel,60,"[1440,900]",,,"[""trial_ahead_box"",""trial_left_box"",""trial_slight_right_box""]",,,,,,,,,,,,hedgemaze1.jpg,space,11.10941,"[-0.00031684027777777776,-0.39362413194444446,0.20977864583333333]","[-0.305078125,-0.3097916666666667,-0.3044314236111111]","[1,1,1]","[0,0,0]","[0,0,0]","[3.827550000001793,8.21184999999241,9.461895000000368]","[""trial_ahead_box"",""trial_left_box"",""trial_slight_right_box""]",0,17,17,58,1,highway7.jpg,lab1.jpg,igloo4.jpg,grocerystore2.jpg,,
Image_List_3,,,,,,,,,,,,,,,,44080,2020-11-18_17h24.22.162,lingCatScenes,2020.1.3,MacIntel,60,"[1440,900]",,,"[""trial_ahead_box"",""trial_left_box"",""trial_slight_right_box""]",,,,,,,,,,,,church3.jpg,space,22.310175,"[0.012504340277777777,-0.3924826388888889,0.1728515625,0.21520833333333333]","[-0.2923177083333333,-0.2987369791666667,-0.33121961805555555,-0.29443576388888887]","[1,1,1,1]","[0,0,0,0]","[0,0,0,0]","[1.9922850000002654,19.109754999997676,20.061324999987846,20.57786999999371]","[""trial_ahead_box"",""trial_left_box"",""trial_slight_right_box""]",0,18,18,25,1,campsite7.jpg,conference3.jpg,checkoutcounter2.jpg,botanicalGarden4.jpg,,
Image_List_3,,,,,,,,,,,,,,,,44080,2020-11-18_17h24.22.162,lingCatScenes,2020.1.3,MacIntel,60,"[1440,900]",,,[],,,,,,,,,,,,hallway4.jpg,space,1.786075,[0.013684895833333334],[-0.32525173611111113],[1],[0],[0],[1.393884999997681],[],0,19,19,57,1,hayfield5.jpg,jail1.jpg,hut5.jpg,gazebo.jpg,,
Image_List_3,,,,,,,,,,,,,,,,44080,2020-11-18_17h24.22.162,lingCatScenes,2020.1.3,MacIntel,60,"[1440,900]",,,"[""trial_ahead_box"",""trial_left_box"",""trial_right_box""]",,,,,,,,,,,,pasture9.jpg,space,11.083155,"[0.013394097222222222,-0.3850954861111111,0.18747395833333333,0.21712239583333334,0.3452517361111111,0.37952256944444446]","[-0.3034765625,-0.2895269097222222,-0.2983029513888889,-0.2920876736111111,-0.29562065972222223,-0.29562065972222223]","[1,1,1,1,1,1]","[0,0,0,0,0,0]","[0,0,0,0,0,0]","[2.440709999995306,7.974034999992,8.857759999998962,9.558485000001383,10.157674999994924,10.57346499999403]","[""trial_ahead_box"",""trial_left_box"",""trial_slight_right_box"",""trial_slight_right_box"",""trial_right_box""]",0,20,20,77,1,parkinggarage2.jpg,playroom6.jpg,park8.jpg,mallindoor6.jpg,,
Image_List_3,,,,,,,,,,,,,,,,44080,2020-11-18_17h24.22.162,lingCatScenes,2020.1.3,MacIntel,60,"[1440,900]",,,"[""trial_ahead_box""]",,,,,,,,,,,,dock1.jpg,space,2.44247,[-0.0007204861111111111],[-0.2880034722222222],[1],[0],[0],[1.708664999998291],"[""trial_ahead_box""]",0,21,21,38,1,dining_car2.jpg,elevatorOutside4.jpg,driveway8.jpg,classroom1.jpg,,
Image_List_3,,,,,,,,,,,,,,,,44080,2020-11-18_17h24.22.162,lingCatScenes,2020.1.3,MacIntel,60,"[1440,900]",,,"[""trial_ahead_box"",""trial_slight_right_box""]",,,,,,,,,,,,highway4.jpg,space,11.37634,"[0.0187109375,0.21887152777777777]","[-0.3027690972222222,-0.3095355902777778]","[1,1]","[0,0]","[0,0]","[3.1922449999983655,10.826329999996233]","[""trial_ahead_box"",""trial_slight_right_box""]",0,22,22,59,1,homegarden7.jpg,library_aisle8.jpg,kindergarten_classroom5.jpg,grocerystore3.jpg,,
Image_List_3,,,,,,,,,,,,,,,,44080,2020-11-18_17h24.22.162,lingCatScenes,2020.1.3,MacIntel,60,"[1440,900]",,,"[""trial_right_box"",""trial_slight_left_box""]",,,,,,,,,,,,musicStore1.jpg,space,7.086815,"[0.39631944444444445,-0.2153515625]","[-0.2981814236111111,-0.2946310763888889]","[1,1]","[0,0]","[0,0]","[3.3107449999952223,6.210445000004256]","[""trial_right_box"",""trial_slight_left_box""]",0,23,23,72,1,museum5.jpg,pharmacy4.jpg,museum4.jpg,kindergarten_classroom.jpg,,
Image_List_3,,,,,,,,,,,,,,,,44080,2020-11-18_17h24.22.162,lingCatScenes,2020.1.3,MacIntel,60,"[1440,900]",,,"[""trial_ahead_box""]",,,,,,,,,,,,pier5.jpg,space,1.50729,[0.020989583333333332],[-0.3124175347222222],[1],[0],[0],[1.0547050000022864],"[""trial_ahead_box""]",0,24,24,78,1,parkinglot3.jpg,poolhall1.jpg,pavilion3.jpg,observatory1.jpg,,
Image_List_3,,,,,,,,,,,,,,,,44080,2020-11-18_17h24.22.162,lingCatScenes,2020.1.3,MacIntel,60,"[1440,900]",,,"[""trial_ahead_box"",""trial_slight_right_box"",""trial_left_box""]",,,,,,,,,,,,staircase4.jpg,space,7.646295,"[-0.002395833333333333,0.19658420138888888,-0.40108506944444444]","[-0.30649739583333335,-0.30906684027777775,-0.2950434027777778]","[1,1,1]","[0,0,0]","[0,0,0]","[2.3124799999932293,6.096469999989495,7.346829999994952]","[""trial_ahead_box"",""trial_slight_right_box"",""trial_left_box""]",0,25,25,93,1,tollbooth8.jpg,volleyballcourt4.jpg,warehouseoutside2.jpg,tenniscourt.jpg,,
Image_List_3,,,,,,,,,,,,,,,,44080,2020-11-18_17h24.22.162,lingCatScenes,2020.1.3,MacIntel,60,"[1440,900]",,,"[""trial_left_box"",""trial_right_box"",""trial_ahead_box""]",,,,,,,,,,,,windmill2.jpg,space,7.45891,"[-0.3936328125,0.3891145833333333,0.013441840277777778]","[-0.2917708333333333,-0.2986979166666667,-0.3036024305555556]","[1,1,1]","[0,0,0]","[0,0,0]","[3.859519999998156,5.991874999992433,6.959759999997914]","[""trial_left_box"",""trial_right_box"",""trial_ahead_box""]",0,26,26,99,1,wineVineyard9.jpg,yogastudio4.jpg,wrestlingring7.jpg,yogastudio1.jpg,,
Image_List_3,,,,,,,,,,,,,,,,44080,2020-11-18_17h24.22.162,lingCatScenes,2020.1.3,MacIntel,60,"[1440,900]",,,"[""trial_slight_right_box"",""trial_sharp_left_box""]",,,,,,,,,,,,lockerroom3.jpg,space,5.36355,"[0.22358506944444445,-0.5844444444444444]","[-0.3057682291666667,-0.3071484375]","[1,1]","[0,0]","[0,0]","[2.6097199999931036,4.391625000003842]","[""trial_slight_right_box"",""trial_sharp_left_box""]",0,27,27,70,1,lockerroom4.jpg,pavilion.jpg,minigolf8.jpg,igloo.jpg,,
Image_List_3,,,,,,,,,,,,,,,,44080,2020-11-18_17h24.22.162,lingCatScenes,2020.1.3,MacIntel,60,"[1440,900]",,,"[""trial_sharp_right_box""]",,,,,,,,,,,,cliff2.jpg,space,7.562185,[0.5927777777777777],[-0.284921875],[1],[0],[0],[6.729689999992843],"[""trial_sharp_right_box""]",0,28,28,29,1,cornfield2.jpg,deck2.jpg,constructionSite4.jpg,bridalboutique3.jpg,,
Image_List_3,,,,,,,,,,,,,,,,44080,2020-11-18_17h24.22.162,lingCatScenes,2020.1.3,MacIntel,60,"[1440,900]",,,"[""trial_sharp_left_box"",""trial_sharp_right_box""]",,,,,,,,,,,,conference4.jpg,space,4.86707,"[-0.6058940972222222,0.5876388888888889]","[-0.31038194444444445,-0.3213975694444444]","[1,1]","[0,0]","[0,0]","[2.9101450000016484,4.226580000002286]","[""trial_sharp_left_box"",""trial_sharp_right_box""]",0,29,29,31,1,cubicle4.jpg,desertvegetation6.jpg,courtroom2.jpg,cabin3.jpg,,
Image_List_3,,,,,,,,,,,,,,,,44080,2020-11-18_17h24.22.162,lingCatScenes,2020.1.3,MacIntel,60,"[1440,900]",,,"[""trial_slight_right_box""]",,,,,,,,,,,,constructionSite2.jpg,space,9.27361,[0.20289930555555555],[-0.31319444444444444],[1],[0],[0],[7.393215000003693],"[""trial_slight_right_box""]",0,30,30,32,1,dancestudio6.jpg,diner12.jpg,dentist4.jpg,cabin4.jpg,,
Image_List_3,,,,,,,,,,,,,,,,44080,2020-11-18_17h24.22.162,lingCatScenes,2020.1.3,MacIntel,60,"[1440,900]",,,"[""trial_ahead_box"",""trial_slight_right_box""]",,,,,,,,,,,,staircase6.jpg,space,3.903055,"[-0.008294270833333334,0.20881944444444445]","[-0.2982595486111111,-0.315546875]","[1,1]","[0,0]","[0,0]","[1.6621299999969779,2.6456550000002608]","[""trial_ahead_box"",""trial_slight_right_box""]",0,31,31,94,1,treehouse.jpg,waitingroom3.jpg,weightroom.jpg,trainStation3.jpg,,
Image_List_3,,,,,,,,,,,,,,,,44080,2020-11-18_17h24.22.162,lingCatScenes,2020.1.3,MacIntel,60,"[1440,900]",,,"[""trial_slight_right_box"",""trial_sharp_left_box""]",,,,,,,,,,,,sculpturegarden4.jpg,space,4.01268,"[0.20906684027777778,-0.5943923611111112]","[-0.31525607638888886,-0.2941362847222222]","[1,1]","[0,0]","[0,0]","[2.3917900000087684,3.744185000003199]","[""trial_slight_right_box"",""trial_sharp_left_box""]",0,32,32,88,1,rooftop1.jpg,track.jpg,soccerfield.jpg,sandbox.jpg,,
Image_List_3,,,,,,,,,,,,,,,,44080,2020-11-18_17h24.22.162,lingCatScenes,2020.1.3,MacIntel,60,"[1440,900]",,,"[""trial_ahead_box"",""trial_slight_right_box"",""trial_slight_left_box""]",,,,,,,,,,,,courthouse2.jpg,space,5.708925,"[0.037543402777777776,-0.0064366319444444445,0.21121961805555556,-0.2026909722222222]","[-0.2919965277777778,-0.29772569444444447,-0.3169184027777778,-0.3072960069444444]","[1,1,1,1]","[0,0,0,0]","[0,0,0,0]","[2.426850000003469,3.194275000001653,4.3604900000063935,5.093760000003385]","[""trial_ahead_box"",""trial_slight_right_box"",""trial_slight_left_box""]",0,33,33,33,1,deck1.jpg,diningroom1.jpg,diner10.jpg,cabinIndoors5.jpg,,
Image_List_3,,,,,,,,,,,,,,,,44080,2020-11-18_17h24.22.162,lingCatScenes,2020.1.3,MacIntel,60,"[1440,900]",,,"[""trial_ahead_box""]",,,,,,,,,,,,carmechanic4.jpeg,space,2.357675,[0.0028342013888888887],[-0.2873177083333333],[1],[0],[0],[1.7782500000030268],"[""trial_ahead_box""]",0,34,34,23,1,bus_shelter.jpg,church8.jpg,cemetery3.jpg,bleachers6.jpg,,
Image_List_3,,,,,,,,,,,,,,,,44080,2020-11-18_17h24.22.162,lingCatScenes,2020.1.3,MacIntel,60,"[1440,900]",,,"[""trial_sharp_left_box"",""trial_sharp_right_box""]",,,,,,,,,,,,applestore1.jpg,space,4.906735,"[-0.605625,0.5886588541666666]","[-0.28615885416666664,-0.31062065972222225]","[1,1]","[0,0]","[0,0]","[2.559094999989611,4.192284999997355]","[""trial_sharp_left_box"",""trial_sharp_right_box""]",0,35,35,1,1,airportTerminal4.jpg,apartmentBuilding1.jpg,airportTerminal3.jpg,airportTerminal2.jpg,,
Image_List_3,,,,,,,,,,,,,,,,44080,2020-11-18_17h24.22.162,lingCatScenes,2020.1.3,MacIntel,60,"[1440,900]",,,"[""trial_slight_right_box"",""trial_ahead_box""]",,,,,,,,,,,,citystreet10.jpg,space,8.773345,"[0.19956597222222222,0.014010416666666666]","[-0.3030078125,-0.2857204861111111]","[1,1]","[0,0]","[0,0]","[6.044170000008307,6.810874999995576]","[""trial_slight_right_box"",""trial_ahead_box""]",0,36,36,28,1,churchInside1.jpg,dancestudio5.jpg,clothingstore5.jpg,bridalboutique2.jpg,,
Image_List_3,,,,,,,,,,,,,,,,44080,2020-11-18_17h24.22.162,lingCatScenes,2020.1.3,MacIntel,60,"[1440,900]",,,"[""trial_ahead_box"",""trial_slight_left_box"",""trial_sharp_left_box"",""trial_slight_right_box"",""trial_right_box"",""trial_sharp_right_box"",""trial_left_box""]",,,,,,,,,,,,parkinggarage3.jpg,space,11.65001,"[0.008229166666666666,-0.1892925347222222,-0.3692491319444444,-0.3991753472222222,-0.4137239583333333,-0.5813845486111111,0.2118012152777778,0.38730902777777776,0.6053559027777777,-0.4276388888888889,-0.39484375]","[-0.31438802083333334,-0.3075173611111111,-0.29141927083333335,-0.29442708333333334,-0.29846354166666667,-0.30451822916666665,-0.3029861111111111,-0.2945138888888889,-0.30141493055555557,-0.2949262152777778,-0.29237413194444445]","[1,1,1,1,1,1,1,1,1,1,1]","[0,0,0,0,0,0,0,0,0,0,0]","[0,0,0,0,0,0,0,0,0,0,0]","[2.0605849999992643,3.2095399999961955,3.8096149999910267,4.326704999999492,5.494474999999511,6.761295000003884,8.54323999999906,9.260339999993448,9.861590000000433,10.759974999993574,11.427949999997509]","[""trial_ahead_box"",""trial_slight_left_box"",""trial_left_box"",""trial_left_box"",""trial_sharp_left_box"",""trial_slight_right_box"",""trial_right_box"",""trial_sharp_right_box"",""trial_left_box""]",0,37,37,76,1,parkinggarage.jpg,playroom4.jpg,park2.jpg,lookout4.jpg,,
Image_List_3,,,,,,,,,,,,,,,,44080,2020-11-18_17h24.22.162,lingCatScenes,2020.1.3,MacIntel,60,"[1440,900]",,,"[""trial_ahead_box"",""trial_slight_left_box"",""trial_slight_right_box""]",,,,,,,,,,,,gazebo2.jpg,space,7.0132,"[0.008654513888888889,-0.2041189236111111,0.2069921875]","[-0.28620225694444446,-0.2962456597222222,-0.2913541666666667]","[1,1,1]","[0,0,0]","[0,0,0]","[1.7763750000012806,4.111185000001569,4.876640000002226]","[""trial_ahead_box"",""trial_slight_left_box"",""trial_slight_right_box""]",0,38,38,54,1,greenhouse2.jpg,horsebarn11.jpg,homegarage4.jpg,frontFoyer.jpg,,
Image_List_3,,,,,,,,,,,,,,,,44080,2020-11-18_17h24.22.162,lingCatScenes,2020.1.3,MacIntel,60,"[1440,900]",,,"[""trial_ahead_box""]",,,,,,,,,,,,promenadeDeck2.jpg,space,3.555585,[-0.020963541666666665],[-0.29095486111111113],[1],[0],[0],[3.008430000001681],"[""trial_ahead_box""]",0,39,39,81,1,promenadeDeck.jpg,ruralroad5.jpg,rainforest5.jpg,pasture8.jpg,,
Image_List_3,,,,,,,,,,,,,,,,44080,2020-11-18_17h24.22.162,lingCatScenes,2020.1.3,MacIntel,60,"[1440,900]",,,"[""trial_right_box""]",,,,,,,,,,,,lightingstore4.jpg,space,4.006065,"[0.40848524305555556,0.41061631944444443]","[-0.3297699652777778,-0.31469618055555554]","[1,1]","[0,0]","[0,0]","[2.3583050000015646,3.225090000007185]","[""trial_right_box""]",0,40,40,68,1,liquorstore7.jpg,parkinglot.jpg,lockerroom2.jpg,hospitalroom3.jpg,,
Image_List_3,,,,,,,,,,,,,,,,44080,2020-11-18_17h24.22.162,lingCatScenes,2020.1.3,MacIntel,60,"[1440,900]",,,"[""trial_ahead_box""]",,,,,,,,,,,,backstage1.jpg,space,2.28423,[-0.011953125],[-0.2912065972222222],[1],[0],[0],[1.7944299999944633],"[""trial_ahead_box""]",0,41,41,7,1,attic2.jpg,banquetHall4.jpg,baggageClaim3.jpg,applestore2.jpg,,
Image_List_3,,,,,,,,,,,,,,,,44080,2020-11-18_17h24.22.162,lingCatScenes,2020.1.3,MacIntel,60,"[1440,900]",,,"[""trial_ahead_box"",""trial_left_box"",""trial_right_box""]",,,,,,,,,,,,frontDoor5.jpg,space,4.19575,"[-0.011953125,-0.3968532986111111,0.4336111111111111,0.4127951388888889]","[-0.2912065972222222,-0.2904730902777778,-0.30049913194444444,-0.30049913194444444]","[1,1,1,1]","[0,0,0,0]","[0,0,0,0]","[1.30855000000156,2.2091700000019046,3.2253449999989243,3.6086749999958556]","[""trial_ahead_box"",""trial_left_box"",""trial_right_box""]",0,42,42,51,1,gasstation6.jpg,hallway5.jpg,hayfield4.jpg,firestation5.jpg,,
Image_List_3,,,,,,,,,,,,,,,,44080,2020-11-18_17h24.22.162,lingCatScenes,2020.1.3,MacIntel,60,"[1440,900]",,,"[""trial_ahead_box"",""trial_left_box""]",,,,,,,,,,,,nursery.jpg,space,5.73482,"[0.010394965277777777,-0.39761284722222223]","[-0.2953385416666667,-0.2967404513888889]","[1,1]","[0,0]","[0,0]","[2.9456650000065565,5.430315000005066]","[""trial_ahead_box"",""trial_left_box""]",0,43,43,73,1,musicStore3.jpg,photographer_studio2.jpg,nursery4.jpg,library_aisle9.jpg,,
Image_List_3,,,,,,,,,,,,,,,,44080,2020-11-18_17h24.22.162,lingCatScenes,2020.1.3,MacIntel,60,"[1440,900]",,,"[""trial_ahead_box""]",,,,,,,,,,,,porch.jpg,space,2.013425,[-0.0028602430555555555],[-0.31876302083333335],[1],[0],[0],[1.6775049999996554],"[""trial_ahead_box""]",0,44,44,80,1,pavilion2.jpg,racecarcourse2.jpg,poolhall5.jpg,parkinggarage4.jpg,,
Image_List_3,,,,,,,,,,,,,,,,44080,2020-11-18_17h24.22.162,lingCatScenes,2020.1.3,MacIntel,60,"[1440,900]",,,"[""trial_ahead_box"",""trial_sharp_left_box"",""trial_right_box"",""trial_sharp_right_box"",""trial_left_box"",""trial_slight_right_box""]",,,,,,,,,,,,beach2.jpg,space,8.42807,"[-0.006610243055555556,-0.5761848958333333,0.5680295138888889,0.3995182291666667,0.5933897569444444,-0.379609375,0.21860243055555556]","[-0.3131857638888889,-0.3222265625,-0.2798307291666667,-0.299140625,-0.3028428819444444,-0.2784244791666667,-0.31828559027777775]","[1,1,1,1,1,1,1]","[0,0,0,0,0,0,0]","[0,0,0,0,0,0,0]","[1.2444499999983236,2.4280349999899045,3.7461999999941327,4.628994999991846,5.728614999999991,6.761484999995446,8.096249999987776]","[""trial_ahead_box"",""trial_sharp_left_box"",""trial_right_box"",""trial_sharp_right_box"",""trial_left_box"",""trial_slight_right_box""]",0,45,45,13,1,balconyIN2.jpg,bowlingalley3.jpg,boardwalk4.jpg,backyard6.jpg,,
Image_List_3,,,,,,,,,,,,,,,,44080,2020-11-18_17h24.22.162,lingCatScenes,2020.1.3,MacIntel,60,"[1440,900]",,,"[""trial_sharp_right_box""]",,,,,,,,,,,,cafeteria1.jpg,space,8.626445,"[0.6045746527777778,-0.591015625]","[-0.3069140625,-0.2748307291666667]","[1,1]","[0,0]","[0,0]","[6.8917099999962375,8.176449999999022]","[""trial_sharp_right_box""]",0,46,46,19,1,boardwalk2.jpg,casino3.jpg,castle4.jpg,basketballcourt.jpg,,
Image_List_3,,,,,,,,,,,,,,,,44080,2020-11-18_17h24.22.162,lingCatScenes,2020.1.3,MacIntel,60,"[1440,900]",,,"[""trial_slight_right_box""]",,,,,,,,,,,,operatingroom4.jpg,space,3.39652,[0.20717881944444444],[-0.30313368055555556],[1],[0],[0],[2.595195000001695],"[""trial_slight_right_box""]",0,47,47,75,1,pantry5.jpg,playground6.jpg,park.jpg,lockerroom.jpg,,
Image_List_3,,,,,,,,,,,,,,,,44080,2020-11-18_17h24.22.162,lingCatScenes,2020.1.3,MacIntel,60,"[1440,900]",,,"[""trial_ahead_box"",""trial_slight_left_box"",""trial_left_box"",""trial_sharp_left_box"",""trial_slight_right_box"",""trial_right_box"",""trial_sharp_right_box""]",,,,,,,,,,,,drymountains6.jpg,space,7.076835,"[0.0267578125,0.0012456597222222222,-0.18249131944444444,-0.43854166666666666,-0.4122135416666667,-0.5408116319444445,-0.6052734375,0.2012282986111111,0.40825520833333334,0.6185894097222222]","[-0.28653211805555556,-0.28001302083333335,-0.2931814236111111,-0.2972916666666667,-0.2972916666666667,-0.2972916666666667,-0.29128472222222224,-0.30359375,-0.2907855902777778,-0.29369791666666667]","[1,1,1,1,1,1,1,1,1,1]","[0,0,0,0,0,0,0,0,0,0]","[0,0,0,0,0,0,0,0,0,0]","[1.1924550000112504,1.6600500000058673,2.1928200000111246,2.7937150000070687,3.259200000000419,3.692670000004,4.1260450000118,5.076900000000023,5.711265000005369,6.409090000001015]","[""trial_ahead_box"",""trial_slight_left_box"",""trial_left_box"",""trial_sharp_left_box"",""trial_slight_right_box"",""trial_right_box"",""trial_sharp_right_box""]",0,48,48,42,1,exerciseequipment3.jpg,firestation3.jpg,farm4.jpg,desertvegetation2.jpg,,
Image_List_3,,,,,,,,,,,,,,,,44080,2020-11-18_17h24.22.162,lingCatScenes,2020.1.3,MacIntel,60,"[1440,900]",,,"[""trial_slight_right_box""]",,,,,,,,,,,,brewery4.jpg,space,9.119835,"[0.1931640625,0.19293836805555556]","[-0.2725824652777778,-0.3061154513888889]","[1,1]","[0,0]","[0,0]","[3.9096149999968475,5.89191999999457]","[""trial_slight_right_box""]",0,49,49,18,1,bleachers5.jpg,casino1.jpg,castle2.jpg,basement6.jpg,,
Image_List_3,,,,,,,,,,,,,,,,44080,2020-11-18_17h24.22.162,lingCatScenes,2020.1.3,MacIntel,60,"[1440,900]",,,"[""trial_slight_left_box"",""trial_sharp_right_box""]",,,,,,,,,,,,skatepark5.jpg,space,6.876135,"[-0.20617621527777777,0.5982638888888889]","[-0.28225260416666664,-0.31309027777777776]","[1,1]","[0,0]","[0,0]","[4.439735000007204,6.34068500000285]","[""trial_slight_left_box"",""trial_sharp_right_box""]",0,50,50,91,1,shoestore2.jpg,trainStation5.jpg,ticket_counter6.jpg,sidewalk3.jpg,,
Image_List_3,,,,,,,,,,,,,,,,44080,2020-11-18_17h24.22.162,lingCatScenes,2020.1.3,MacIntel,60,"[1440,900]",,,"[""trial_ahead_box"",""trial_right_box"",""trial_left_box""]",,,,,,,,,,,,frontLawn3.jpg,space,6.602375,"[0.012269965277777777,0.4024435763888889,-0.4103949652777778]","[-0.2788585069444444,-0.29918402777777775,-0.2998090277777778]","[1,1,1]","[0,0,0]","[0,0,0]","[1.7585649999964517,3.7929049999947893,6.14252999999735]","[""trial_ahead_box"",""trial_right_box"",""trial_left_box""]",0,51,51,53,1,gazebo3.jpg,homeoffice.jpg,homegarage3.jpg,fountain.jpg,,
Image_List_3,,,,,,,,,,,,,,,,44080,2020-11-18_17h24.22.162,lingCatScenes,2020.1.3,MacIntel,60,"[1440,900]",,,"[""trial_ahead_box""]",,,,,,,,,,,,bambooforest3.jpg,space,2.0774,[-0.009262152777777777],[-0.3053298611111111],[1],[0],[0],[1.5453100000013364],"[""trial_ahead_box""]",0,52,52,11,1,backyard2.jpg,basketballcourt4.jpg,baywindow5.jpg,backyard1.jpg,,
Image_List_3,,,,,,,,,,,,,,,,44080,2020-11-18_17h24.22.162,lingCatScenes,2020.1.3,MacIntel,60,"[1440,900]",,,"[""trial_ahead_box"",""trial_slight_left_box"",""trial_left_box"",""trial_sharp_left_box"",""trial_slight_right_box"",""trial_right_box"",""trial_sharp_right_box""]",,,,,,,,,,,,golfcourse10.jpg,space,7.2517,"[0.019088541666666667,-0.1963454861111111,-0.41407118055555553,-0.5976302083333334,0.17723090277777778,0.42766493055555554,0.4156857638888889,0.5810546875]","[-0.29944444444444446,-0.28989149305555556,-0.31690972222222225,-0.30401041666666667,-0.29942274305555555,-0.3067317708333333,-0.3067317708333333,-0.296875]","[1,1,1,1,1,1,1,1]","[0,0,0,0,0,0,0,0]","[0,0,0,0,0,0,0,0]","[1.3953849999961676,2.262495000002673,2.927835000009509,3.661294999998063,4.745070000004489,5.510630000004312,6.027365000001737,6.828750000000582]","[""trial_ahead_box"",""trial_slight_left_box"",""trial_left_box"",""trial_sharp_left_box"",""trial_slight_right_box"",""trial_right_box"",""trial_sharp_right_box""]",0,53,53,56,1,grocerystore5.jpg,hut3.jpg,hut1.jpg,gasstation2.jpg,,
Image_List_3,,,,,,,,,,,,,,,,44080,2020-11-18_17h24.22.162,lingCatScenes,2020.1.3,MacIntel,60,"[1440,900]",,,"[""trial_right_box"",""trial_slight_left_box""]",,,,,,,,,,,,firestation4.jpg,space,10.841525,"[0.39623697916666667,-0.17717447916666668]","[-0.3044704861111111,-0.28759114583333334]","[1,1]","[0,0]","[0,0]","[6.926014999990002,10.176070000001346]","[""trial_right_box"",""trial_slight_left_box""]",0,54,54,47,1,frontDoor.jpg,gasstation8.jpg,fountain7.jpg,elevatorOutside2.jpg,,
Image_List_3,,,,,,,,,,,,,,,,44080,2020-11-18_17h24.22.162,lingCatScenes,2020.1.3,MacIntel,60,"[1440,900]",,,"[""trial_slight_left_box""]",,,,,,,,,,,,skatepark7.jpg,space,5.1904,"[-0.19679253472222222,-0.19926215277777778]","[-0.3293402777777778,-0.29161458333333334]","[1,1]","[0,0]","[0,0]","[2.491090000010445,3.174055000010412]","[""trial_slight_left_box""]",0,55,55,92,1,staircase.jpg,volleyballcourt.jpg,tvstudio2.jpg,soccerfield2.jpg,,
Image_List_3,,,,,,,,,,,,,,,,44080,2020-11-18_17h24.22.162,lingCatScenes,2020.1.3,MacIntel,60,"[1440,900]",,,"[""trial_ahead_box""]",,,,,,,,,,,,dining_car3.jpg,space,1.79086,[0.010872395833333333],[-0.30129774305555557],[1],[0],[0],[1.5441500000015367],"[""trial_ahead_box""]",0,56,56,36,1,diner14.jpg,dormroom9.jpg,doctor1.jpg,checkoutcounter9.jpg,,
Image_List_3,,,,,,,,,,,,,,,,44080,2020-11-18_17h24.22.162,lingCatScenes,2020.1.3,MacIntel,60,"[1440,900]",,,"[""trial_ahead_box"",""trial_sharp_left_box"",""trial_left_box"",""trial_slight_left_box"",""trial_slight_right_box"",""trial_right_box"",""trial_sharp_right_box""]",,,,,,,,,,,,ballroom2.jpg,space,9.959065,"[0.007960069444444445,-0.5934288194444445,-0.40582899305555553,-0.21589409722222222,0.226328125,0.19810329861111112,0.40740885416666667,0.5918663194444445]","[-0.2994835069444444,-0.29290364583333334,-0.31046875,-0.29288194444444443,-0.2925173611111111,-0.28784288194444446,-0.2919878472222222,-0.2901953125]","[1,1,1,1,1,1,1,1]","[0,0,0,0,0,0,0,0]","[0,0,0,0,0,0,0,0]","[0.9586399999971036,2.4752799999987474,3.8434999999881256,5.077059999995981,6.0757099999900674,6.975584999992861,7.9604399999952875,8.960694999987027]","[""trial_ahead_box"",""trial_sharp_left_box"",""trial_left_box"",""trial_slight_left_box"",""trial_slight_right_box"",""trial_right_box"",""trial_sharp_right_box""]",0,57,57,9,1,auto_showroom3.jpg,bar2.jpg,basement5.jpg,arcade2.jpg,,
Image_List_3,,,,,,,,,,,,,,,,44080,2020-11-18_17h24.22.162,lingCatScenes,2020.1.3,MacIntel,60,"[1440,900]",,,"[""trial_slight_right_box""]",,,,,,,,,,,,promenadeDeck6.jpg,space,3.86036,"[-0.0014409722222222222,0.19891493055555556,-0.005121527777777778]","[-0.30432725694444446,-0.29967881944444447,-0.3169140625]","[1,1,1]","[0,0,0]","[0,0,0]","[1.6264550000050804,2.4256449999957113,3.5936799999908544]","[""trial_ahead_box"",""trial_slight_right_box"",""trial_ahead_box""]",0,58,58,83,1,readingroom1.jpg,sculpturegarden1.jpg,restaurant8.jpg,readingroom2.jpg,,
Image_List_3,,,,,,,,,,,,,,,,44080,2020-11-18_17h24.22.162,lingCatScenes,2020.1.3,MacIntel,60,"[1440,900]",,,"[""trial_slight_right_box""]",,,,,,,,,,,,homegarage.jpg,space,2.69508,[0.19455729166666666],[-0.3041623263888889],[1],[0],[0],[2.310589999993681],"[""trial_slight_right_box""]",0,59,59,60,1,hometheater2.jpg,lightingstore3.jpg,kindergarten_classroom6.jpg,hallway.jpg,,
Image_List_3,,,,,,,,,,,,,,,,44080,2020-11-18_17h24.22.162,lingCatScenes,2020.1.3,MacIntel,60,"[1440,900]",,,"[""trial_slight_right_box"",""trial_sharp_left_box""]",,,,,,,,,,,,campsite3.jpg,space,4.40832,"[0.20519965277777777,0.19316840277777778,-0.6157378472222222]","[-0.2740755208333333,-0.2881684027777778,-0.29052083333333334]","[1,1,1]","[0,0,0]","[0,0,0]","[2.026144999996177,2.7440050000004703,3.8597999999910826]","[""trial_slight_right_box"",""trial_sharp_left_box""]",0,60,60,20,1,boardwalk6.jpg,cave.jpg,cave4.jpg,basketballcourt7.jpg,,
Image_List_3,,,,,,,,,,,,,,,,44080,2020-11-18_17h24.22.162,lingCatScenes,2020.1.3,MacIntel,60,"[1440,900]",,,"[""trial_left_box"",""trial_right_box""]",,,,,,,,,,,,observatory4.jpeg,space,3.609215,"[-0.42270399305555556,0.3982421875]","[-0.28510850694444445,-0.2850737847222222]","[1,1]","[0,0]","[0,0]","[2.17637499999546,3.3261199999979]","[""trial_left_box"",""trial_right_box""]",0,61,61,74,1,newsstand2.jpg,playground10.jpg,operatingroom1.jpg,lightingstore2.jpg,,
Image_List_3,,,,,,,,,,,,,,,,44080,2020-11-18_17h24.22.162,lingCatScenes,2020.1.3,MacIntel,60,"[1440,900]",,,"[""trial_right_box""]",,,,,,,,,,,,farmersmarket4.jpg,space,2.844015,"[0.4265234375,0.40725260416666664]","[-0.29733506944444443,-0.30670572916666666]","[1,1]","[0,0]","[0,0]","[1.5933199999999488,2.361059999995632]","[""trial_right_box""]",0,62,62,46,1,flowershop.jpg,frontLawn5.jpg,fountain4.jpg,dormroom6.jpg,,
Image_List_3,,,,,,,,,,,,,,,,44080,2020-11-18_17h24.22.162,lingCatScenes,2020.1.3,MacIntel,60,"[1440,900]",,,"[""trial_slight_left_box"",""trial_sharp_right_box""]",,,,,,,,,,,,cubicle7.jpg,space,3.65951,"[-0.21734809027777777,-0.18213975694444445,0.5924522569444445]","[-0.33576388888888886,-0.29530815972222224,-0.29140190972222224]","[1,1,1]","[0,0,0]","[0,0,0]","[1.8433500000101048,2.4266550000029383,3.377200000002631]","[""trial_slight_left_box"",""trial_sharp_right_box""]",0,63,63,35,1,deck5.jpg,dock3.jpg,dining_car6.jpg,carmechanic2.jpg,,
Image_List_3,,,,,,,,,,,,,,,,44080,2020-11-18_17h24.22.162,lingCatScenes,2020.1.3,MacIntel,60,"[1440,900]",,,"[""trial_sharp_right_box"",""trial_sharp_left_box""]",,,,,,,,,,,,laundromat2.jpeg,space,4.586335,"[0.5906206597222222,-0.5935720486111111]","[-0.3026432291666667,-0.3021657986111111]","[1,1]","[0,0]","[0,0]","[2.2142600000079256,4.181559999997262]","[""trial_sharp_right_box"",""trial_sharp_left_box""]",0,64,64,65,1,igloo5.jpg,newsstand7.jpg,labClass7.jpg,homeoffice8.jpg,,
Image_List_3,,,,,,,,,,,,,,,,44080,2020-11-18_17h24.22.162,lingCatScenes,2020.1.3,MacIntel,60,"[1440,900]",,,[],,,,,,,,,,,,laundromat4.jpg,space,2.13984,[0.22751736111111112],[-0.2992621527777778],[1],[0],[0],[1.7928899999969872],[],0,65,65,67,1,library_aisle3.jpg,park7.jpg,liquorstore2.jpg,hospitalroom2.jpg,,
Image_List_3,,,,,,,,,,,,,,,,44080,2020-11-18_17h24.22.162,lingCatScenes,2020.1.3,MacIntel,60,"[1440,900]",,,"[""trial_ahead_box"",""trial_left_box"",""trial_right_box""]",,,,,,,,,,,,courthouse4.jpg,space,8.0779,"[-0.004244791666666667,-0.3868272569444444,0.42542534722222225,0.39414930555555555]","[-0.30370225694444447,-0.31515190972222223,-0.3053472222222222,-0.30877604166666667]","[1,1,1,1]","[0,0,0,0]","[0,0,0,0]","[1.926725000012084,6.244565000000875,7.361850000001141,7.861350000006496]","[""trial_ahead_box"",""trial_left_box"",""trial_right_box""]",0,66,66,34,1,deck4.jpg,diningroom5.jpg,diner11.jpg,campusquad1.jpg,,
Image_List_3,,,,,,,,,,,,,,,,44080,2020-11-18_17h24.22.162,lingCatScenes,2020.1.3,MacIntel,60,"[1440,900]",,,"[""trial_right_box"",""trial_left_box""]",,,,,,,,,,,,dinosaur4.jpg,space,7.160785,"[0.3824956597222222,-0.38905381944444445]","[-0.30094618055555555,-0.3006727430555556]","[1,1]","[0,0]","[0,0]","[1.9606599999970058,6.1433950000064215]","[""trial_right_box"",""trial_left_box""]",0,67,67,37,1,dining_car.jpg,driveway4.jpg,driveway7.jpg,citystreet9.jpg,,
Image_List_3,,,,,,,,,,,,,,,,44080,2020-11-18_17h24.22.162,lingCatScenes,2020.1.3,MacIntel,60,"[1440,900]",,,"[""trial_ahead_box"",""trial_slight_right_box"",""trial_right_box"",""trial_slight_left_box"",""trial_left_box""]",,,,,,,,,,,,drymountains.jpg,space,9.9269,"[0.006818576388888889,0.20860243055555555,0.40618923611111113,0.6204774305555556,-0.20743923611111112,-0.41565972222222225,-0.613984375,-0.613984375,0.5872743055555556]","[-0.30274305555555553,-0.2928602430555556,-0.2902604166666667,-0.28465711805555555,-0.3105425347222222,-0.30659288194444445,-0.2878819444444444,-0.2878819444444444,-0.29624131944444443]","[1,1,1,1,1,1,1,1,1]","[0,0,0,0,0,0,0,0,0]","[0,0,0,0,0,0,0,0,0]","[1.5139100000087637,3.2139250000036554,4.280175000007148,4.947360000005574,5.9147200000006706,6.513360000011744,7.1628900000068825,7.446305000004941,8.930830000012065]","[""trial_ahead_box"",""trial_slight_right_box"",""trial_right_box"",""trial_sharp_right_box"",""trial_slight_left_box"",""trial_left_box"",""trial_sharp_left_box"",""trial_sharp_left_box"",""trial_sharp_right_box""]",0,68,68,40,1,drycleaners4.jpg,farm1.jpg,dugout1.jpg,clothingstore3.jpg,,
Image_List_3,,,,,,,,,,,,,,,,44080,2020-11-18_17h24.22.162,lingCatScenes,2020.1.3,MacIntel,60,"[1440,900]",,,"[""trial_slight_left_box""]",,,,,,,,,,,,ballroom4.jpg,space,3.53413,[-0.20082899305555554],[-0.3041753472222222],[1],[0],[0],[2.9421199999924283],"[""trial_slight_left_box""]",0,69,69,10,1,backstage2.jpg,barbershop3.jpg,basketballcourt3.jpg,ATM4.jpg,,
Image_List_3,,,,,,,,,,,,,,,,44080,2020-11-18_17h24.22.162,lingCatScenes,2020.1.3,MacIntel,60,"[1440,900]",,,"[""trial_slight_right_box""]",,,,,,,,,,,,aquarium1.jpg,space,2.3956,[0.19937065972222223],[-0.3113194444444444],[1],[0],[0],[2.059500000003027],"[""trial_slight_right_box""]",0,70,70,3,1,apartmentBuilding2.jpg,attic1.jpg,appleorchard2.jpg,alley3.jpg,,
Image_List_3,,,,,,,,,,,,,,,,44080,2020-11-18_17h24.22.162,lingCatScenes,2020.1.3,MacIntel,60,"[1440,900]",,,"[""trial_slight_left_box""]",,,,,,,,,,,,livingroom.jpg,space,2.032495,[-0.21059027777777778],[-0.29975260416666666],[1],[0],[0],[1.7623249999887776],"[""trial_slight_left_box""]",0,71,71,69,1,liquorstore8.jpg,parkinglot2.jpg,metroInside1.jpg,icecream2.jpg,,
Image_List_3,,,,,,,,,,,,,,,,44080,2020-11-18_17h24.22.162,lingCatScenes,2020.1.3,MacIntel,60,"[1440,900]",,,"[""trial_sharp_left_box"",""trial_right_box""]",,,,,,,,,,,,warehouse3.jpg,space,5.44023,"[-0.6000520833333334,0.39782552083333333]","[-0.3090234375,-0.30565538194444447]","[1,1]","[0,0]","[0,0]","[2.210849999988568,3.8946799999976065]","[""trial_sharp_left_box"",""trial_right_box""]",0,72,72,98,1,weightroom5.jpg,wineVineyard8.jpg,winebarrel4.jpg,winebarrel2.jpg,,
Image_List_3,,,,,,,,,,,,,,,,44080,2020-11-18_17h24.22.162,lingCatScenes,2020.1.3,MacIntel,60,"[1440,900]",,,"[""trial_ahead_box""]",,,,,,,,,,,,breakroom4.jpg,space,3.76175,[-0.018719618055555557],[-0.2851605902777778],[1],[0],[0],[3.1270300000032876],"[""trial_ahead_box""]",0,73,73,17,1,bikerack1.jpg,campsite6.jpg,carmechanic.jpg,baseball6.jpg,,
Image_List_3,,,,,,,,,,,,,,,,44080,2020-11-18_17h24.22.162,lingCatScenes,2020.1.3,MacIntel,60,"[1440,900]",,,[],,,,,,,,,,,,appleorchard4.jpg,space,1.613915,[0.010060763888888888],[-0.3267057291666667],[1],[0],[0],[1.2767800000001444],[],0,74,74,0,1,airplanecabin1.jpg,alley2.jpg,airplanecabin5.jpg,airplanecabin3.jpg,,
Image_List_3,,,,,,,,,,,,,,,,44080,2020-11-18_17h24.22.162,lingCatScenes,2020.1.3,MacIntel,60,"[1440,900]",,,"[""trial_slight_right_box""]",,,,,,,,,,,,horsebarn8.jpg,space,3.860665,"[0.22608940972222222,0.22721354166666666,0.20158854166666668]","[-0.3064149305555556,-0.2990407986111111,-0.3083767361111111]","[1,1,1]","[0,0,0]","[0,0,0]","[1.6275600000080885,2.1769600000116043,3.2600900000106776]","[""trial_slight_right_box""]",0,75,75,62,1,hotellobby2.jpg,minigolf.jpg,lab3.jpg,hayfield7.jpg,,
Image_List_3,,,,,,,,,,,,,,,,44080,2020-11-18_17h24.22.162,lingCatScenes,2020.1.3,MacIntel,60,"[1440,900]",,,"[""trial_slight_left_box"",""trial_right_box"",""trial_sharp_right_box""]",,,,,,,,,,,,forestpath6.jpg,space,7.430555,"[-0.1763671875,0.41815104166666667,0.5934244791666666]","[-0.2928862847222222,-0.30147135416666665,-0.28470052083333336]","[1,1,1]","[0,0,0]","[0,0,0]","[4.794630000003963,5.9612900000065565,7.026670000006561]","[""trial_slight_left_box"",""trial_right_box"",""trial_sharp_right_box""]",0,76,76,50,1,frontLawn4.jpg,grocerystore6.jpg,hallway2.jpg,fireplace4.jpg,,
Image_List_3,,,,,,,,,,,,,,,,44080,2020-11-18_17h24.22.162,lingCatScenes,2020.1.3,MacIntel,60,"[1440,900]",,,"[""trial_slight_right_box"",""trial_sharp_left_box"",""trial_sharp_right_box""]",,,,,,,,,,,,flowershop3.jpg,space,5.333805,"[0.18653211805555556,-0.5903732638888889,0.5864366319444444]","[-0.31061631944444446,-0.29768663194444445,-0.2964236111111111]","[1,1,1]","[0,0,0]","[0,0,0]","[1.7798750000074506,3.662960000001476,4.879094999996596]","[""trial_slight_right_box"",""trial_sharp_left_box"",""trial_sharp_right_box""]",0,77,77,49,1,frontDoor3.jpg,greenhouse5.jpg,greenhouse.jpg,farm2.jpg,,
Image_List_3,,,,,,,,,,,,,,,,44080,2020-11-18_17h24.22.162,lingCatScenes,2020.1.3,MacIntel,60,"[1440,900]",,,"[""trial_ahead_box""]",,,,,,,,,,,,ruralroad2.jpg,space,2.4295,[0.005078125],[-0.28912760416666666],[1],[0],[0],[1.8442249999934575],"[""trial_ahead_box""]",0,78,78,85,1,recordingstudio4.jpg,sidewalk5.jpg,sandDunes_desert_outdoor3.jpg,rooftop3.jpg,,
Image_List_3,,,,,,,,,,,,,,,,44080,2020-11-18_17h24.22.162,lingCatScenes,2020.1.3,MacIntel,60,"[1440,900]",,,"[""trial_left_box""]",,,,,,,,,,,,cave6.jpg,space,6.051035,[-0.39960069444444446],[-0.2898177083333333],[1],[0],[0],[3.880345000012312],"[""trial_left_box""]",0,79,79,24,1,campsite.jpg,cliff3.jpg,cemetery5.jpg,boardwalk.jpg,,
Image_List_3,,,,,,,,,,,,,,,,44080,2020-11-18_17h24.22.162,lingCatScenes,2020.1.3,MacIntel,60,"[1440,900]",,,"[""trial_right_box"",""trial_sharp_left_box""]",,,,,,,,,,,,homegarden6.jpg,space,8.03346,"[0.39423177083333333,-0.5839930555555556,-0.5932291666666667]","[-0.3008854166666667,-0.27499565972222223,-0.28977430555555556]","[1,1,1]","[0,0,0]","[0,0,0]","[4.629604999994626,6.996744999996736,7.464665000006789]","[""trial_right_box"",""trial_sharp_left_box""]",0,80,80,61,1,HorseRaceTrack.jpg,metroInside4.jpg,kindergarten_classroom7.jpg,hayfield6.jpg,,
Image_List_3,,,,,,,,,,,,,,,,44080,2020-11-18_17h24.22.162,lingCatScenes,2020.1.3,MacIntel,60,"[1440,900]",,,"[""trial_ahead_box"",""trial_sharp_left_box"",""trial_sharp_right_box""]",,,,,,,,,,,,elevatorOutside1.jpg,space,9.76898,"[-0.012469618055555555,-0.40741319444444446,-0.6092751736111112,0.6209244791666667]","[-0.3039626736111111,-0.27208767361111114,-0.32306857638888886,-0.31005642361111113]","[1,1,1,1]","[0,0,0,0]","[0,0,0,0]","[4.263404999990598,5.161689999993541,7.6786449999926845,9.145739999992657]","[""trial_ahead_box"",""trial_sharp_left_box"",""trial_sharp_right_box""]",0,81,81,44,1,firestation2.jpg,frontFoyer4.jpg,foodcourt6.jpg,dock2.jpg,,
Image_List_3,,,,,,,,,,,,,,,,44080,2020-11-18_17h24.22.162,lingCatScenes,2020.1.3,MacIntel,60,"[1440,900]",,,"[""trial_ahead_box"",""trial_left_box"",""trial_right_box""]",,,,,,,,,,,,stripmall6.jpg,space,5.312045,"[0.0020789930555555557,-0.42768663194444445,-0.4057161458333333,0.41345052083333333]","[-0.3036197916666667,-0.33937065972222225,-0.30645833333333333,-0.2821267361111111]","[1,1,1,1]","[0,0,0,0]","[0,0,0,0]","[1.9793399999907706,2.645409999997355,3.096319999996922,4.745664999994915]","[""trial_ahead_box"",""trial_left_box"",""trial_right_box""]",0,82,82,95,1,waitingroom2.jpg,warehouse2.jpg,weightroom4.jpg,tvstudio3.jpg,,
Image_List_3,,,,,,,,,,,,,,,,44080,2020-11-18_17h24.22.162,lingCatScenes,2020.1.3,MacIntel,60,"[1440,900]",,,"[""trial_right_box"",""trial_slight_left_box""]",,,,,,,,,,,,auto_showroom1.jpg,space,9.549055,"[0.40903645833333335,-0.19620225694444443,-0.213515625]","[-0.31473090277777777,-0.3320182291666667,-0.28932291666666665]","[1,1,1]","[0,0,0]","[0,0,0]","[4.7280400000017835,8.643335000000661,9.227369999993243]","[""trial_right_box"",""trial_slight_left_box""]",0,83,83,4,1,artStudio1.jpg,baggageClaim2.jpg,appleorchard3.jpg,alley4.jpg,,
Image_List_3,,,,,,,,,,,,,,,,44080,2020-11-18_17h24.22.162,lingCatScenes,2020.1.3,MacIntel,60,"[1440,900]",,,"[""trial_ahead_box""]",,,,,,,,,,,,bambooforest5.jpg,space,6.77552,"[-0.2127777777777778,-0.2127777777777778,0.0028125]","[-0.28661892361111113,-0.28661892361111113,-0.2956423611111111]","[1,1,1]","[0,0,0]","[0,0,0]","[4.693400000003749,5.42694499999925,6.245590000005905]","[""trial_slight_left_box"",""trial_slight_left_box"",""trial_ahead_box""]",0,84,84,12,1,baggageClaim4.jpg,bedroom6.jpg,bleachers7.jpg,backyard5.jpg,,
Image_List_3,,,,,,,,,,,,,,,,44080,2020-11-18_17h24.22.162,lingCatScenes,2020.1.3,MacIntel,60,"[1440,900]",,,"[""trial_ahead_box""]",,,,,,,,,,,,sidewalk1.jpg,space,1.645415,[0.0028125],[-0.2956423611111111],[1],[0],[0],[1.2274750000069616],"[""trial_ahead_box""]",0,85,85,90,1,savanna5.jpg,trainStation1.jpg,stripmall3.jpg,shoestore4.jpg,,
Image_List_3,,,,,,,,,,,,,,,,44080,2020-11-18_17h24.22.162,lingCatScenes,2020.1.3,MacIntel,60,"[1440,900]",,,"[""trial_ahead_box"",""trial_sharp_left_box"",""trial_sharp_right_box""]",,,,,,,,,,,,metroInside3.jpg,space,7.468075,"[0.0028125,-0.5740147569444445,-0.5925954861111111,0.6128081597222222]","[-0.2956423611111111,-0.3033854166666667,-0.30395833333333333,-0.3127560763888889]","[1,1,1,1]","[0,0,0,0]","[0,0,0,0]","[0.8470999999990454,4.879339999999502,5.563450000001467,6.814310000001569]","[""trial_ahead_box"",""trial_sharp_left_box"",""trial_sharp_right_box""]",0,86,86,71,1,metroInside2.jpg,pavilion5.jpg,museum3.jpg,jewelrystore.jpg,,
Image_List_3,,,,,,,,,,,,,,,,44080,2020-11-18_17h24.22.162,lingCatScenes,2020.1.3,MacIntel,60,"[1440,900]",,,"[""trial_left_box""]",,,,,,,,,,,,tenniscourt3.jpg,space,2.61516,[-0.4102387152777778],[-0.2938324652777778],[1],[0],[0],[2.2136349999927916],"[""trial_left_box""]",0,87,87,96,1,warehouse4.jpg,warehouseoutside1.jpg,windmill1.jpg,warehouse1.jpg,,
Image_List_3,,,,,,,,,,,,,,,,44080,2020-11-18_17h24.22.162,lingCatScenes,2020.1.3,MacIntel,60,"[1440,900]",,,"[""trial_slight_left_box""]",,,,,,,,,,,,breakroom2.jpg,space,3.976,[-0.19233940972222222],[-0.3085894097222222],[1],[0],[0],[3.6931900000054156],"[""trial_slight_left_box""]",0,88,88,16,1,basement.jpg,cafeteria6.jpg,campusquad4.jpg,barbershop2.jpg,,
Image_List_3,,,,,,,,,,,,,,,,44080,2020-11-18_17h24.22.162,lingCatScenes,2020.1.3,MacIntel,60,"[1440,900]",,,"[""trial_slight_right_box""]",,,,,,,,,,,,cargo5.jpg,space,4.41468,"[0.22085503472222223,0.20900607638888888]","[-0.3088324652777778,-0.295546875]","[0,1]","[0,0]","[1,0]","[3.5423549999977695,4.161114999995334]","[""trial_slight_right_box"",""trial_slight_right_box""]",0,89,89,22,1,bowlingalley5.jpg,church6.jpg,cemetery.jpg,bistrooutdoor6.jpg,,
Image_List_3,,,,,,,,,,,,,,,,44080,2020-11-18_17h24.22.162,lingCatScenes,2020.1.3,MacIntel,60,"[1440,900]",,,"[""trial_ahead_box"",""trial_slight_right_box"",""trial_slight_left_box"",""trial_left_box"",""trial_sharp_left_box"",""trial_right_box"",""trial_sharp_right_box""]",,,,,,,,,,,,drymountains3.jpg,space,8.11155,"[-0.009131944444444444,0.19294270833333332,-0.21888020833333333,-0.4085416666666667,-0.6159592013888889,0.4366579861111111,0.41453125,0.6148133680555555]","[-0.2974826388888889,-0.2876519097222222,-0.29428819444444443,-0.3123611111111111,-0.2950520833333333,-0.3105512152777778,-0.30953125,-0.30010416666666667]","[1,1,1,1,1,1,1,1]","[0,0,0,0,0,0,0,0]","[0,0,0,0,0,0,0,0]","[2.144015000012587,2.862505000011879,3.627985000013723,4.327815000011469,5.077625000005355,6.394425000005867,6.944550000000163,7.627780000009807]","[""trial_ahead_box"",""trial_slight_right_box"",""trial_slight_left_box"",""trial_left_box"",""trial_sharp_left_box"",""trial_right_box"",""trial_sharp_right_box""]",0,90,90,41,1,dugout4.jpg,farm3.jpg,fabricstore1.jpg,dentist2.jpg,,
Image_List_3,,,,,,,,,,,,,,,,44080,2020-11-18_17h24.22.162,lingCatScenes,2020.1.3,MacIntel,60,"[1440,900]",,,"[""trial_ahead_box"",""trial_sharp_right_box"",""trial_right_box"",""trial_left_box"",""trial_sharp_left_box"",""trial_slight_left_box"",""trial_slight_right_box""]",,,,,,,,,,,,campusquad3.jpg,space,12.562035,"[-0.006410590277777778,0.60796875,0.38522569444444443,-0.3925434027777778,-0.6206510416666666,-0.19508680555555555,0.17973958333333334]","[-0.27631944444444445,-0.29984375,-0.3104644097222222,-0.30843315972222224,-0.2881684027777778,-0.2875564236111111,-0.2929644097222222]","[1,1,1,1,1,1,1]","[0,0,0,0,0,0,0]","[0,0,0,0,0,0,0]","[4.288374999989173,7.405689999999595,8.171089999988908,9.472769999993034,10.24033000000054,11.288779999988037,12.237884999995003]","[""trial_ahead_box"",""trial_sharp_right_box"",""trial_right_box"",""trial_left_box"",""trial_sharp_left_box"",""trial_slight_left_box"",""trial_slight_right_box""]",0,91,91,21,1,botanicalGarden6.jpg,cemetery6.jpg,cave5.jpg,beach1.jpeg,,
Image_List_3,,,,,,,,,,,,,,,,44080,2020-11-18_17h24.22.162,lingCatScenes,2020.1.3,MacIntel,60,"[1440,900]",,,"[""trial_sharp_right_box"",""trial_left_box""]",,,,,,,,,,,,bleachers8.jpg,space,3.44283,"[0.6189105902777777,-0.40618923611111113]","[-0.3071918402777778,-0.3195920138888889]","[1,1]","[0,0]","[0,0]","[1.8940350000048056,3.0604350000066916]","[""trial_sharp_right_box"",""trial_left_box""]",0,92,92,15,1,bambooforest4.jpg,cafeteria5.jpg,cabinIndoors.jpg,bar8.jpg,,
Image_List_3,,,,,,,,,,,,,,,,44080,2020-11-18_17h24.22.162,lingCatScenes,2020.1.3,MacIntel,60,"[1440,900]",,,"[""trial_left_box"",""trial_sharp_right_box""]",,,,,,,,,,,,applestore6.jpg,space,7.050775,"[-0.2018923611111111,-0.38446180555555554,-0.1972482638888889,0.5743446180555556,0.5869487847222222]","[-0.29954427083333335,-0.303046875,-0.30788194444444444,-0.30811631944444445,-0.30582465277777776]","[1,1,1,1,1]","[0,0,0,0,0]","[0,0,0,0,0]","[2.9953850000019884,3.9961849999963306,4.69560000000638,5.829880000004778,6.361925000004703]","[""trial_slight_left_box"",""trial_left_box"",""trial_slight_left_box"",""trial_sharp_right_box""]",0,93,93,2,1,alley1.jpg,arcade1.jpg,apartmentBuilding4.jpg,airportTerminal6.jpg,,
Image_List_3,,,,,,,,,,,,,,,,44080,2020-11-18_17h24.22.162,lingCatScenes,2020.1.3,MacIntel,60,"[1440,900]",,,"[""trial_slight_right_box"",""trial_sharp_left_box""]",,,,,,,,,,,,church4.jpg,space,8.62944,"[0.2159157986111111,-0.5974088541666667]","[-0.3087977430555556,-0.3093402777777778]","[1,1]","[0,0]","[0,0]","[6.677100000000792,8.244034999996074]","[""trial_slight_right_box"",""trial_sharp_left_box""]",0,94,94,26,1,campusquad2.jpg,cornfield4.jpg,churchInside3.jpg,botanicalGarden7.jpg,,
Image_List_3,,,,,,,,,,,,,,,,44080,2020-11-18_17h24.22.162,lingCatScenes,2020.1.3,MacIntel,60,"[1440,900]",,,"[""trial_ahead_box"",""trial_slight_right_box"",""trial_left_box""]",,,,,,,,,,,,frontFoyer6.jpg,space,4.942375,"[-0.015321180555555555,0.1905251736111111,-0.3884635416666667]","[-0.3092404513888889,-0.30734375,-0.3108723958333333]","[1,1,1]","[0,0,0]","[0,0,0]","[2.3257749999902444,3.392374999995809,4.326339999999618]","[""trial_ahead_box"",""trial_slight_right_box"",""trial_left_box""]",0,95,95,52,1,gasstation7.jpg,hardwarestore1.jpg,highway.jpg,forestpath2.jpg,,
Image_List_3,,,,,,,,,,,,,,,,44080,2020-11-18_17h24.22.162,lingCatScenes,2020.1.3,MacIntel,60,"[1440,900]",,,"[""trial_slight_left_box"",""trial_sharp_right_box""]",,,,,,,,,,,,laundromat3.jpg,space,5.24559,"[-0.18366319444444446,0.5912934027777778]","[-0.2986501736111111,-0.3097829861111111]","[1,1]","[0,0]","[0,0]","[3.7262900000059744,4.910254999995232]","[""trial_slight_left_box"",""trial_sharp_right_box""]",0,96,96,66,1,library_aisle10.jpg,office3.jpg,liquorstore.jpg,horsebarn9.jpg,,
Image_List_3,,,,,,,,,,,,,,,,44080,2020-11-18_17h24.22.162,lingCatScenes,2020.1.3,MacIntel,60,"[1440,900]",,,"[""trial_ahead_box""]",,,,,,,,,,,,balconyIN.jpg,space,5.31768,[0.011414930555555555],[-0.2973133680555556],[1],[0],[0],[2.6637249999912456],"[""trial_ahead_box""]",0,97,97,8,1,attic3.jpg,banquetHall6.jpg,bar.jpg,applestore4.jpg,,
Image_List_3,,,,,,,,,,,,,,,,44080,2020-11-18_17h24.22.162,lingCatScenes,2020.1.3,MacIntel,60,"[1440,900]",,,"[""trial_ahead_box"",""trial_left_box"",""trial_sharp_right_box""]",,,,,,,,,,,,ShowJumping7.jpg,space,20.53248,"[-0.025138888888888888,-0.010815972222222222,-0.4115407986111111,0.5954166666666667]","[-0.29953559027777776,-0.3006814236111111,-0.302109375,-0.31096788194444447]","[1,1,1,1]","[0,0,0,0]","[0,0,0,0]","[15.9624199999962,16.679019999995944,17.695354999988922,19.413614999997662]","[""trial_ahead_box"",""trial_left_box"",""trial_sharp_right_box""]",0,98,98,89,1,ruralroad7.jpg,track5.jpg,staircase7.jpg,sculpturegarden3.jpg,,
Image_List_3,,,,,,,,,,,,,,,,44080,2020-11-18_17h24.22.162,lingCatScenes,2020.1.3,MacIntel,60,"[1440,900]",,,"[""trial_sharp_left_box"",""trial_sharp_right_box""]",,,,,,,,,,,,auto_showroom4.jpg,space,4.86333,"[-0.6149826388888889,0.6293532986111111,0.5883984375]","[-0.3155251736111111,-0.3163107638888889,-0.3171701388888889]","[1,1,1]","[0,0,0]","[0,0,0]","[2.67548999999417,4.02478500000143,4.52495999999519]","[""trial_sharp_left_box"",""trial_sharp_right_box""]",0,99,99,5,1,artStudio3.jpg,bambooforest.jpg,attic4.jpg,amusement3.jpg,,
Image_List_3,,,,,,,,,,,,,,,,44080,2020-11-18_17h24.22.162,lingCatScenes,2020.1.3,MacIntel,60,,,,,,,,,,,,,,,,,,,,,,,,,,,,,,,,,,,space,12.375605
