image_list,key_resp_intructions.keys,key_resp_intructions.rt,key_resp_intructions_3.keys,key_resp_intructions_3.rt,PracticeComplete_2.keys,PracticeComplete_2.rt,PracticeComplete_3.keys,PracticeComplete_3.rt,demo_trials.thisRepN,demo_trials.thisTrialN,demo_trials.thisN,demo_trials.thisIndex,demo_trials.ran,demo_images,path_images,participant,date,expName,psychopyVersion,OS,frameRate,windowSize,practice_complete.keys,practice_complete.rt,boxes_checked,PracticeComplete.keys,PracticeComplete.rt,practice_trials.thisRepN,practice_trials.thisTrialN,practice_trials.thisN,practice_trials.thisIndex,practice_trials.ran,practice_images,feedback_images,key_resp_intructions_2.keys,key_resp_intructions_2.rt,Image_List_4,trial_complete.keys,trial_complete.rt,trial_mouse.x,trial_mouse.y,trial_mouse.leftButton,trial_mouse.midButton,trial_mouse.rightButton,trial_mouse.time,trial_mouse.clicked_name,trials.thisRepN,trials.thisTrialN,trials.thisN,trials.thisIndex,trials.ran,Image_List_1,Image_List_2,Image_List_3,Image_List_5,key_resp.keys,key_resp.rt
Image_List_4,space,11.368485,space,2.7817,space,8.589995,space,2.678915,0,0,0,1,1,ahead_left.jpg,ahead_left_path.jpg,44178,2020-11-17_16h54.16.254,lingCatScenes,2020.1.3,MacIntel,60,,,,,,,,,,,,,,,,,,,,,,,,,,,,,,,,,,,,
Image_List_4,,,,,space,2.01311,space,1.468965,0,1,1,3,1,ahead_right_left.jpg,ahead_right_left_path.jpg,44178,2020-11-17_16h54.16.254,lingCatScenes,2020.1.3,MacIntel,60,,,,,,,,,,,,,,,,,,,,,,,,,,,,,,,,,,,,
Image_List_4,,,,,space,0.796185,space,0.741905,0,2,2,2,1,ahead_right.jpg,ahead_right_path.jpg,44178,2020-11-17_16h54.16.254,lingCatScenes,2020.1.3,MacIntel,60,,,,,,,,,,,,,,,,,,,,,,,,,,,,,,,,,,,,
Image_List_4,,,,,space,0.99508,space,0.516705,0,3,3,5,1,right.jpg,right_path.jpg,44178,2020-11-17_16h54.16.254,lingCatScenes,2020.1.3,MacIntel,60,,,,,,,,,,,,,,,,,,,,,,,,,,,,,,,,,,,,
Image_List_4,,,,,space,1.322285,space,0.459865,0,4,4,0,1,ahead.jpg,ahead_path.jpg,44178,2020-11-17_16h54.16.254,lingCatScenes,2020.1.3,MacIntel,60,,,,,,,,,,,,,,,,,,,,,,,,,,,,,,,,,,,,
Image_List_4,,,,,space,0.50092,space,0.368025,0,5,5,6,1,right_left.jpg,right_left_path.jpg,44178,2020-11-17_16h54.16.254,lingCatScenes,2020.1.3,MacIntel,60,,,,,,,,,,,,,,,,,,,,,,,,,,,,,,,,,,,,
Image_List_4,,,,,space,0.389855,space,0.381935,0,6,6,4,1,left.jpg,left_path.jpg,44178,2020-11-17_16h54.16.254,lingCatScenes,2020.1.3,MacIntel,60,,,,,,,,,,,,,,,,,,,,,,,,,,,,,,,,,,,,
Image_List_4,,,,,,,,,,,,,,,,44178,2020-11-17_16h54.16.254,lingCatScenes,2020.1.3,MacIntel,60,"[1440,900]",space,8.884515,"[""slight_left_box"",""slight_right_box""]",space,1.58078,0,0,0,1,1,ahead_left_2.jpg,ahead_left_2_path.jpg,,,,,,,,,,,,,,,,,,,,,,,
Image_List_4,,,,,,,,,,,,,,,,44178,2020-11-17_16h54.16.254,lingCatScenes,2020.1.3,MacIntel,60,"[1440,900]",space,3.493985,"[""ahead_box""]",space,0.681235,0,1,1,0,1,ahead_2.jpg,ahead_2_path.jpg,,,,,,,,,,,,,,,,,,,,,,,
Image_List_4,,,,,,,,,,,,,,,,44178,2020-11-17_16h54.16.254,lingCatScenes,2020.1.3,MacIntel,60,"[1440,900]",space,6.675095,"[""slight_left_box"",""slight_right_box""]",space,0.99761,0,2,2,5,1,right_2.jpg,right_2_path.jpg,,,,,,,,,,,,,,,,,,,,,,,
Image_List_4,,,,,,,,,,,,,,,,44178,2020-11-17_16h54.16.254,lingCatScenes,2020.1.3,MacIntel,60,"[1440,900]",space,7.015695,"[""left_box"",""ahead_box"",""slight_right_box"",""sharp_right_box"",""sharp_left_box""]",space,0.65007,0,3,3,3,1,ahead_right_left_2.jpg,ahead_right_left_2_path.jpg,,,,,,,,,,,,,,,,,,,,,,,
Image_List_4,,,,,,,,,,,,,,,,44178,2020-11-17_16h54.16.254,lingCatScenes,2020.1.3,MacIntel,60,"[1440,900]",space,2.795775,"[""ahead_box"",""sharp_right_box""]",space,0.80335,0,4,4,2,1,ahead_right_2.jpg,ahead_right_2_path.jpg,,,,,,,,,,,,,,,,,,,,,,,
Image_List_4,,,,,,,,,,,,,,,,44178,2020-11-17_16h54.16.254,lingCatScenes,2020.1.3,MacIntel,60,"[1440,900]",space,3.062745,"[""slight_left_box"",""slight_right_box""]",space,2.004045,0,5,5,6,1,right_left_2.jpg,right_left_2_path.jpg,,,,,,,,,,,,,,,,,,,,,,,
Image_List_4,,,,,,,,,,,,,,,,44178,2020-11-17_16h54.16.254,lingCatScenes,2020.1.3,MacIntel,60,"[1440,900]",space,2.81522,"[""left_box""]",space,0.5777,0,6,6,4,1,left_2.jpg,left_2_path.jpg,,,,,,,,,,,,,,,,,,,,,,,
Image_List_4,,,,,,,,,,,,,,,,44178,2020-11-17_16h54.16.254,lingCatScenes,2020.1.3,MacIntel,60,"[1440,900]",,,"[""trial_left_box"",""trial_slight_right_box""]",,,,,,,,,,space,2.93758,cave4.jpg,space,2.926215,"[-0.40703125,0.20575086805555556]","[-0.29934461805555557,-0.3061067708333333]","[1,1]","[0,0]","[0,0]","[1.868434999953024,2.652369999908842]","[""trial_left_box"",""trial_slight_right_box""]",0,0,0,20,1,boardwalk6.jpg,cave.jpg,campsite3.jpg,basketballcourt7.jpg,,
Image_List_4,,,,,,,,,,,,,,,,44178,2020-11-17_16h54.16.254,lingCatScenes,2020.1.3,MacIntel,60,"[1440,900]",,,"[""trial_ahead_box"",""trial_slight_left_box"",""trial_sharp_right_box""]",,,,,,,,,,,,winebarrel4.jpg,space,4.276225,"[0.006714409722222222,-0.19549045138888888,0.5578168402777778,0.5774782986111111]","[-0.3085546875,-0.30733072916666665,-0.29247829861111113,-0.2955598958333333]","[1,1,1,1]","[0,0,0,0]","[0,0,0,0]","[2.011880000005476,2.6298850000603124,3.64488000003621,4.011945000034757]","[""trial_ahead_box"",""trial_slight_left_box"",""trial_sharp_right_box""]",0,1,1,98,1,weightroom5.jpg,wineVineyard8.jpg,warehouse3.jpg,winebarrel2.jpg,,
Image_List_4,,,,,,,,,,,,,,,,44178,2020-11-17_16h54.16.254,lingCatScenes,2020.1.3,MacIntel,60,"[1440,900]",,,"[""trial_right_box"",""trial_ahead_box""]",,,,,,,,,,,,baggageClaim3.jpg,space,2.78411,"[0.4111111111111111,0.009661458333333333]","[-0.3171788194444444,-0.30614583333333334]","[1,1]","[0,0]","[0,0]","[1.4972599999746308,2.5636800000211224]","[""trial_right_box"",""trial_ahead_box""]",0,2,2,7,1,attic2.jpg,banquetHall4.jpg,backstage1.jpg,applestore2.jpg,,
Image_List_4,,,,,,,,,,,,,,,,44178,2020-11-17_16h54.16.254,lingCatScenes,2020.1.3,MacIntel,60,"[1440,900]",,,"[""trial_right_box""]",,,,,,,,,,,,lab5.jpg,space,1.751365,[0.41105902777777775],[-0.30876302083333335],[1],[0],[0],[1.4449700000695884],"[""trial_right_box""]",0,3,3,64,1,igloo2.jpg,newsstand5.jpg,jewelrystore8.jpg,homegarage2.jpg,,
Image_List_4,,,,,,,,,,,,,,,,44178,2020-11-17_16h54.16.254,lingCatScenes,2020.1.3,MacIntel,60,"[1440,900]",,,"[""trial_left_box"",""trial_ahead_box"",""trial_right_box""]",,,,,,,,,,,,staircase7.jpg,space,4.063855,"[-0.40130208333333334,-0.006354166666666667,0.45532118055555554,0.39731336805555556]","[-0.32260850694444443,-0.2993923611111111,-0.30438368055555554,-0.3086848958333333]","[1,1,1,1]","[0,0,0,0]","[0,0,0,0]","[1.5631450000219047,2.6453600000822917,3.4286550000542775,3.7954650000901893]","[""trial_left_box"",""trial_ahead_box"",""trial_right_box""]",0,4,4,89,1,ruralroad7.jpg,track5.jpg,ShowJumping7.jpg,sculpturegarden3.jpg,,
Image_List_4,,,,,,,,,,,,,,,,44178,2020-11-17_16h54.16.254,lingCatScenes,2020.1.3,MacIntel,60,"[1440,900]",,,"[""trial_right_box"",""trial_sharp_left_box""]",,,,,,,,,,,,lab4.jpg,space,3.534295,"[0.41489583333333335,-0.6031901041666666]","[-0.31009114583333336,-0.3006857638888889]","[1,1]","[0,0]","[0,0]","[1.6129900000523776,2.9296950000571087]","[""trial_right_box"",""trial_sharp_left_box""]",0,5,5,63,1,hut2.jpg,museum6.jpg,hotelRoom2.jpg,highway2.jpg,,
Image_List_4,,,,,,,,,,,,,,,,44178,2020-11-17_16h54.16.254,lingCatScenes,2020.1.3,MacIntel,60,"[1440,900]",,,"[""trial_slight_right_box"",""trial_sharp_left_box""]",,,,,,,,,,,,copyroom2.jpg,space,4.78409,"[0.21357638888888889,-0.6048394097222223]","[-0.318359375,-0.29038194444444443]","[1,1]","[0,0]","[0,0]","[2.147884999983944,4.2652300000190735]","[""trial_slight_right_box"",""trial_sharp_left_box""]",0,6,6,30,1,courthouse1.jpg,desertvegetation3.jpg,clothingstore2.jpg,bus_shelter3.jpg,,
Image_List_4,,,,,,,,,,,,,,,,44178,2020-11-17_16h54.16.254,lingCatScenes,2020.1.3,MacIntel,60,"[1440,900]",,,"[""trial_ahead_box""]",,,,,,,,,,,,farm4.jpg,space,3.365065,[-0.016345486111111113],[-0.311953125],[1],[0],[0],[1.5800900000613183],"[""trial_ahead_box""]",0,7,7,42,1,exerciseequipment3.jpg,firestation3.jpg,drymountains6.jpg,desertvegetation2.jpg,,
Image_List_4,,,,,,,,,,,,,,,,44178,2020-11-17_16h54.16.254,lingCatScenes,2020.1.3,MacIntel,60,"[1440,900]",,,"[""trial_ahead_box"",""trial_slight_left_box"",""trial_right_box""]",,,,,,,,,,,,carmechanic.jpg,space,5.316565,"[-0.006046006944444444,-0.16548177083333335,-0.19356770833333334,0.38403211805555554]","[-0.3120572916666667,-0.3063845486111111,-0.3063845486111111,-0.3247309027777778]","[1,1,1,1]","[0,0,0,0]","[0,0,0,0]","[1.6500900000100955,3.2661849999567494,3.8329549999907613,4.848875000025146]","[""trial_ahead_box"",""trial_slight_left_box"",""trial_right_box""]",0,8,8,17,1,bikerack1.jpg,campsite6.jpg,breakroom4.jpg,baseball6.jpg,,
Image_List_4,,,,,,,,,,,,,,,,44178,2020-11-17_16h54.16.254,lingCatScenes,2020.1.3,MacIntel,60,"[1440,900]",,,"[""trial_left_box"",""trial_right_box""]",,,,,,,,,,,,fountain7.jpg,space,3.229015,"[-0.40031684027777775,0.3818489583333333]","[-0.30483072916666665,-0.3152387152777778]","[1,1]","[0,0]","[0,0]","[1.7498849999392405,2.5471050000051036]","[""trial_left_box"",""trial_right_box""]",0,9,9,47,1,frontDoor.jpg,gasstation8.jpg,firestation4.jpg,elevatorOutside2.jpg,,
Image_List_4,,,,,,,,,,,,,,,,44178,2020-11-17_16h54.16.254,lingCatScenes,2020.1.3,MacIntel,60,"[1440,900]",,,"[""trial_slight_left_box""]",,,,,,,,,,,,boardwalk4.jpg,space,3.71454,"[0.013984375,-0.1718185763888889,-0.18697916666666667,0.03871527777777778,-0.0028038194444444443]","[-0.3196484375,-0.3048914930555556,-0.3030729166666667,-0.3021267361111111,-0.3021267361111111]","[1,1,1,1,1]","[0,0,0,0,0]","[0,0,0,0,0]","[1.3975299999583513,2.1288549999007955,2.6130999999586493,3.062249999959022,3.4790349999675527]","[""trial_ahead_box"",""trial_slight_left_box"",""trial_ahead_box""]",0,10,10,13,1,balconyIN2.jpg,bowlingalley3.jpg,beach2.jpg,backyard6.jpg,,
Image_List_4,,,,,,,,,,,,,,,,44178,2020-11-17_16h54.16.254,lingCatScenes,2020.1.3,MacIntel,60,"[1440,900]",,,"[""trial_ahead_box"",""trial_sharp_left_box""]",,,,,,,,,,,,hut5.jpg,space,3.084815,"[-0.009505208333333333,-0.5974739583333334,0.5746831597222222]","[-0.3018663194444444,-0.2933072916666667,-0.2998177083333333]","[1,1,1]","[0,0,0]","[0,0,0]","[0.8800200000405312,2.029865000047721,2.8132500000065193]","[""trial_ahead_box"",""trial_sharp_left_box""]",0,11,11,57,1,hayfield5.jpg,jail1.jpg,hallway4.jpg,gazebo.jpg,,
Image_List_4,,,,,,,,,,,,,,,,44178,2020-11-17_16h54.16.254,lingCatScenes,2020.1.3,MacIntel,60,"[1440,900]",,,"[""trial_ahead_box"",""trial_slight_right_box""]",,,,,,,,,,,,igloo4.jpg,space,2.5659,"[-0.003472222222222222,0.21279947916666667]","[-0.2905815972222222,-0.2991449652777778]","[1,1]","[0,0]","[0,0]","[1.5802050000056624,2.2478249999694526]","[""trial_ahead_box"",""trial_slight_right_box""]",0,12,12,58,1,highway7.jpg,lab1.jpg,hedgemaze1.jpg,grocerystore2.jpg,,
Image_List_4,,,,,,,,,,,,,,,,44178,2020-11-17_16h54.16.254,lingCatScenes,2020.1.3,MacIntel,60,"[1440,900]",,,"[""trial_slight_left_box"",""trial_slight_right_box""]",,,,,,,,,,,,dentist4.jpg,space,2.85108,"[-0.19708333333333333,0.20543402777777778]","[-0.2943967013888889,-0.32071614583333335]","[1,1]","[0,0]","[0,0]","[1.979274999932386,2.528594999923371]","[""trial_slight_left_box"",""trial_slight_right_box""]",0,13,13,32,1,dancestudio6.jpg,diner12.jpg,constructionSite2.jpg,cabin4.jpg,,
Image_List_4,,,,,,,,,,,,,,,,44178,2020-11-17_16h54.16.254,lingCatScenes,2020.1.3,MacIntel,60,"[1440,900]",,,"[""trial_ahead_box"",""trial_slight_left_box"",""trial_slight_right_box""]",,,,,,,,,,,,cabinIndoors.jpg,space,3.150045,"[-0.009908854166666667,-0.21584201388888888,0.21260850694444444]","[-0.3081423611111111,-0.29883680555555553,-0.28606770833333334]","[1,1,1]","[0,0,0]","[0,0,0]","[1.3800249999621883,2.2798450000118464,2.897499999962747]","[""trial_ahead_box"",""trial_slight_left_box"",""trial_slight_right_box""]",0,14,14,15,1,bambooforest4.jpg,cafeteria5.jpg,bleachers8.jpg,bar8.jpg,,
Image_List_4,,,,,,,,,,,,,,,,44178,2020-11-17_16h54.16.254,lingCatScenes,2020.1.3,MacIntel,60,"[1440,900]",,,"[""trial_ahead_box"",""trial_left_box""]",,,,,,,,,,,,castle4.jpg,space,3.68363,"[0.004184027777777778,-0.39075086805555553]","[-0.3131553819444444,-0.29485243055555554]","[1,1]","[0,0]","[0,0]","[2.1475599999539554,3.046929999953136]","[""trial_ahead_box"",""trial_left_box""]",0,15,15,19,1,boardwalk2.jpg,casino3.jpg,cafeteria1.jpg,basketballcourt.jpg,,
Image_List_4,,,,,,,,,,,,,,,,44178,2020-11-17_16h54.16.254,lingCatScenes,2020.1.3,MacIntel,60,"[1440,900]",,,"[""trial_ahead_box""]",,,,,,,,,,,,winebarrel3.jpg,space,1.532015,[-0.007977430555555555],[-0.2985329861111111],[1],[0],[0],[1.2474950000178069],"[""trial_ahead_box""]",0,16,16,97,1,warehouseoutside4.jpg,wineVineyard2.jpg,waitingroom4.jpg,warehouseoutside3.jpg,,
Image_List_4,,,,,,,,,,,,,,,,44178,2020-11-17_16h54.16.254,lingCatScenes,2020.1.3,MacIntel,60,"[1440,900]",,,"[""trial_slight_right_box""]",,,,,,,,,,,,appleorchard3.jpg,space,1.59995,[0.20294704861111112],[-0.29690538194444444],[1],[0],[0],[1.3465850000502542],"[""trial_slight_right_box""]",0,17,17,4,1,artStudio1.jpg,baggageClaim2.jpg,auto_showroom1.jpg,alley4.jpg,,
Image_List_4,,,,,,,,,,,,,,,,44178,2020-11-17_16h54.16.254,lingCatScenes,2020.1.3,MacIntel,60,"[1440,900]",,,"[""trial_right_box"",""trial_left_box""]",,,,,,,,,,,,liquorstore2.jpg,space,2.68337,"[0.40078993055555556,-0.39426215277777776]","[-0.31654947916666665,-0.3043576388888889]","[1,1]","[0,0]","[0,0]","[1.6139849999453872,2.4135999999707565]","[""trial_right_box"",""trial_left_box""]",0,18,18,67,1,library_aisle3.jpg,park7.jpg,laundromat4.jpg,hospitalroom2.jpg,,
Image_List_4,,,,,,,,,,,,,,,,44178,2020-11-17_16h54.16.254,lingCatScenes,2020.1.3,MacIntel,60,"[1440,900]",,,"[""trial_ahead_box""]",,,,,,,,,,,,forestpath4.jpg,space,1.78209,[-0.010203993055555555],[-0.3010069444444444],[1],[0],[0],[1.5144749999744818],"[""trial_ahead_box""]",0,19,19,45,1,fittingroom2.jpg,frontFoyer7.jpg,factory1.jpg,dock4.jpg,,
Image_List_4,,,,,,,,,,,,,,,,44178,2020-11-17_16h54.16.254,lingCatScenes,2020.1.3,MacIntel,60,"[1440,900]",,,"[""trial_ahead_box"",""trial_slight_left_box"",""trial_right_box""]",,,,,,,,,,,,dugout1.jpg,space,5.16772,"[-0.0014887152777777778,-0.20799479166666668,0.38784288194444444]","[-0.3022265625,-0.3092404513888889,-0.2938498263888889]","[1,1,1]","[0,0,0]","[0,0,0]","[2.763674999936484,3.6138999999966472,4.897069999948144]","[""trial_ahead_box"",""trial_slight_left_box"",""trial_right_box""]",0,20,20,40,1,drycleaners4.jpg,farm1.jpg,drymountains.jpg,clothingstore3.jpg,,
Image_List_4,,,,,,,,,,,,,,,,44178,2020-11-17_16h54.16.254,lingCatScenes,2020.1.3,MacIntel,60,"[1440,900]",,,"[""trial_ahead_box"",""trial_slight_left_box""]",,,,,,,,,,,,bleachers7.jpg,space,3.266965,"[0.001540798611111111,-0.19719184027777778]","[-0.29398871527777776,-0.28975260416666665]","[1,1]","[0,0]","[0,0]","[2.1798199999611825,3.012555000022985]","[""trial_ahead_box"",""trial_slight_left_box""]",0,21,21,12,1,baggageClaim4.jpg,bedroom6.jpg,bambooforest5.jpg,backyard5.jpg,,
Image_List_4,,,,,,,,,,,,,,,,44178,2020-11-17_16h54.16.254,lingCatScenes,2020.1.3,MacIntel,60,"[1440,900]",,,"[""trial_ahead_box"",""trial_sharp_left_box"",""trial_left_box"",""trial_slight_left_box"",""trial_slight_right_box"",""trial_right_box"",""trial_sharp_right_box""]",,,,,,,,,,,,warehouseoutside2.jpg,space,5.16554,"[-0.001875,-0.6073394097222222,-0.40289930555555553,-0.21621961805555556,0.21102864583333333,0.41702256944444444,0.5722873263888889,0.5910112847222222]","[-0.3229210069444444,-0.30407552083333333,-0.30442274305555556,-0.29877604166666666,-0.3124045138888889,-0.3023871527777778,-0.30181857638888887,-0.30019965277777777]","[1,1,1,1,1,1,1,1]","[0,0,0,0,0,0,0,0]","[0,0,0,0,0,0,0,0]","[1.0776499999919906,1.928139999974519,2.345214999979362,2.7610100000165403,3.628234999952838,4.078544999938458,4.494364999933168,4.928124999976717]","[""trial_ahead_box"",""trial_sharp_left_box"",""trial_left_box"",""trial_slight_left_box"",""trial_slight_right_box"",""trial_right_box"",""trial_sharp_right_box""]",0,22,22,93,1,tollbooth8.jpg,volleyballcourt4.jpg,staircase4.jpg,tenniscourt.jpg,,
Image_List_4,,,,,,,,,,,,,,,,44178,2020-11-17_16h54.16.254,lingCatScenes,2020.1.3,MacIntel,60,"[1440,900]",,,"[""trial_left_box""]",,,,,,,,,,,,botanicalGarden5.jpg,space,2.749395,[-0.4126475694444444],[-0.3088454861111111],[1],[0],[0],[2.462554999976419],"[""trial_left_box""]",0,23,23,14,1,ballroom1.jpg,breakroom5.jpg,bistrooutdoor5.jpg,ballroom3.jpg,,
Image_List_4,,,,,,,,,,,,,,,,44178,2020-11-17_16h54.16.254,lingCatScenes,2020.1.3,MacIntel,60,"[1440,900]",,,"[""trial_slight_left_box"",""trial_slight_right_box""]",,,,,,,,,,,,pavilion3.jpg,space,3.048395,"[-0.20106336805555555,0.19997395833333334]","[-0.3116145833333333,-0.30928819444444444]","[1,1]","[0,0]","[0,0]","[1.9130300000542775,2.5120950000127777]","[""trial_slight_left_box"",""trial_slight_right_box""]",0,24,24,78,1,parkinglot3.jpg,poolhall1.jpg,pier5.jpg,observatory1.jpg,,
Image_List_4,,,,,,,,,,,,,,,,44178,2020-11-17_16h54.16.254,lingCatScenes,2020.1.3,MacIntel,60,"[1440,900]",,,"[""trial_left_box"",""trial_right_box""]",,,,,,,,,,,,sculpturegarden2.jpg,space,2.94731,"[-0.40737847222222223,0.37656684027777776]","[-0.31526909722222224,-0.30483072916666665]","[1,1]","[0,0]","[0,0]","[1.5633399999933317,2.6473349999869242]","[""trial_left_box"",""trial_right_box""]",0,25,25,87,1,restaurantkitchen2.jpg,theater2.jpg,savanna.jpg,RVinside2.jpg,,
Image_List_4,,,,,,,,,,,,,,,,44178,2020-11-17_16h54.16.254,lingCatScenes,2020.1.3,MacIntel,60,"[1440,900]",,,"[""trial_ahead_box"",""trial_left_box"",""trial_right_box""]",,,,,,,,,,,,drymountains5.jpg,space,4.03394,"[0.0044835069444444445,-0.393046875,0.411015625]","[-0.29450086805555553,-0.3098914930555556,-0.3107682291666667]","[1,1,1]","[0,0,0]","[0,0,0]","[1.3297850000672042,2.8972450000001118,3.7970850000856444]","[""trial_ahead_box"",""trial_left_box"",""trial_right_box""]",0,26,26,39,1,driveway6.jpg,eyeglassstore9.jpg,drycleaners6.jpg,cliff5.jpg,,
Image_List_4,,,,,,,,,,,,,,,,44178,2020-11-17_16h54.16.254,lingCatScenes,2020.1.3,MacIntel,60,"[1440,900]",,,"[""trial_ahead_box"",""trial_slight_left_box"",""trial_slight_right_box""]",,,,,,,,,,,,fountain4.jpg,space,2.283745,"[0.023211805555555555,-0.21281684027777778,0.1950564236111111]","[-0.31472222222222224,-0.3067491319444444,-0.3196571180555556]","[1,1,1]","[0,0,0]","[0,0,0]","[0.8974249999737367,1.4975550000090152,2.0471050000051036]","[""trial_ahead_box"",""trial_slight_left_box"",""trial_slight_right_box""]",0,27,27,46,1,flowershop.jpg,frontLawn5.jpg,farmersmarket4.jpg,dormroom6.jpg,,
Image_List_4,,,,,,,,,,,,,,,,44178,2020-11-17_16h54.16.254,lingCatScenes,2020.1.3,MacIntel,60,"[1440,900]",,,"[""trial_ahead_box"",""trial_slight_left_box""]",,,,,,,,,,,,driveway8.jpg,space,2.819305,"[0.006410590277777778,-0.2670182291666667,-0.21236979166666667]","[-0.30637586805555556,-0.2846180555555556,-0.2861154513888889]","[1,1,1]","[0,0,0]","[0,0,0]","[1.296570000005886,1.7638899999437854,2.213899999973364]","[""trial_ahead_box"",""trial_slight_left_box""]",0,28,28,38,1,dining_car2.jpg,elevatorOutside4.jpg,dock1.jpg,classroom1.jpg,,
Image_List_4,,,,,,,,,,,,,,,,44178,2020-11-17_16h54.16.254,lingCatScenes,2020.1.3,MacIntel,60,"[1440,900]",,,"[""trial_slight_left_box""]",,,,,,,,,,,,ticket_counter6.jpg,space,2.499805,[-0.187265625],[-0.29848524305555557],[1],[0],[0],[2.280430000042543],"[""trial_slight_left_box""]",0,29,29,91,1,shoestore2.jpg,trainStation5.jpg,skatepark5.jpg,sidewalk3.jpg,,
Image_List_4,,,,,,,,,,,,,,,,44178,2020-11-17_16h54.16.254,lingCatScenes,2020.1.3,MacIntel,60,"[1440,900]",,,"[""trial_ahead_box"",""trial_slight_left_box"",""trial_slight_right_box""]",,,,,,,,,,,,weightroom4.jpg,space,3.20428,"[-0.009730902777777778,-0.18897135416666666,0.23490885416666665,0.2218923611111111]","[-0.31280381944444446,-0.31280381944444446,-0.2937543402777778,-0.30942708333333335]","[1,1,1,1]","[0,0,0,0]","[0,0,0,0]","[1.315610000048764,1.7312099999981,2.28242499998305,2.7820000000065193]","[""trial_ahead_box"",""trial_slight_left_box"",""trial_slight_right_box""]",0,30,30,95,1,waitingroom2.jpg,warehouse2.jpg,stripmall6.jpg,tvstudio3.jpg,,
Image_List_4,,,,,,,,,,,,,,,,44178,2020-11-17_16h54.16.254,lingCatScenes,2020.1.3,MacIntel,60,"[1440,900]",,,"[""trial_ahead_box"",""trial_right_box""]",,,,,,,,,,,,airportTerminal3.jpg,space,2.353655,"[0.009934895833333334,0.38666232638888887]","[-0.29498697916666666,-0.29792534722222225]","[1,1]","[0,0]","[0,0]","[1.546074999962002,2.0966499999631196]","[""trial_ahead_box"",""trial_right_box""]",0,31,31,1,1,airportTerminal4.jpg,apartmentBuilding1.jpg,applestore1.jpg,airportTerminal2.jpg,,
Image_List_4,,,,,,,,,,,,,,,,44178,2020-11-17_16h54.16.254,lingCatScenes,2020.1.3,MacIntel,60,"[1440,900]",,,"[""trial_ahead_box"",""trial_slight_right_box""]",,,,,,,,,,,,foodcourt6.jpg,space,2.36339,"[0.011744791666666667,0.1894921875]","[-0.29825520833333335,-0.3209809027777778]","[1,1]","[0,0]","[0,0]","[1.5452449999284,1.9945750000188127]","[""trial_ahead_box"",""trial_slight_right_box""]",0,32,32,44,1,firestation2.jpg,frontFoyer4.jpg,elevatorOutside1.jpg,dock2.jpg,,
Image_List_4,,,,,,,,,,,,,,,,44178,2020-11-17_16h54.16.254,lingCatScenes,2020.1.3,MacIntel,60,"[1440,900]",,,"[""trial_right_box""]",,,,,,,,,,,,diner11.jpg,space,1.52709,[0.4203689236111111],[-0.29986979166666666],[1],[0],[0],[1.2634199999738485],"[""trial_right_box""]",0,33,33,34,1,deck4.jpg,diningroom5.jpg,courthouse4.jpg,campusquad1.jpg,,
Image_List_4,,,,,,,,,,,,,,,,44178,2020-11-17_16h54.16.254,lingCatScenes,2020.1.3,MacIntel,60,"[1440,900]",,,"[""trial_ahead_box"",""trial_slight_left_box"",""trial_slight_right_box""]",,,,,,,,,,,,foodcourt.jpg,space,3.327375,"[-0.008402777777777778,-0.17960069444444443,0.29094184027777775,0.217734375]","[-0.29347222222222225,-0.2988628472222222,-0.3014105902777778,-0.3014105902777778]","[1,1,1,1]","[0,0,0,0]","[0,0,0,0]","[1.6801250000717118,2.147425000090152,2.7135550000239164,3.0643850000342354]","[""trial_ahead_box"",""trial_slight_left_box"",""trial_slight_right_box""]",0,34,34,43,1,exerciseequipment5.jpg,forestpath10.jpg,dugout2.jpg,diningroom3.jpg,,
Image_List_4,,,,,,,,,,,,,,,,44178,2020-11-17_16h54.16.254,lingCatScenes,2020.1.3,MacIntel,60,"[1440,900]",,,"[""trial_ahead_box""]",,,,,,,,,,,,cemetery3.jpg,space,1.446245,[0.0029774305555555556],[-0.32326822916666664],[1],[0],[0],[1.2141250000568107],"[""trial_ahead_box""]",0,35,35,23,1,bus_shelter.jpg,church8.jpg,carmechanic4.jpeg,bleachers6.jpg,,
Image_List_4,,,,,,,,,,,,,,,,44178,2020-11-17_16h54.16.254,lingCatScenes,2020.1.3,MacIntel,60,"[1440,900]",,,"[""trial_ahead_box"",""trial_left_box"",""trial_right_box""]",,,,,,,,,,,,sandDunes_desert_outdoor3.jpg,space,5.11557,"[0.0017057291666666666,-0.20455295138888888,-0.1715060763888889,-0.20673611111111112,-0.4109375,0.4105815972222222]","[-0.30745225694444445,-0.3089279513888889,-0.2997873263888889,-0.30432725694444446,-0.28280815972222223,-0.30237413194444446]","[1,1,1,1,1,1]","[0,0,0,0,0,0]","[0,0,0,0,0,0]","[1.6972999999998137,2.2977400000672787,3.0973050000611693,3.531000000075437,3.9648500001057982,4.795695000095293]","[""trial_ahead_box"",""trial_slight_left_box"",""trial_slight_left_box"",""trial_left_box"",""trial_right_box""]",0,36,36,85,1,recordingstudio4.jpg,sidewalk5.jpg,ruralroad2.jpg,rooftop3.jpg,,
Image_List_4,,,,,,,,,,,,,,,,44178,2020-11-17_16h54.16.254,lingCatScenes,2020.1.3,MacIntel,60,"[1440,900]",,,"[""trial_ahead_box"",""trial_left_box"",""trial_right_box""]",,,,,,,,,,,,sandDunes_desert_outdoor.jpg,space,3.19837,"[0.019375,-0.3960503472222222,0.38980902777777776]","[-0.3011892361111111,-0.29909722222222224,-0.2991189236111111]","[1,1,1]","[0,0,0]","[0,0,0]","[1.2634700000053272,2.1126299999887124,2.9446400000015274]","[""trial_ahead_box"",""trial_left_box"",""trial_right_box""]",0,37,37,84,1,readingroom5.jpg,sidewalk2.jpg,restaurant13.jpg,rooftop2.jpg,,
Image_List_4,,,,,,,,,,,,,,,,44178,2020-11-17_16h54.16.254,lingCatScenes,2020.1.3,MacIntel,60,"[1440,900]",,,"[""trial_ahead_box"",""trial_left_box""]",,,,,,,,,,,,minigolf8.jpg,space,2.283795,"[0.003832465277777778,-0.39207899305555555]","[-0.3041189236111111,-0.29628038194444445]","[1,1]","[0,0]","[0,0]","[1.1140449999365956,2.0644049999536946]","[""trial_ahead_box"",""trial_left_box""]",0,38,38,70,1,lockerroom4.jpg,pavilion.jpg,lockerroom3.jpg,igloo.jpg,,
Image_List_4,,,,,,,,,,,,,,,,44178,2020-11-17_16h54.16.254,lingCatScenes,2020.1.3,MacIntel,60,"[1440,900]",,,"[""trial_ahead_box"",""trial_slight_right_box""]",,,,,,,,,,,,attic4.jpg,space,2.333935,"[0.01625,0.20641927083333333]","[-0.32057291666666665,-0.3143532986111111]","[1,1]","[0,0]","[0,0]","[1.5980700000654906,2.080900000059046]","[""trial_ahead_box"",""trial_slight_right_box""]",0,39,39,5,1,artStudio3.jpg,bambooforest.jpg,auto_showroom4.jpg,amusement3.jpg,,
Image_List_4,,,,,,,,,,,,,,,,44178,2020-11-17_16h54.16.254,lingCatScenes,2020.1.3,MacIntel,60,"[1440,900]",,,"[""trial_ahead_box"",""trial_slight_left_box"",""trial_slight_right_box""]",,,,,,,,,,,,sandDunes_desert_outdoor8.jpg,space,2.59957,"[-0.00078125,-0.20512152777777778,0.20370225694444444]","[-0.2969921875,-0.30171440972222224,-0.279921875]","[1,1,1]","[0,0,0]","[0,0,0]","[1.263645000057295,1.7296700000297278,2.3464399999938905]","[""trial_ahead_box"",""trial_slight_left_box"",""trial_slight_right_box""]",0,40,40,86,1,restaurant14.jpg,stripmall.jpg,ruralroad3.jpg,rooftop4.jpg,,
Image_List_4,,,,,,,,,,,,,,,,44178,2020-11-17_16h54.16.254,lingCatScenes,2020.1.3,MacIntel,60,"[1440,900]",,,"[""trial_slight_left_box""]",,,,,,,,,,,,bar.jpg,space,1.584145,[-0.19667100694444445],[-0.3036024305555556],[1],[0],[0],[1.33011500001885],"[""trial_slight_left_box""]",0,41,41,8,1,attic3.jpg,banquetHall6.jpg,balconyIN.jpg,applestore4.jpg,,
Image_List_4,,,,,,,,,,,,,,,,44178,2020-11-17_16h54.16.254,lingCatScenes,2020.1.3,MacIntel,60,"[1440,900]",,,"[""trial_ahead_box"",""trial_right_box""]",,,,,,,,,,,,closet.jpg,space,5.22029,"[-0.021176215277777778,0.4126475694444444]","[-0.31247395833333336,-0.2993663194444444]","[1,1]","[0,0]","[0,0]","[4.06531500001438,4.9331249999813735]","[""trial_ahead_box"",""trial_right_box""]",0,42,42,27,1,castle3.jpg,courtroom3.jpg,churchInside4.jpg,brewery2.jpg,,
Image_List_4,,,,,,,,,,,,,,,,44178,2020-11-17_16h54.16.254,lingCatScenes,2020.1.3,MacIntel,60,"[1440,900]",,,"[""trial_ahead_box"",""trial_left_box"",""trial_right_box""]",,,,,,,,,,,,soccerfield.jpg,space,3.651545,"[-0.008654513888888889,-0.008975694444444444,-0.42270833333333335,0.39862413194444446]","[-0.27486979166666664,-0.3025390625,-0.29268663194444444,-0.2916449652777778]","[1,1,1,1]","[0,0,0,0]","[0,0,0,0]","[1.444895000080578,1.8970550000667572,2.594825000036508,3.3636699999915436]","[""trial_ahead_box"",""trial_left_box"",""trial_right_box""]",0,43,43,88,1,rooftop1.jpg,track.jpg,sculpturegarden4.jpg,sandbox.jpg,,
Image_List_4,,,,,,,,,,,,,,,,44178,2020-11-17_16h54.16.254,lingCatScenes,2020.1.3,MacIntel,60,"[1440,900]",,,"[""trial_slight_left_box"",""trial_slight_right_box""]",,,,,,,,,,,,museum3.jpg,space,5.03468,"[-0.2097439236111111,0.1812065972222222]","[-0.2875477430555556,-0.2925607638888889]","[1,1]","[0,0]","[0,0]","[4.195689999964088,4.779424999956973]","[""trial_slight_left_box"",""trial_slight_right_box""]",0,44,44,71,1,metroInside2.jpg,pavilion5.jpg,metroInside3.jpg,jewelrystore.jpg,,
Image_List_4,,,,,,,,,,,,,,,,44178,2020-11-17_16h54.16.254,lingCatScenes,2020.1.3,MacIntel,60,"[1440,900]",,,"[""trial_ahead_box"",""trial_slight_left_box""]",,,,,,,,,,,,cave5.jpg,space,2.19838,"[0.01046875,-0.21247829861111112]","[-0.31516059027777776,-0.3117361111111111]","[1,1]","[0,0]","[0,0]","[1.0642750000115484,1.946735000004992]","[""trial_ahead_box"",""trial_slight_left_box""]",0,45,45,21,1,botanicalGarden6.jpg,cemetery6.jpg,campusquad3.jpg,beach1.jpeg,,
Image_List_4,,,,,,,,,,,,,,,,44178,2020-11-17_16h54.16.254,lingCatScenes,2020.1.3,MacIntel,60,"[1440,900]",,,"[""trial_ahead_box""]",,,,,,,,,,,,fabricstore1.jpg,space,1.195835,[-0.0017013888888888888],[-0.29909288194444444],[1],[0],[0],[0.964380000019446],"[""trial_ahead_box""]",0,46,46,41,1,dugout4.jpg,farm3.jpg,drymountains3.jpg,dentist2.jpg,,
Image_List_4,,,,,,,,,,,,,,,,44178,2020-11-17_16h54.16.254,lingCatScenes,2020.1.3,MacIntel,60,"[1440,900]",,,"[""trial_right_box""]",,,,,,,,,,,,kindergarten_classroom5.jpg,space,2.275315,[0.37569444444444444],[-0.2989322916666667],[1],[0],[0],[1.8457200000993907],"[""trial_right_box""]",0,47,47,59,1,homegarden7.jpg,library_aisle8.jpg,highway4.jpg,grocerystore3.jpg,,
Image_List_4,,,,,,,,,,,,,,,,44178,2020-11-17_16h54.16.254,lingCatScenes,2020.1.3,MacIntel,60,"[1440,900]",,,"[""trial_slight_left_box"",""trial_slight_right_box""]",,,,,,,,,,,,greenhouse.jpg,space,2.444105,"[-0.19682725694444445,0.20993055555555556]","[-0.3032986111111111,-0.31915364583333333]","[1,1]","[0,0]","[0,0]","[1.5974050000077114,2.1645900000585243]","[""trial_slight_left_box"",""trial_slight_right_box""]",0,48,48,49,1,frontDoor3.jpg,greenhouse5.jpg,flowershop3.jpg,farm2.jpg,,
Image_List_4,,,,,,,,,,,,,,,,44178,2020-11-17_16h54.16.254,lingCatScenes,2020.1.3,MacIntel,60,"[1440,900]",,,"[""trial_slight_left_box"",""trial_slight_right_box""]",,,,,,,,,,,,baggageClaim1.jpg,space,4.22742,"[-0.20608072916666667,0.21648003472222221]","[-0.3032638888888889,-0.28911892361111113]","[1,1]","[0,0]","[0,0]","[1.9321950000012293,3.997774999937974]","[""trial_slight_left_box"",""trial_slight_right_box""]",0,49,49,6,1,ATM1.jpg,banquetHall2.jpg,auto_showroom5.jpg,apartmentBuilding3.jpg,,
Image_List_4,,,,,,,,,,,,,,,,44178,2020-11-17_16h54.16.254,lingCatScenes,2020.1.3,MacIntel,60,"[1440,900]",,,"[""trial_ahead_box"",""trial_left_box"",""trial_right_box""]",,,,,,,,,,,,driveway7.jpg,space,2.600705,"[0.0026085069444444445,-0.3999479166666667,0.4059201388888889]","[-0.3132465277777778,-0.31894097222222223,-0.29877170138888887]","[1,1,1]","[0,0,0]","[0,0,0]","[0.9003549999324605,1.5820749999256805,2.383709999965504]","[""trial_ahead_box"",""trial_left_box"",""trial_right_box""]",0,50,50,37,1,dining_car.jpg,driveway4.jpg,dinosaur4.jpg,citystreet9.jpg,,
Image_List_4,,,,,,,,,,,,,,,,44178,2020-11-17_16h54.16.254,lingCatScenes,2020.1.3,MacIntel,60,"[1440,900]",,,"[""trial_ahead_box"",""trial_slight_left_box""]",,,,,,,,,,,,operatingroom1.jpg,space,1.7946,"[0.008706597222222221,-0.2059418402777778]","[-0.2914409722222222,-0.2914409722222222]","[1,1]","[0,0]","[0,0]","[0.9790550000034273,1.4971549999900162]","[""trial_ahead_box"",""trial_slight_left_box""]",0,51,51,74,1,newsstand2.jpg,playground10.jpg,observatory4.jpeg,lightingstore2.jpg,,
Image_List_4,,,,,,,,,,,,,,,,44178,2020-11-17_16h54.16.254,lingCatScenes,2020.1.3,MacIntel,60,"[1440,900]",,,"[""trial_ahead_box""]",,,,,,,,,,,,dining_car6.jpg,space,1.38145,[-0.01068142361111111],[-0.3220572916666667],[1],[0],[0],[1.1650699999881908],"[""trial_ahead_box""]",0,52,52,35,1,deck5.jpg,dock3.jpg,cubicle7.jpg,carmechanic2.jpg,,
Image_List_4,,,,,,,,,,,,,,,,44178,2020-11-17_16h54.16.254,lingCatScenes,2020.1.3,MacIntel,60,"[1440,900]",,,"[""trial_ahead_box"",""trial_left_box""]",,,,,,,,,,,,basement5.jpg,space,2.81777,"[-0.0030121527777777777,-0.3706510416666667,-0.39401041666666664]","[-0.30676649305555553,-0.31428385416666665,-0.30971354166666665]","[1,1,1]","[0,0,0]","[0,0,0]","[1.0149650000967085,1.5641100000357255,2.59574000001885]","[""trial_ahead_box"",""trial_left_box""]",0,53,53,9,1,auto_showroom3.jpg,bar2.jpg,ballroom2.jpg,arcade2.jpg,,
Image_List_4,,,,,,,,,,,,,,,,44178,2020-11-17_16h54.16.254,lingCatScenes,2020.1.3,MacIntel,60,"[1440,900]",,,"[""trial_ahead_box"",""trial_right_box""]",,,,,,,,,,,,restaurant8.jpg,space,2.51741,"[0.009574652777777777,0.38936631944444444]","[-0.31475694444444446,-0.30764322916666664]","[1,1]","[0,0]","[0,0]","[1.4630249999463558,2.27996999991592]","[""trial_ahead_box"",""trial_right_box""]",0,54,54,83,1,readingroom1.jpg,sculpturegarden1.jpg,promenadeDeck6.jpg,readingroom2.jpg,,
Image_List_4,,,,,,,,,,,,,,,,44178,2020-11-17_16h54.16.254,lingCatScenes,2020.1.3,MacIntel,60,"[1440,900]",,,"[""trial_ahead_box"",""trial_left_box"",""trial_right_box""]",,,,,,,,,,,,park2.jpg,space,4.08436,"[0.001987847222222222,-0.382578125,0.39413628472222223,0.39413628472222223]","[-0.29901041666666667,-0.2967708333333333,-0.3361154513888889,-0.2882855902777778]","[1,1,1,1]","[0,0,0,0]","[0,0,0,0]","[1.063815000001341,2.4627300000283867,3.4638350000604987,3.8629600000567734]","[""trial_ahead_box"",""trial_left_box"",""trial_right_box""]",0,55,55,76,1,parkinggarage.jpg,playroom4.jpg,parkinggarage3.jpg,lookout4.jpg,,
Image_List_4,,,,,,,,,,,,,,,,44178,2020-11-17_16h54.16.254,lingCatScenes,2020.1.3,MacIntel,60,"[1440,900]",,,"[""trial_ahead_box"",""trial_sharp_left_box""]",,,,,,,,,,,,homegarage4.jpg,space,2.315265,"[-0.018940972222222224,-0.5975520833333333]","[-0.29360243055555557,-0.30995225694444445]","[1,1]","[0,0]","[0,0]","[1.0802850000327453,1.8812300000572577]","[""trial_ahead_box"",""trial_sharp_left_box""]",0,56,56,54,1,greenhouse2.jpg,horsebarn11.jpg,gazebo2.jpg,frontFoyer.jpg,,
Image_List_4,,,,,,,,,,,,,,,,44178,2020-11-17_16h54.16.254,lingCatScenes,2020.1.3,MacIntel,60,"[1440,900]",,,"[""trial_ahead_box"",""trial_slight_left_box"",""trial_slight_right_box""]",,,,,,,,,,,,basketballcourt3.jpg,space,3.433205,"[-0.0012717013888888888,-0.2197265625,-0.2155512152777778,0.20409288194444444]","[-0.3215277777777778,-0.35009548611111113,-0.3249826388888889,-0.30563802083333336]","[1,1,1,1]","[0,0,0,0]","[0,0,0,0]","[1.512275000102818,1.9789200000232086,2.3791000000201166,3.1790000000037253]","[""trial_ahead_box"",""trial_slight_left_box"",""trial_slight_right_box""]",0,57,57,10,1,backstage2.jpg,barbershop3.jpg,ballroom4.jpg,ATM4.jpg,,
Image_List_4,,,,,,,,,,,,,,,,44178,2020-11-17_16h54.16.254,lingCatScenes,2020.1.3,MacIntel,60,"[1440,900]",,,"[""trial_ahead_box"",""trial_slight_left_box"",""trial_slight_right_box""]",,,,,,,,,,,,hut1.jpg,space,2.88549,"[-0.010551215277777777,-0.1818142361111111,0.2573828125,0.1977126736111111]","[-0.29651475694444446,-0.30137152777777776,-0.31961371527777777,-0.3131597222222222]","[1,1,1,1]","[0,0,0,0]","[0,0,0,0]","[1.1800100000109524,1.7464700000127777,2.2804699999978766,2.6470749999862164]","[""trial_ahead_box"",""trial_slight_left_box"",""trial_slight_right_box""]",0,58,58,56,1,grocerystore5.jpg,hut3.jpg,golfcourse10.jpg,gasstation2.jpg,,
Image_List_4,,,,,,,,,,,,,,,,44178,2020-11-17_16h54.16.254,lingCatScenes,2020.1.3,MacIntel,60,"[1440,900]",,,"[""trial_ahead_box"",""trial_left_box"",""trial_right_box""]",,,,,,,,,,,,constructionSite4.jpg,space,2.66761,"[-0.0047395833333333335,-0.40446614583333335,0.388359375]","[-0.2954600694444444,-0.30725260416666667,-0.2941840277777778]","[1,1,1]","[0,0,0]","[0,0,0]","[0.9635700000217184,1.5298099999781698,2.3133399999933317]","[""trial_ahead_box"",""trial_left_box"",""trial_right_box""]",0,59,59,29,1,cornfield2.jpg,deck2.jpg,cliff2.jpg,bridalboutique3.jpg,,
Image_List_4,,,,,,,,,,,,,,,,44178,2020-11-17_16h54.16.254,lingCatScenes,2020.1.3,MacIntel,60,"[1440,900]",,,"[""trial_ahead_box"",""trial_right_box""]",,,,,,,,,,,,campusquad4.jpg,space,2.551805,"[0.003185763888888889,0.385859375]","[-0.3049392361111111,-0.30526041666666665]","[1,1]","[0,0]","[0,0]","[1.4299200000241399,2.263649999978952]","[""trial_ahead_box"",""trial_right_box""]",0,60,60,16,1,basement.jpg,cafeteria6.jpg,breakroom2.jpg,barbershop2.jpg,,
Image_List_4,,,,,,,,,,,,,,,,44178,2020-11-17_16h54.16.254,lingCatScenes,2020.1.3,MacIntel,60,"[1440,900]",,,"[""trial_ahead_box"",""trial_left_box""]",,,,,,,,,,,,park8.jpg,space,2.566765,"[-0.014366319444444444,-0.40132378472222224]","[-0.30486111111111114,-0.28793836805555556]","[1,1]","[0,0]","[0,0]","[1.464420000091195,2.3311950000934303]","[""trial_ahead_box"",""trial_left_box""]",0,61,61,77,1,parkinggarage2.jpg,playroom6.jpg,pasture9.jpg,mallindoor6.jpg,,
Image_List_4,,,,,,,,,,,,,,,,44178,2020-11-17_16h54.16.254,lingCatScenes,2020.1.3,MacIntel,60,"[1440,900]",,,"[""trial_left_box""]",,,,,,,,,,,,airplanecabin5.jpg,space,1.63404,[-0.37747395833333336],[-0.2929817708333333],[1],[0],[0],[1.297179999994114],"[""trial_left_box""]",0,62,62,0,1,airplanecabin1.jpg,alley2.jpg,appleorchard4.jpg,airplanecabin3.jpg,,
Image_List_4,,,,,,,,,,,,,,,,44178,2020-11-17_16h54.16.254,lingCatScenes,2020.1.3,MacIntel,60,"[1440,900]",,,"[""trial_ahead_box"",""trial_slight_left_box"",""trial_slight_right_box""]",,,,,,,,,,,,weightroom.jpg,space,3.3166,"[0.0007204861111111111,-0.0024739583333333332,-0.18905815972222223,0.23592013888888888,0.206640625]","[-0.33719618055555556,-0.31202690972222225,-0.31375,-0.28571180555555553,-0.2938411458333333]","[1,1,1,1,1]","[0,0,0,0,0]","[0,0,0,0,0]","[1.1633800000417978,1.5975600000238046,2.0135749999899417,2.665180000010878,3.0803000000305474]","[""trial_ahead_box"",""trial_slight_left_box"",""trial_slight_right_box""]",0,63,63,94,1,treehouse.jpg,waitingroom3.jpg,staircase6.jpg,trainStation3.jpg,,
Image_List_4,,,,,,,,,,,,,,,,44178,2020-11-17_16h54.16.254,lingCatScenes,2020.1.3,MacIntel,60,"[1440,900]",,,"[""trial_ahead_box""]",,,,,,,,,,,,homegarage3.jpg,space,1.88144,[-0.0013107638888888889],[-0.2891710069444444],[1],[0],[0],[1.628870000015013],"[""trial_ahead_box""]",0,64,64,53,1,gazebo3.jpg,homeoffice.jpg,frontLawn3.jpg,fountain.jpg,,
Image_List_4,,,,,,,,,,,,,,,,44178,2020-11-17_16h54.16.254,lingCatScenes,2020.1.3,MacIntel,60,"[1440,900]",,,"[""trial_left_box""]",,,,,,,,,,,,hotelRoom7.jpg,space,1.91783,[-0.4131857638888889],[-0.31692708333333336],[1],[0],[0],[1.6630900000454858],"[""trial_left_box""]",0,65,65,55,1,greenmountains.jpg,hotelRoom3.jpg,gazebo5.jpg,frontLawn2.jpg,,
Image_List_4,,,,,,,,,,,,,,,,44178,2020-11-17_16h54.16.254,lingCatScenes,2020.1.3,MacIntel,60,"[1440,900]",,,"[""trial_ahead_box"",""trial_right_box""]",,,,,,,,,,,,baywindow5.jpg,space,2.44816,"[0.003967013888888889,0.37591145833333334]","[-0.28879774305555556,-0.30223090277777775]","[1,1]","[0,0]","[0,0]","[1.447150000021793,2.1143850000808015]","[""trial_ahead_box"",""trial_right_box""]",0,66,66,11,1,backyard2.jpg,basketballcourt4.jpg,bambooforest3.jpg,backyard1.jpg,,
Image_List_4,,,,,,,,,,,,,,,,44178,2020-11-17_16h54.16.254,lingCatScenes,2020.1.3,MacIntel,60,"[1440,900]",,,"[""trial_left_box""]",,,,,,,,,,,,poolhall5.jpg,space,1.400665,[-0.42073784722222224],[-0.29238715277777777],[1],[0],[0],[1.1959700000006706],"[""trial_left_box""]",0,67,67,80,1,pavilion2.jpg,racecarcourse2.jpg,porch.jpg,parkinggarage4.jpg,,
Image_List_4,,,,,,,,,,,,,,,,44178,2020-11-17_16h54.16.254,lingCatScenes,2020.1.3,MacIntel,60,"[1440,900]",,,"[""trial_ahead_box""]",,,,,,,,,,,,kindergarten_classroom6.jpg,space,2.38261,[-0.008697916666666666],[-0.3017361111111111],[1],[0],[0],[1.1629699999466538],"[""trial_ahead_box""]",0,68,68,60,1,hometheater2.jpg,lightingstore3.jpg,homegarage.jpg,hallway.jpg,,
Image_List_4,,,,,,,,,,,,,,,,44178,2020-11-17_16h54.16.254,lingCatScenes,2020.1.3,MacIntel,60,"[1440,900]",,,"[""trial_ahead_box"",""trial_left_box"",""trial_right_box""]",,,,,,,,,,,,apartmentBuilding4.jpg,space,2.85113,"[0.017469618055555556,-0.42125868055555554,0.40877604166666665]","[-0.3108203125,-0.3168706597222222,-0.28791232638888886]","[1,1,1]","[0,0,0]","[0,0,0]","[1.314189999946393,1.8973649999825284,2.5646649999544024]","[""trial_ahead_box"",""trial_left_box"",""trial_right_box""]",0,69,69,2,1,alley1.jpg,arcade1.jpg,applestore6.jpg,airportTerminal6.jpg,,
Image_List_4,,,,,,,,,,,,,,,,44178,2020-11-17_16h54.16.254,lingCatScenes,2020.1.3,MacIntel,60,"[1440,900]",,,"[""trial_ahead_box"",""trial_slight_right_box""]",,,,,,,,,,,,clothingstore5.jpg,space,2.000765,"[0.00006944444444444444,0.1764887152777778]","[-0.29397135416666664,-0.30890625]","[1,1]","[0,0]","[0,0]","[1.2142799999564886,1.6642799999099225]","[""trial_ahead_box"",""trial_slight_right_box""]",0,70,70,28,1,churchInside1.jpg,dancestudio5.jpg,citystreet10.jpg,bridalboutique2.jpg,,
Image_List_4,,,,,,,,,,,,,,,,44178,2020-11-17_16h54.16.254,lingCatScenes,2020.1.3,MacIntel,60,"[1440,900]",,,"[""trial_left_box"",""trial_right_box""]",,,,,,,,,,,,wrestlingring7.jpg,space,2.899035,"[-0.3924696180555556,0.37809027777777776]","[-0.2828515625,-0.2953559027777778]","[1,1]","[0,0]","[0,0]","[1.4137750000227243,2.647609999985434]","[""trial_left_box"",""trial_right_box""]",0,71,71,99,1,wineVineyard9.jpg,yogastudio4.jpg,windmill2.jpg,yogastudio1.jpg,,
Image_List_4,,,,,,,,,,,,,,,,44178,2020-11-17_16h54.16.254,lingCatScenes,2020.1.3,MacIntel,60,"[1440,900]",,,"[""trial_slight_right_box""]",,,,,,,,,,,,doctor1.jpg,space,2.334515,[0.2054123263888889],[-0.30233940972222223],[1],[0],[0],[2.0804400000488386],"[""trial_slight_right_box""]",0,72,72,36,1,diner14.jpg,dormroom9.jpg,dining_car3.jpg,checkoutcounter9.jpg,,
Image_List_4,,,,,,,,,,,,,,,,44178,2020-11-17_16h54.16.254,lingCatScenes,2020.1.3,MacIntel,60,"[1440,900]",,,"[""trial_ahead_box"",""trial_left_box""]",,,,,,,,,,,,appleorchard2.jpg,space,1.947005,"[-0.004613715277777777,-0.3864930555555556]","[-0.30375434027777776,-0.2928515625]","[1,1]","[0,0]","[0,0]","[0.9624400000320747,1.6449199999915436]","[""trial_ahead_box"",""trial_left_box""]",0,73,73,3,1,apartmentBuilding2.jpg,attic1.jpg,aquarium1.jpg,alley3.jpg,,
Image_List_4,,,,,,,,,,,,,,,,44178,2020-11-17_16h54.16.254,lingCatScenes,2020.1.3,MacIntel,60,"[1440,900]",,,"[""trial_ahead_box""]",,,,,,,,,,,,courtroom2.jpg,space,1.568675,[0.008454861111111111],[-0.3126171875],[1],[0],[0],[1.19816000002902],"[""trial_ahead_box""]",0,74,74,31,1,cubicle4.jpg,desertvegetation6.jpg,conference4.jpg,cabin3.jpg,,
Image_List_4,,,,,,,,,,,,,,,,44178,2020-11-17_16h54.16.254,lingCatScenes,2020.1.3,MacIntel,60,"[1440,900]",,,"[""trial_ahead_box"",""trial_right_box""]",,,,,,,,,,,,kindergarten_classroom7.jpg,space,4.40422,"[-0.007842881944444444,0.3877170138888889]","[-0.30671440972222225,-0.2969574652777778]","[1,1]","[0,0]","[0,0]","[3.3648899999679998,4.148339999956079]","[""trial_ahead_box"",""trial_right_box""]",0,75,75,61,1,HorseRaceTrack.jpg,metroInside4.jpg,homegarden6.jpg,hayfield6.jpg,,
Image_List_4,,,,,,,,,,,,,,,,44178,2020-11-17_16h54.16.254,lingCatScenes,2020.1.3,MacIntel,60,"[1440,900]",,,"[""trial_ahead_box"",""trial_slight_left_box""]",,,,,,,,,,,,labClass7.jpg,space,2.611675,"[0.005381944444444444,-0.23884548611111112,-0.19418402777777777]","[-0.3040017361111111,-0.2882638888888889,-0.29704861111111114]","[1,1,1]","[0,0,0]","[0,0,0]","[1.1116349999792874,1.5954299999866635,2.211934999912046]","[""trial_ahead_box"",""trial_slight_left_box""]",0,76,76,65,1,igloo5.jpg,newsstand7.jpg,laundromat2.jpeg,homeoffice8.jpg,,
Image_List_4,,,,,,,,,,,,,,,,44178,2020-11-17_16h54.16.254,lingCatScenes,2020.1.3,MacIntel,60,"[1440,900]",,,"[""trial_ahead_box"",""trial_slight_right_box""]",,,,,,,,,,,,park.jpg,space,3.74884,"[0.0010373263888888888,0.20600260416666666]","[-0.29828125,-0.3168315972222222]","[1,1]","[0,0]","[0,0]","[2.565965000074357,3.4308799999998882]","[""trial_ahead_box"",""trial_slight_right_box""]",0,77,77,75,1,pantry5.jpg,playground6.jpg,operatingroom4.jpg,lockerroom.jpg,,
Image_List_4,,,,,,,,,,,,,,,,44178,2020-11-17_16h54.16.254,lingCatScenes,2020.1.3,MacIntel,60,"[1440,900]",,,"[""trial_ahead_box""]",,,,,,,,,,,,readingroom4.jpg,space,1.63105,"[0.04108072916666667,0.00234375]","[-0.31266059027777776,-0.3131293402777778]","[1,1]","[0,0]","[0,0]","[0.9647799999220297,1.412819999968633]","[""trial_ahead_box""]",0,78,78,82,1,publicrestroom2.jpg,sandDunes_desert_outdoor9.jpg,promenadeDeck3.jpg,postoffice4.jpg,,
Image_List_4,,,,,,,,,,,,,,,,44178,2020-11-17_16h54.16.254,lingCatScenes,2020.1.3,MacIntel,60,"[1440,900]",,,"[""trial_ahead_box"",""trial_slight_right_box""]",,,,,,,,,,,,tvstudio2.jpg,space,2.0995,"[-0.040542534722222225,-0.010026041666666667,0.22487413194444444]","[-0.3161805555555556,-0.3161805555555556,-0.3025217013888889]","[1,1,1]","[0,0,0]","[0,0,0]","[0.9977400000207126,1.364919999963604,1.8314750000135973]","[""trial_ahead_box"",""trial_slight_right_box""]",0,79,79,92,1,staircase.jpg,volleyballcourt.jpg,skatepark7.jpg,soccerfield2.jpg,,
Image_List_4,,,,,,,,,,,,,,,,44178,2020-11-17_16h54.16.254,lingCatScenes,2020.1.3,MacIntel,60,"[1440,900]",,,"[""trial_slight_left_box"",""trial_slight_right_box""]",,,,,,,,,,,,cemetery.jpg,space,2.99929,"[-0.18131944444444445,0.22924913194444443,0.19871961805555555]","[-0.30542100694444446,-0.3014409722222222,-0.3001519097222222]","[1,1,1]","[0,0,0]","[0,0,0]","[1.6309049999108538,2.1810549999354407,2.6982500000158325]","[""trial_slight_left_box"",""trial_slight_right_box""]",0,80,80,22,1,bowlingalley5.jpg,church6.jpg,cargo5.jpg,bistrooutdoor6.jpg,,
Image_List_4,,,,,,,,,,,,,,,,44178,2020-11-17_16h54.16.254,lingCatScenes,2020.1.3,MacIntel,60,"[1440,900]",,,"[""trial_ahead_box""]",,,,,,,,,,,,churchInside3.jpg,space,1.43249,"[-0.04095486111111111,-0.004969618055555555]","[-0.2944791666666667,-0.2944791666666667]","[1,1]","[0,0]","[0,0]","[0.8643300000112504,1.1959800000768155]","[""trial_ahead_box""]",0,81,81,26,1,campusquad2.jpg,cornfield4.jpg,church4.jpg,botanicalGarden7.jpg,,
Image_List_4,,,,,,,,,,,,,,,,44178,2020-11-17_16h54.16.254,lingCatScenes,2020.1.3,MacIntel,60,"[1440,900]",,,"[""trial_ahead_box""]",,,,,,,,,,,,hallway2.jpg,space,0.81752,[-0.004969618055555555],[-0.2944791666666667],[1],[0],[0],[0.5792199999559671],"[""trial_ahead_box""]",0,82,82,50,1,frontLawn4.jpg,grocerystore6.jpg,forestpath6.jpg,fireplace4.jpg,,
Image_List_4,,,,,,,,,,,,,,,,44178,2020-11-17_16h54.16.254,lingCatScenes,2020.1.3,MacIntel,60,"[1440,900]",,,"[""trial_right_box""]",,,,,,,,,,,,liquorstore.jpg,space,1.450075,[0.3898524305555556],[-0.30615451388888887],[1],[0],[0],[1.1966499999398366],"[""trial_right_box""]",0,83,83,66,1,library_aisle10.jpg,office3.jpg,laundromat3.jpg,horsebarn9.jpg,,
Image_List_4,,,,,,,,,,,,,,,,44178,2020-11-17_16h54.16.254,lingCatScenes,2020.1.3,MacIntel,60,"[1440,900]",,,"[""trial_ahead_box"",""trial_slight_left_box""]",,,,,,,,,,,,pier2.jpg,space,1.63372,"[0.007690972222222222,-0.2119704861111111]","[-0.2870703125,-0.3029253472222222]","[1,1]","[0,0]","[0,0]","[0.9473350000334904,1.3803300000727177]","[""trial_ahead_box"",""trial_slight_left_box""]",0,84,84,79,1,pasture.jpg,poolhall2.jpeg,playground9.jpg,observatory2.jpg,,
Image_List_4,,,,,,,,,,,,,,,,44178,2020-11-17_16h54.16.254,lingCatScenes,2020.1.3,MacIntel,60,"[1440,900]",,,"[""trial_ahead_box""]",,,,,,,,,,,,metroInside1.jpg,space,1.400085,[-0.0011024305555555555],[-0.3015234375],[1],[0],[0],[1.164725000038743],"[""trial_ahead_box""]",0,85,85,69,1,liquorstore8.jpg,parkinglot2.jpg,livingroom.jpg,icecream2.jpg,,
Image_List_4,,,,,,,,,,,,,,,,44178,2020-11-17_16h54.16.254,lingCatScenes,2020.1.3,MacIntel,60,"[1440,900]",,,"[""trial_ahead_box"",""trial_right_box""]",,,,,,,,,,,,lockerroom2.jpg,space,1.851015,"[0.006167534722222222,0.4196961805555556]","[-0.30766927083333334,-0.30743055555555554]","[1,1]","[0,0]","[0,0]","[0.9966449999483302,1.596614999929443]","[""trial_ahead_box"",""trial_right_box""]",0,86,86,68,1,liquorstore7.jpg,parkinglot.jpg,lightingstore4.jpg,hospitalroom3.jpg,,
Image_List_4,,,,,,,,,,,,,,,,44178,2020-11-17_16h54.16.254,lingCatScenes,2020.1.3,MacIntel,60,"[1440,900]",,,"[""trial_ahead_box""]",,,,,,,,,,,,castle2.jpg,space,1.369295,[0.0031727430555555554],[-0.3135763888888889],[1],[0],[0],[0.980199999990873],"[""trial_ahead_box""]",0,87,87,18,1,bleachers5.jpg,casino1.jpg,brewery4.jpg,basement6.jpg,,
Image_List_4,,,,,,,,,,,,,,,,44178,2020-11-17_16h54.16.254,lingCatScenes,2020.1.3,MacIntel,60,"[1440,900]",,,"[""trial_ahead_box"",""trial_left_box"",""trial_right_box""]",,,,,,,,,,,,stripmall3.jpg,space,2.833185,"[-0.018680555555555554,-0.38566840277777775,0.44828559027777776,0.4190364583333333]","[-0.29878472222222224,-0.3105815972222222,-0.29932291666666666,-0.3003342013888889]","[1,1,1,1]","[0,0,0,0]","[0,0,0,0]","[0.9453699999721721,1.5797950000269338,2.17964500002563,2.5639199999859557]","[""trial_ahead_box"",""trial_left_box"",""trial_right_box""]",0,88,88,90,1,savanna5.jpg,trainStation1.jpg,sidewalk1.jpg,shoestore4.jpg,,
Image_List_4,,,,,,,,,,,,,,,,44178,2020-11-17_16h54.16.254,lingCatScenes,2020.1.3,MacIntel,60,"[1440,900]",,,"[""trial_ahead_box"",""trial_left_box""]",,,,,,,,,,,,windmill1.jpg,space,1.850265,"[0.002756076388888889,-0.4060546875]","[-0.3107378472222222,-0.2836414930555556]","[1,1]","[0,0]","[0,0]","[0.9476900000590831,1.5799849999602884]","[""trial_ahead_box"",""trial_left_box""]",0,89,89,96,1,warehouse4.jpg,warehouseoutside1.jpg,tenniscourt3.jpg,warehouse1.jpg,,
Image_List_4,,,,,,,,,,,,,,,,44178,2020-11-17_16h54.16.254,lingCatScenes,2020.1.3,MacIntel,60,"[1440,900]",,,"[""trial_ahead_box""]",,,,,,,,,,,,highway.jpg,space,1.567275,[-0.016610243055555557],[-0.30819878472222223],[1],[0],[0],[1.1958149999845773],"[""trial_ahead_box""]",0,90,90,52,1,gasstation7.jpg,hardwarestore1.jpg,frontFoyer6.jpg,forestpath2.jpg,,
Image_List_4,,,,,,,,,,,,,,,,44178,2020-11-17_16h54.16.254,lingCatScenes,2020.1.3,MacIntel,60,"[1440,900]",,,"[""trial_slight_left_box"",""trial_slight_right_box""]",,,,,,,,,,,,museum4.jpg,space,3.999525,"[-0.00022569444444444443,-0.1961154513888889,-0.033541666666666664,0.010112847222222223,0.19152777777777777]","[-0.3075,-0.31212673611111114,-0.31212673611111114,-0.30517795138888887,-0.2916840277777778]","[1,1,1,1,1]","[0,0,0,0,0]","[0,0,0,0,0]","[1.8964100000448525,2.4976500000339,2.913910000002943,3.265315000084229,3.713705000001937]","[""trial_ahead_box"",""trial_slight_left_box"",""trial_ahead_box"",""trial_slight_right_box""]",0,91,91,72,1,museum5.jpg,pharmacy4.jpg,musicStore1.jpg,kindergarten_classroom.jpg,,
Image_List_4,,,,,,,,,,,,,,,,44178,2020-11-17_16h54.16.254,lingCatScenes,2020.1.3,MacIntel,60,"[1440,900]",,,"[""trial_ahead_box"",""trial_left_box"",""trial_right_box""]",,,,,,,,,,,,hayfield4.jpg,space,2.805645,"[-0.01328125,-0.3866362847222222,0.39893229166666666]","[-0.28955295138888887,-0.2888107638888889,-0.3059895833333333]","[1,1,1]","[0,0,0]","[0,0,0]","[0.8974550000857562,1.4481249999953434,2.1804950000951067]","[""trial_ahead_box"",""trial_left_box"",""trial_right_box""]",0,92,92,51,1,gasstation6.jpg,hallway5.jpg,frontDoor5.jpg,firestation5.jpg,,
Image_List_4,,,,,,,,,,,,,,,,44178,2020-11-17_16h54.16.254,lingCatScenes,2020.1.3,MacIntel,60,"[1440,900]",,,"[""trial_left_box"",""trial_right_box""]",,,,,,,,,,,,lab3.jpg,space,4.176915,"[0.00031684027777777776,-0.3985677083333333,0.40750868055555556,0.021085069444444444]","[-0.2922309027777778,-0.3099088541666667,-0.3130078125,-0.306953125]","[1,1,1,1]","[0,0,0,0]","[0,0,0,0]","[1.7635599999921396,2.5316749999765307,3.2617450000252575,3.9115699999965727]","[""trial_ahead_box"",""trial_left_box"",""trial_right_box"",""trial_ahead_box""]",0,93,93,62,1,hotellobby2.jpg,minigolf.jpg,horsebarn8.jpg,hayfield7.jpg,,
Image_List_4,,,,,,,,,,,,,,,,44178,2020-11-17_16h54.16.254,lingCatScenes,2020.1.3,MacIntel,60,"[1440,900]",,,"[""trial_ahead_box"",""trial_right_box""]",,,,,,,,,,,,nursery4.jpg,space,2.27472,"[-0.004518229166666667,0.37558159722222223]","[-0.31703993055555557,-0.2950434027777778]","[1,1]","[0,0]","[0,0]","[0.9143199999816716,1.980699999956414]","[""trial_ahead_box"",""trial_right_box""]",0,94,94,73,1,musicStore3.jpg,photographer_studio2.jpg,nursery.jpg,library_aisle9.jpg,,
Image_List_4,,,,,,,,,,,,,,,,44178,2020-11-17_16h54.16.254,lingCatScenes,2020.1.3,MacIntel,60,"[1440,900]",,,"[""trial_right_box""]",,,,,,,,,,,,checkoutcounter2.jpg,space,1.90918,"[0.43469618055555553,0.39729600694444445]","[-0.317421875,-0.3134418402777778]","[1,1]","[0,0]","[0,0]","[1.2455400000326335,1.6806499999947846]","[""trial_right_box""]",0,95,95,25,1,campsite7.jpg,conference3.jpg,church3.jpg,botanicalGarden4.jpg,,
Image_List_4,,,,,,,,,,,,,,,,44178,2020-11-17_16h54.16.254,lingCatScenes,2020.1.3,MacIntel,60,"[1440,900]",,,"[""trial_slight_right_box""]",,,,,,,,,,,,diner10.jpg,space,1.82611,[0.21391059027777778],[-0.31115885416666667],[1],[0],[0],[1.5961699999170378],"[""trial_slight_right_box""]",0,96,96,33,1,deck1.jpg,diningroom1.jpg,courthouse2.jpg,cabinIndoors5.jpg,,
Image_List_4,,,,,,,,,,,,,,,,44178,2020-11-17_16h54.16.254,lingCatScenes,2020.1.3,MacIntel,60,"[1440,900]",,,[],,,,,,,,,,,,rainforest5.jpg,space,1.911325,[],[],[],[],[],[],[],0,97,97,81,1,promenadeDeck.jpg,ruralroad5.jpg,promenadeDeck2.jpg,pasture8.jpg,,
Image_List_4,,,,,,,,,,,,,,,,44178,2020-11-17_16h54.16.254,lingCatScenes,2020.1.3,MacIntel,60,"[1440,900]",,,[],,,,,,,,,,,,cemetery5.jpg,space,2.0175,[],[],[],[],[],[],[],0,98,98,24,1,campsite.jpg,cliff3.jpg,cave6.jpg,boardwalk.jpg,,
Image_List_4,,,,,,,,,,,,,,,,44178,2020-11-17_16h54.16.254,lingCatScenes,2020.1.3,MacIntel,60,"[1440,900]",,,"[""trial_ahead_box"",""trial_slight_right_box""]",,,,,,,,,,,,golfcourse7.jpg,space,2.71392,"[-0.005447048611111111,0.18924479166666666,0.18924479166666666,0.18924479166666666]","[-0.30516493055555555,-0.3204427083333333,-0.3204427083333333,-0.3204427083333333]","[1,1,1,1]","[0,0,0,0]","[0,0,0,0]","[1.3299899999983609,1.811809999984689,1.960770000005141,2.5108750000363216]","[""trial_ahead_box"",""trial_slight_right_box"",""trial_slight_right_box"",""trial_slight_right_box""]",0,99,99,48,1,frontDoor2.jpg,golfcourse6.jpg,fittingroom5.jpg,fabricstore2.jpg,,
Image_List_4,,,,,,,,,,,,,,,,44178,2020-11-17_16h54.16.254,lingCatScenes,2020.1.3,MacIntel,60,,,,,,,,,,,,,,,,,,,,,,,,,,,,,,,,,,,space,42.223625
