image_list,key_resp_intructions.keys,key_resp_intructions.rt,key_resp_intructions_3.keys,key_resp_intructions_3.rt,PracticeComplete_2.keys,PracticeComplete_2.rt,PracticeComplete_3.keys,PracticeComplete_3.rt,demo_trials.thisRepN,demo_trials.thisTrialN,demo_trials.thisN,demo_trials.thisIndex,demo_trials.ran,demo_images,path_images,participant,date,expName,psychopyVersion,OS,frameRate,windowSize,drawing,numDrawings,drawingSizes,practice_complete.keys,practice_complete.rt,PracticeComplete.keys,PracticeComplete.rt,practice_trials.thisRepN,practice_trials.thisTrialN,practice_trials.thisN,practice_trials.thisIndex,practice_trials.ran,practice_images,feedback_images,key_resp_intructions_2.keys,key_resp_intructions_2.rt,Image_List_2,trial_complete.keys,trial_complete.rt,trials.thisRepN,trials.thisTrialN,trials.thisN,trials.thisIndex,trials.ran,Image_List_1,Image_List_3,Image_List_4,Image_List_5,key_resp.keys,key_resp.rt
Image_List_2,space,11.688,space,2.256,space,3.989,space,2.512,0,0,0,1,1,ahead_left.jpg,ahead_left_path.jpg,44213,2020-11-18_16h58.20.601,analogCatScenes,2020.1.3,Win32,60,,,,,,,,,,,,,,,,,,,,,,,,,,,,,,,
Image_List_2,,,,,space,2.265,space,2.565,0,1,1,2,1,ahead_right.jpg,ahead_right_path.jpg,44213,2020-11-18_16h58.20.601,analogCatScenes,2020.1.3,Win32,60,,,,,,,,,,,,,,,,,,,,,,,,,,,,,,,
Image_List_2,,,,,space,2.172,space,1.57,0,2,2,3,1,ahead_right_left.jpg,ahead_right_left_path.jpg,44213,2020-11-18_16h58.20.601,analogCatScenes,2020.1.3,Win32,60,,,,,,,,,,,,,,,,,,,,,,,,,,,,,,,
Image_List_2,,,,,space,0.868,space,1.275,0,3,3,0,1,ahead.jpg,ahead_path.jpg,44213,2020-11-18_16h58.20.601,analogCatScenes,2020.1.3,Win32,60,,,,,,,,,,,,,,,,,,,,,,,,,,,,,,,
Image_List_2,,,,,space,0.925,space,2.291,0,4,4,5,1,right.jpg,right_path.jpg,44213,2020-11-18_16h58.20.601,analogCatScenes,2020.1.3,Win32,60,,,,,,,,,,,,,,,,,,,,,,,,,,,,,,,
Image_List_2,,,,,space,0.787,space,0.836,0,5,5,4,1,left.jpg,left_path.jpg,44213,2020-11-18_16h58.20.601,analogCatScenes,2020.1.3,Win32,60,,,,,,,,,,,,,,,,,,,,,,,,,,,,,,,
Image_List_2,,,,,space,0.733,space,0.988,0,6,6,6,1,right_left.jpg,right_left_path.jpg,44213,2020-11-18_16h58.20.601,analogCatScenes,2020.1.3,Win32,60,,,,,,,,,,,,,,,,,,,,,,,,,,,,,,,
Image_List_2,,,,,,,,,,,,,,,,44213,2020-11-18_16h58.20.601,analogCatScenes,2020.1.3,Win32,60,"[1620,1080]","[[[0.006481481481481481,-0.20185185185185187],[0.006481481481481481,-0.20185185185185187],[0.006481481481481481,-0.20185185185185187],[0.006481481481481481,-0.20185185185185187],[0.006481481481481481,-0.20185185185185187],[0.006481481481481481,-0.20185185185185187],[0.003703703703703704,-0.19444444444444445],[0.000925925925925926,-0.18518518518518517],[-0.000925925925925926,-0.175],[-0.008333333333333333,-0.16203703703703703],[-0.012037037037037037,-0.15],[-0.020370370370370372,-0.13148148148148148],[-0.023148148148148147,-0.12222222222222222],[-0.028703703703703703,-0.1111111111111111],[-0.032407407407407406,-0.10277777777777777],[-0.03611111111111111,-0.0962962962962963],[-0.03796296296296296,-0.09259259259259259],[-0.040740740740740744,-0.08981481481481482],[-0.041666666666666664,-0.08703703703703704],[-0.044444444444444446,-0.0824074074074074],[-0.049074074074074076,-0.0787037037037037],[-0.05,-0.0787037037037037],[-0.05,-0.0787037037037037],[-0.05,-0.0787037037037037],[-0.05,-0.0787037037037037],[-0.05,-0.0787037037037037],[-0.05,-0.0787037037037037],[-0.05,-0.0787037037037037],[-0.05,-0.0787037037037037],[-0.05,-0.0787037037037037],[-0.05462962962962963,-0.07037037037037037],[-0.05740740740740741,-0.06574074074074074],[-0.06111111111111111,-0.062037037037037036],[-0.06481481481481481,-0.05925925925925926],[-0.06574074074074074,-0.05740740740740741],[-0.06944444444444445,-0.05185185185185185],[-0.07222222222222222,-0.04814814814814815],[-0.075,-0.044444444444444446],[-0.08055555555555556,-0.03796296296296296],[-0.0824074074074074,-0.03425925925925926],[-0.08611111111111111,-0.02962962962962963],[-0.08796296296296297,-0.026851851851851852],[-0.09166666666666666,-0.023148148148148147],[-0.09351851851851851,-0.020370370370370372],[-0.0962962962962963,-0.017592592592592594],[-0.09814814814814815,-0.014814814814814815],[-0.10277777777777777,-0.011111111111111112],[-0.1037037037037037,-0.010185185185185186],[-0.1037037037037037,-0.010185185185185186],[-0.1037037037037037,-0.010185185185185186],[-0.1037037037037037,-0.010185185185185186],[-0.1037037037037037,-0.010185185185185186],[-0.1037037037037037,-0.010185185185185186],[-0.1037037037037037,-0.010185185185185186],[-0.1037037037037037,-0.010185185185185186],[-0.1037037037037037,-0.010185185185185186],[-0.1037037037037037,-0.010185185185185186],[-0.1037037037037037,-0.010185185185185186],[-0.1037037037037037,-0.010185185185185186],[-0.1037037037037037,-0.010185185185185186],[-0.1111111111111111,-0.001851851851851852],[-0.11574074074074074,0.004629629629629629],[-0.12129629629629629,0.012962962962962963],[-0.125,0.018518518518518517],[-0.12962962962962962,0.026851851851851852],[-0.13703703703703704,0.03981481481481482],[-0.14351851851851852,0.046296296296296294],[-0.15,0.05277777777777778],[-0.15462962962962962,0.058333333333333334],[-0.15833333333333333,0.06111111111111111],[-0.16296296296296298,0.06666666666666667],[-0.16296296296296298,0.06759259259259259],[-0.16296296296296298,0.06759259259259259],[-0.16296296296296298,0.06759259259259259],[-0.16296296296296298,0.06759259259259259],[-0.16296296296296298,0.06759259259259259],[-0.16296296296296298,0.06759259259259259],[-0.16296296296296298,0.06759259259259259],[-0.1685185185185185,0.07685185185185185],[-0.175,0.08148148148148149],[-0.1814814814814815,0.08796296296296297],[-0.18518518518518517,0.09166666666666666],[-0.1935185185185185,0.09814814814814815],[-0.19722222222222222,0.10092592592592593],[-0.20185185185185187,0.10462962962962963],[-0.2074074074074074,0.10925925925925926],[-0.21388888888888888,0.11388888888888889],[-0.21574074074074073,0.11666666666666667],[-0.21851851851851853,0.11851851851851852],[-0.2222222222222222,0.12129629629629629],[-0.225,0.12407407407407407],[-0.22870370370370371,0.1259259259259259],[-0.23148148148148148,0.12685185185185185],[-0.23148148148148148,0.12685185185185185],[-0.23333333333333334,0.12777777777777777],[-0.23703703703703705,0.1287037037037037],[-0.23981481481481481,0.12962962962962962],[-0.24259259259259258,0.13148148148148148],[-0.24444444444444444,0.13240740740740742],[-0.24537037037037038,0.13240740740740742],[-0.2490740740740741,0.13333333333333333],[-0.2518518518518518,0.13425925925925927],[-0.25462962962962965,0.1361111111111111],[-0.2574074074074074,0.13796296296296295],[-0.25925925925925924,0.1388888888888889],[-0.2601851851851852,0.1388888888888889],[-0.2601851851851852,0.1388888888888889],[-0.262037037037037,0.1388888888888889],[-0.2638888888888889,0.1398148148148148],[-0.26481481481481484,0.1398148148148148],[-0.2657407407407407,0.1398148148148148],[-0.26851851851851855,0.1388888888888889],[-0.2712962962962963,0.1388888888888889],[-0.2759259259259259,0.1398148148148148],[-0.27870370370370373,0.1398148148148148],[-0.28055555555555556,0.1398148148148148],[-0.2824074074074074,0.1398148148148148],[-0.2833333333333333,0.14166666666666666],[-0.28425925925925927,0.14166666666666666],[-0.28425925925925927,0.1425925925925926],[-0.2851851851851852,0.1425925925925926],[-0.2851851851851852,0.1425925925925926],[-0.2851851851851852,0.1425925925925926],[-0.2861111111111111,0.14351851851851852],[-0.2861111111111111,0.14351851851851852],[-0.2861111111111111,0.14351851851851852],[-0.2861111111111111,0.14351851851851852],[-0.2861111111111111,0.14351851851851852],[-0.2861111111111111,0.14351851851851852],[-0.2861111111111111,0.14351851851851852],[-0.2861111111111111,0.14351851851851852],[-0.2861111111111111,0.14351851851851852],[-0.2861111111111111,0.14351851851851852],[-0.2861111111111111,0.14351851851851852],[-0.2861111111111111,0.14351851851851852],[-0.2861111111111111,0.14351851851851852],[-0.2861111111111111,0.14351851851851852],[-0.2861111111111111,0.14351851851851852],[-0.2861111111111111,0.14351851851851852],[-0.2861111111111111,0.14351851851851852],[-0.2861111111111111,0.14351851851851852],[-0.2861111111111111,0.14351851851851852],[-0.2861111111111111,0.14351851851851852],[-0.2861111111111111,0.14351851851851852],[-0.2861111111111111,0.14351851851851852],[-0.2861111111111111,0.14351851851851852],[-0.2861111111111111,0.14351851851851852],[-0.2861111111111111,0.14351851851851852],[-0.2861111111111111,0.14351851851851852],[-0.2861111111111111,0.14351851851851852],[-0.2861111111111111,0.14351851851851852],[-0.2861111111111111,0.14351851851851852],[-0.2861111111111111,0.14351851851851852],[-0.2861111111111111,0.14351851851851852],[-0.2861111111111111,0.14351851851851852],[-0.2861111111111111,0.14351851851851852],[-0.2861111111111111,0.14351851851851852],[-0.2861111111111111,0.14351851851851852],[-0.2861111111111111,0.14351851851851852],[-0.2861111111111111,0.14351851851851852],[-0.2861111111111111,0.14351851851851852],[-0.2861111111111111,0.14351851851851852],[-0.2861111111111111,0.14351851851851852],[-0.2861111111111111,0.14351851851851852],[-0.2861111111111111,0.14351851851851852],[-0.2861111111111111,0.14351851851851852],[-0.2861111111111111,0.14351851851851852],[-0.2861111111111111,0.14351851851851852],[-0.2861111111111111,0.14351851851851852],[-0.2861111111111111,0.14351851851851852],[-0.2861111111111111,0.14351851851851852],[-0.2861111111111111,0.14351851851851852],[-0.2861111111111111,0.14351851851851852],[-0.2861111111111111,0.14351851851851852],[-0.2861111111111111,0.14351851851851852],[-0.2861111111111111,0.14351851851851852],[-0.2861111111111111,0.14351851851851852],[-0.2861111111111111,0.14351851851851852],[-0.2861111111111111,0.14351851851851852],[-0.2861111111111111,0.14351851851851852],[-0.2861111111111111,0.14351851851851852],[-0.2861111111111111,0.14351851851851852],[-0.2861111111111111,0.14351851851851852],[-0.2861111111111111,0.14351851851851852],[-0.2861111111111111,0.14351851851851852],[-0.2861111111111111,0.14351851851851852],[-0.2861111111111111,0.14351851851851852],[-0.2861111111111111,0.14351851851851852],[-0.2861111111111111,0.14351851851851852],[-0.2861111111111111,0.14351851851851852],[-0.2861111111111111,0.14351851851851852],[-0.2861111111111111,0.14351851851851852],[-0.2861111111111111,0.14351851851851852],[-0.2861111111111111,0.14351851851851852],[-0.2861111111111111,0.14351851851851852],[-0.2861111111111111,0.14351851851851852],[-0.2861111111111111,0.14351851851851852],[-0.2861111111111111,0.14351851851851852],[-0.2861111111111111,0.14351851851851852]],[[-0.000925925925925926,-0.19537037037037036],[-0.000925925925925926,-0.19537037037037036],[-0.000925925925925926,-0.19537037037037036],[0.019444444444444445,-0.19166666666666668],[0.044444444444444446,-0.18055555555555555],[0.062037037037037036,-0.17407407407407408],[0.07314814814814814,-0.17037037037037037],[0.08148148148148149,-0.1685185185185185],[0.08981481481481482,-0.1638888888888889],[0.09722222222222222,-0.16111111111111112],[0.10740740740740741,-0.15648148148148147],[0.11203703703703703,-0.15462962962962962],[0.11851851851851852,-0.1527777777777778],[0.13148148148148148,-0.14907407407407408],[0.1361111111111111,-0.14722222222222223],[0.14907407407407408,-0.14629629629629629],[0.15833333333333333,-0.14351851851851852],[0.17037037037037037,-0.1425925925925926],[0.175,-0.1425925925925926],[0.18333333333333332,-0.1425925925925926],[0.18796296296296297,-0.1425925925925926],[0.19444444444444445,-0.14537037037037037],[0.20092592592592592,-0.14722222222222223],[0.2064814814814815,-0.14814814814814814],[0.21388888888888888,-0.14907407407407408],[0.21574074074074073,-0.14907407407407408],[0.2222222222222222,-0.15],[0.225,-0.15],[0.2351851851851852,-0.15462962962962962],[0.2388888888888889,-0.15648148148148147],[0.24444444444444444,-0.16111111111111112],[0.24722222222222223,-0.16203703703703703],[0.25092592592592594,-0.1648148148148148],[0.25833333333333336,-0.16944444444444445],[0.2611111111111111,-0.17222222222222222],[0.2675925925925926,-0.17592592592592593],[0.27037037037037037,-0.1787037037037037],[0.27314814814814814,-0.1824074074074074],[0.275,-0.18333333333333332],[0.27685185185185185,-0.18611111111111112],[0.2777777777777778,-0.18703703703703703],[0.2814814814814815,-0.18981481481481483],[0.2833333333333333,-0.19166666666666668],[0.2861111111111111,-0.1935185185185185],[0.28888888888888886,-0.19537037037037036],[0.28888888888888886,-0.19537037037037036],[0.29074074074074074,-0.1962962962962963],[0.29074074074074074,-0.1962962962962963],[0.29259259259259257,-0.19814814814814816],[0.29444444444444445,-0.19907407407407407],[0.2953703703703704,-0.20092592592592592],[0.2962962962962963,-0.20185185185185187],[0.2962962962962963,-0.20185185185185187],[0.2962962962962963,-0.20185185185185187],[0.2962962962962963,-0.20185185185185187],[0.2962962962962963,-0.20185185185185187],[0.2962962962962963,-0.20185185185185187],[0.2962962962962963,-0.20185185185185187],[0.2962962962962963,-0.20185185185185187],[0.2962962962962963,-0.20185185185185187],[0.2962962962962963,-0.20185185185185187],[0.2962962962962963,-0.20185185185185187],[0.2962962962962963,-0.20185185185185187],[0.2962962962962963,-0.20185185185185187],[0.2962962962962963,-0.20185185185185187],[0.2962962962962963,-0.20185185185185187],[0.2962962962962963,-0.20185185185185187],[0.2962962962962963,-0.20185185185185187],[0.2962962962962963,-0.20185185185185187],[0.2962962962962963,-0.20185185185185187],[0.2962962962962963,-0.20277777777777778],[0.2962962962962963,-0.20277777777777778],[0.2962962962962963,-0.20277777777777778],[0.2962962962962963,-0.20277777777777778],[0.2962962962962963,-0.20277777777777778],[0.2962962962962963,-0.20277777777777778],[0.2962962962962963,-0.20277777777777778],[0.2962962962962963,-0.20277777777777778],[0.2962962962962963,-0.20277777777777778],[0.2962962962962963,-0.20277777777777778],[0.2962962962962963,-0.20277777777777778],[0.2962962962962963,-0.20277777777777778],[0.2962962962962963,-0.20277777777777778],[0.2962962962962963,-0.20277777777777778],[0.2962962962962963,-0.20277777777777778],[0.2962962962962963,-0.20277777777777778],[0.2962962962962963,-0.20277777777777778],[0.2962962962962963,-0.20277777777777778],[0.2962962962962963,-0.20277777777777778],[0.2962962962962963,-0.20277777777777778],[0.2962962962962963,-0.20277777777777778],[0.2962962962962963,-0.20277777777777778],[0.2962962962962963,-0.20277777777777778],[0.2962962962962963,-0.20277777777777778],[0.2962962962962963,-0.20277777777777778],[0.2962962962962963,-0.20277777777777778],[0.2962962962962963,-0.20277777777777778],[0.2962962962962963,-0.20277777777777778],[0.2962962962962963,-0.20277777777777778],[0.2962962962962963,-0.20277777777777778],[0.2962962962962963,-0.20277777777777778],[0.2962962962962963,-0.20277777777777778],[0.2962962962962963,-0.20277777777777778],[0.2962962962962963,-0.20277777777777778],[0.2962962962962963,-0.20277777777777778],[0.2962962962962963,-0.20277777777777778],[0.2962962962962963,-0.20277777777777778],[0.2962962962962963,-0.20277777777777778],[0.2962962962962963,-0.20277777777777778],[0.2962962962962963,-0.20277777777777778],[0.2962962962962963,-0.20277777777777778],[0.2962962962962963,-0.20277777777777778],[0.2962962962962963,-0.20277777777777778],[0.2962962962962963,-0.20277777777777778],[0.2962962962962963,-0.20277777777777778],[0.2962962962962963,-0.20277777777777778],[0.2962962962962963,-0.20277777777777778],[0.2962962962962963,-0.20277777777777778],[0.2962962962962963,-0.20277777777777778],[0.2962962962962963,-0.20277777777777778],[0.2962962962962963,-0.20277777777777778],[0.2962962962962963,-0.20277777777777778],[0.2962962962962963,-0.20277777777777778],[0.2962962962962963,-0.20277777777777778],[0.2962962962962963,-0.20277777777777778],[0.2962962962962963,-0.20277777777777778],[0.2962962962962963,-0.20277777777777778],[0.2962962962962963,-0.20277777777777778],[0.2962962962962963,-0.20277777777777778],[0.2962962962962963,-0.20277777777777778],[0.2962962962962963,-0.20277777777777778],[0.2962962962962963,-0.20277777777777778],[0.2962962962962963,-0.20277777777777778],[0.2962962962962963,-0.20277777777777778],[0.2962962962962963,-0.20277777777777778],[0.2962962962962963,-0.20277777777777778],[0.2962962962962963,-0.20277777777777778],[0.2962962962962963,-0.20277777777777778],[0.2962962962962963,-0.20277777777777778],[0.2962962962962963,-0.20277777777777778],[0.2962962962962963,-0.20277777777777778],[0.2962962962962963,-0.20277777777777778],[0.2962962962962963,-0.20277777777777778],[0.2962962962962963,-0.20277777777777778],[0.2962962962962963,-0.20277777777777778],[0.2962962962962963,-0.20277777777777778],[0.30277777777777776,-0.20555555555555555],[0.3111111111111111,-0.21296296296296297],[0.3111111111111111,-0.21481481481481482]]]",2,"[199,149]",space,32.974,space,3.086,0,0,0,4,1,left_2.jpg,left_2_path.jpg,,,,,,,,,,,,,,,,
Image_List_2,,,,,,,,,,,,,,,,44213,2020-11-18_16h58.20.601,analogCatScenes,2020.1.3,Win32,60,"[1620,1080]","[[[0,-0.2037037037037037],[0,-0.2037037037037037],[0,-0.2037037037037037],[-0.001851851851851852,-0.16203703703703703],[-0.005555555555555556,-0.09722222222222222],[0.003703703703703704,-0.027777777777777776],[0.009259259259259259,0.003703703703703704],[0.012037037037037037,0.018518518518518517],[0.012037037037037037,0.024074074074074074],[0.014814814814814815,0.02962962962962963],[0.014814814814814815,0.037037037037037035],[0.014814814814814815,0.03981481481481482],[0.014814814814814815,0.046296296296296294],[0.014814814814814815,0.05],[0.014814814814814815,0.05555555555555555],[0.013888888888888888,0.06388888888888888],[0.013888888888888888,0.07222222222222222],[0.013888888888888888,0.07962962962962963],[0.013888888888888888,0.08055555555555556],[0.013888888888888888,0.08055555555555556],[0.013888888888888888,0.08055555555555556],[0.013888888888888888,0.08055555555555556],[0.013888888888888888,0.08055555555555556],[0.013888888888888888,0.08055555555555556],[0.013888888888888888,0.08055555555555556],[0.013888888888888888,0.08055555555555556],[0.013888888888888888,0.08055555555555556],[0.013888888888888888,0.09166666666666666],[0.013888888888888888,0.09907407407407408],[0.010185185185185186,0.1111111111111111],[0.010185185185185186,0.11481481481481481],[0.008333333333333333,0.12129629629629629],[0.008333333333333333,0.12407407407407407],[0.008333333333333333,0.12685185185185185],[0.008333333333333333,0.12962962962962962],[0.008333333333333333,0.13148148148148148],[0.008333333333333333,0.13425925925925927],[0.008333333333333333,0.13518518518518519],[0.010185185185185186,0.13703703703703704],[0.011111111111111112,0.1398148148148148],[0.011111111111111112,0.14074074074074075],[0.012037037037037037,0.14166666666666666],[0.012037037037037037,0.14351851851851852],[0.012037037037037037,0.14444444444444443],[0.012962962962962963,0.14629629629629629],[0.012962962962962963,0.14814814814814814],[0.012962962962962963,0.15],[0.012962962962962963,0.1537037037037037],[0.012962962962962963,0.15555555555555556],[0.012962962962962963,0.1574074074074074],[0.012962962962962963,0.16111111111111112],[0.012962962962962963,0.1638888888888889],[0.012962962962962963,0.16574074074074074],[0.012962962962962963,0.1675925925925926],[0.012962962962962963,0.16944444444444445],[0.012962962962962963,0.17037037037037037],[0.012962962962962963,0.1712962962962963],[0.012962962962962963,0.17222222222222222],[0.012962962962962963,0.17314814814814813],[0.012962962962962963,0.175],[0.012962962962962963,0.175],[0.012962962962962963,0.17592592592592593],[0.012962962962962963,0.17685185185185184],[0.012962962962962963,0.17685185185185184],[0.012962962962962963,0.17685185185185184],[0.012962962962962963,0.17685185185185184],[0.012962962962962963,0.17685185185185184]]]",1,[67],space,27.154,space,2.246,0,1,1,0,1,ahead_2.jpg,ahead_2_path.jpg,,,,,,,,,,,,,,,,
Image_List_2,,,,,,,,,,,,,,,,44213,2020-11-18_16h58.20.601,analogCatScenes,2020.1.3,Win32,60,"[1620,1080]","[[[-0.002777777777777778,-0.1962962962962963],[-0.002777777777777778,-0.1962962962962963],[-0.002777777777777778,-0.1962962962962963],[-0.002777777777777778,-0.1962962962962963],[-0.002777777777777778,-0.1962962962962963],[-0.002777777777777778,-0.1962962962962963],[-0.005555555555555556,-0.18981481481481483],[-0.011111111111111112,-0.175],[-0.018518518518518517,-0.15925925925925927],[-0.025925925925925925,-0.14629629629629629],[-0.02962962962962963,-0.13703703703703704],[-0.032407407407407406,-0.13148148148148148],[-0.03611111111111111,-0.1259259259259259],[-0.03796296296296296,-0.12037037037037036],[-0.04537037037037037,-0.09907407407407408],[-0.058333333333333334,-0.07222222222222222],[-0.07222222222222222,-0.044444444444444446],[-0.08333333333333333,-0.025925925925925925],[-0.08703703703703704,-0.021296296296296296],[-0.08703703703703704,-0.021296296296296296],[-0.08703703703703704,-0.021296296296296296],[-0.08703703703703704,-0.021296296296296296],[-0.08703703703703704,-0.021296296296296296],[-0.08703703703703704,-0.021296296296296296],[-0.08703703703703704,-0.021296296296296296],[-0.08703703703703704,-0.021296296296296296],[-0.08703703703703704,-0.021296296296296296],[-0.08703703703703704,-0.021296296296296296],[-0.09351851851851851,-0.014814814814814815],[-0.09814814814814815,-0.005555555555555556],[-0.10462962962962963,0.005555555555555556],[-0.1111111111111111,0.017592592592592594],[-0.11481481481481481,0.025],[-0.12129629629629629,0.03518518518518519],[-0.12407407407407407,0.041666666666666664],[-0.13240740740740742,0.05925925925925926],[-0.14351851851851852,0.07685185185185185],[-0.14907407407407408,0.08611111111111111],[-0.14907407407407408,0.08611111111111111],[-0.14907407407407408,0.08611111111111111],[-0.14907407407407408,0.08611111111111111],[-0.14907407407407408,0.08611111111111111],[-0.14907407407407408,0.08611111111111111],[-0.14907407407407408,0.08611111111111111],[-0.14907407407407408,0.08611111111111111],[-0.14907407407407408,0.08611111111111111],[-0.14907407407407408,0.08611111111111111],[-0.14907407407407408,0.08611111111111111],[-0.15,0.08703703703703704],[-0.1537037037037037,0.09166666666666666],[-0.16111111111111112,0.1037037037037037],[-0.1675925925925926,0.11666666666666667],[-0.1712962962962963,0.12222222222222222],[-0.17592592592592593,0.13055555555555556],[-0.1787037037037037,0.13796296296296295],[-0.1824074074074074,0.14537037037037037],[-0.18518518518518517,0.15185185185185185],[-0.18888888888888888,0.15925925925925927],[-0.19074074074074074,0.16574074074074074],[-0.19074074074074074,0.1685185185185185],[-0.19166666666666668,0.175],[-0.1925925925925926,0.18055555555555555],[-0.1925925925925926,0.18425925925925926],[-0.1925925925925926,0.18796296296296297],[-0.1925925925925926,0.18981481481481483],[-0.1925925925925926,0.19166666666666668],[-0.1925925925925926,0.1925925925925926],[-0.1925925925925926,0.1935185185185185],[-0.1925925925925926,0.1935185185185185],[-0.1925925925925926,0.19537037037037036],[-0.1925925925925926,0.19537037037037036],[-0.1925925925925926,0.19537037037037036],[-0.1925925925925926,0.19537037037037036],[-0.1925925925925926,0.19537037037037036],[-0.1925925925925926,0.19537037037037036],[-0.1925925925925926,0.19537037037037036],[-0.1925925925925926,0.19537037037037036],[-0.1925925925925926,0.19537037037037036],[-0.1925925925925926,0.19537037037037036],[-0.1925925925925926,0.19537037037037036],[-0.1925925925925926,0.19537037037037036],[-0.1925925925925926,0.19537037037037036],[-0.1925925925925926,0.19537037037037036],[-0.1925925925925926,0.19537037037037036],[-0.1925925925925926,0.19537037037037036],[-0.1925925925925926,0.19537037037037036],[-0.1925925925925926,0.1962962962962963],[-0.1925925925925926,0.1962962962962963],[-0.1925925925925926,0.1962962962962963],[-0.1925925925925926,0.1962962962962963],[-0.1925925925925926,0.1962962962962963],[-0.1925925925925926,0.1962962962962963],[-0.1925925925925926,0.1962962962962963],[-0.1925925925925926,0.1962962962962963],[-0.1925925925925926,0.1962962962962963],[-0.1925925925925926,0.1962962962962963],[-0.1925925925925926,0.1962962962962963],[-0.1925925925925926,0.1962962962962963],[-0.1925925925925926,0.1962962962962963],[-0.1925925925925926,0.1962962962962963],[-0.1925925925925926,0.1962962962962963],[-0.1925925925925926,0.1962962962962963],[-0.1925925925925926,0.1962962962962963],[-0.1925925925925926,0.1962962962962963],[-0.1925925925925926,0.1962962962962963],[-0.1925925925925926,0.1962962962962963],[-0.1925925925925926,0.1962962962962963],[-0.1925925925925926,0.1962962962962963],[-0.1925925925925926,0.1962962962962963],[-0.1925925925925926,0.1962962962962963],[-0.1925925925925926,0.1962962962962963],[-0.1925925925925926,0.1962962962962963],[-0.1925925925925926,0.1962962962962963],[-0.1925925925925926,0.1962962962962963],[-0.1925925925925926,0.1962962962962963],[-0.1925925925925926,0.1962962962962963],[-0.1925925925925926,0.1962962962962963],[-0.1925925925925926,0.1962962962962963],[-0.1925925925925926,0.1962962962962963],[-0.1925925925925926,0.1962962962962963],[-0.1925925925925926,0.1962962962962963],[-0.1925925925925926,0.1962962962962963],[-0.1925925925925926,0.1962962962962963],[-0.1925925925925926,0.1962962962962963],[-0.1925925925925926,0.1962962962962963],[-0.1925925925925926,0.1962962962962963],[-0.1925925925925926,0.1962962962962963],[-0.1925925925925926,0.1962962962962963],[-0.1925925925925926,0.19722222222222222],[-0.1925925925925926,0.19907407407407407],[-0.1925925925925926,0.2],[-0.1935185185185185,0.2],[-0.1935185185185185,0.20092592592592592],[-0.1935185185185185,0.2037037037037037],[-0.1935185185185185,0.20462962962962963],[-0.19444444444444445,0.20555555555555555],[-0.19444444444444445,0.2074074074074074],[-0.19444444444444445,0.2074074074074074],[-0.19444444444444445,0.20833333333333334],[-0.19444444444444445,0.20833333333333334],[-0.19444444444444445,0.20833333333333334],[-0.19444444444444445,0.20925925925925926],[-0.19444444444444445,0.20925925925925926],[-0.19444444444444445,0.2101851851851852],[-0.19537037037037036,0.21203703703703702],[-0.19537037037037036,0.21574074074074073],[-0.1962962962962963,0.2175925925925926],[-0.1962962962962963,0.2175925925925926],[-0.1962962962962963,0.2175925925925926],[-0.1962962962962963,0.21944444444444444],[-0.19537037037037036,0.21944444444444444],[-0.1935185185185185,0.2212962962962963],[-0.19166666666666668,0.2212962962962963],[-0.18981481481481483,0.22407407407407406],[-0.18888888888888888,0.22407407407407406],[-0.18888888888888888,0.225],[-0.18796296296296297,0.22685185185185186],[-0.18611111111111112,0.22870370370370371],[-0.18333333333333332,0.2324074074074074],[-0.18333333333333332,0.2324074074074074],[-0.18333333333333332,0.2324074074074074]],[[0.007407407407407408,-0.19444444444444445],[0.007407407407407408,-0.19444444444444445],[0.007407407407407408,-0.19444444444444445],[0.007407407407407408,-0.19444444444444445],[0.007407407407407408,-0.19444444444444445],[0.008333333333333333,-0.19444444444444445],[0.011111111111111112,-0.19166666666666668],[0.01574074074074074,-0.18611111111111112],[0.019444444444444445,-0.18055555555555555],[0.021296296296296296,-0.17685185185185184],[0.026851851851851852,-0.1685185185185185],[0.02962962962962963,-0.16574074074074074],[0.03333333333333333,-0.15925925925925927],[0.03611111111111111,-0.15555555555555556],[0.040740740740740744,-0.14722222222222223],[0.046296296296296294,-0.1398148148148148],[0.049074074074074076,-0.13518518518518519],[0.05462962962962963,-0.12777777777777777],[0.058333333333333334,-0.12222222222222222],[0.06296296296296296,-0.11296296296296296],[0.06666666666666667,-0.10740740740740741],[0.07222222222222222,-0.1],[0.07592592592592592,-0.09537037037037037],[0.0824074074074074,-0.0824074074074074],[0.08333333333333333,-0.07962962962962963],[0.08333333333333333,-0.07777777777777778],[0.08611111111111111,-0.07222222222222222],[0.08796296296296297,-0.06851851851851852],[0.08981481481481482,-0.062037037037037036],[0.09259259259259259,-0.05555555555555555],[0.09722222222222222,-0.04537037037037037],[0.1,-0.037037037037037035],[0.10648148148148148,-0.023148148148148147],[0.10740740740740741,-0.019444444444444445],[0.10925925925925926,-0.012037037037037037],[0.11203703703703703,-0.004629629629629629],[0.11481481481481481,0.007407407407407408],[0.1175925925925926,0.012962962962962963],[0.11851851851851852,0.018518518518518517],[0.12129629629629629,0.032407407407407406],[0.12129629629629629,0.037037037037037035],[0.12314814814814815,0.03888888888888889],[0.12407407407407407,0.04537037037037037],[0.12777777777777777,0.05462962962962963],[0.12777777777777777,0.05555555555555555],[0.12962962962962962,0.06296296296296296],[0.13148148148148148,0.06666666666666667],[0.13148148148148148,0.06851851851851852],[0.13333333333333333,0.07314814814814814],[0.13333333333333333,0.07407407407407407],[0.13425925925925927,0.07685185185185185],[0.13703703703703704,0.08333333333333333],[0.13796296296296295,0.08611111111111111],[0.1388888888888889,0.08888888888888889],[0.1398148148148148,0.09351851851851851],[0.14074074074074075,0.09537037037037037],[0.14351851851851852,0.10277777777777777],[0.14444444444444443,0.10740740740740741],[0.14629629629629629,0.11481481481481481],[0.14907407407407408,0.12314814814814815],[0.15092592592592594,0.12777777777777777],[0.15185185185185185,0.12962962962962962],[0.1537037037037037,0.13425925925925927],[0.15462962962962962,0.13703703703703704],[0.15648148148148147,0.1388888888888889],[0.15833333333333333,0.14074074074074075],[0.15925925925925927,0.1425925925925926],[0.15925925925925927,0.1425925925925926],[0.16111111111111112,0.14537037037037037],[0.1638888888888889,0.15],[0.16666666666666666,0.15462962962962962],[0.16944444444444445,0.15833333333333333],[0.17037037037037037,0.16018518518518518],[0.1712962962962963,0.16111111111111112],[0.17222222222222222,0.1638888888888889],[0.17222222222222222,0.1648148148148148],[0.17314814814814813,0.1648148148148148],[0.17592592592592593,0.16666666666666666],[0.17592592592592593,0.1675925925925926],[0.17777777777777778,0.16944444444444445],[0.17962962962962964,0.1712962962962963],[0.18055555555555555,0.17222222222222222],[0.18333333333333332,0.17407407407407408],[0.18703703703703703,0.17777777777777778],[0.19907407407407407,0.1935185185185185],[0.20185185185185187,0.19814814814814816],[0.21388888888888888,0.22777777777777777],[0.21388888888888888,0.22777777777777777],[0.21481481481481482,0.22870370370370371],[0.21481481481481482,0.22870370370370371],[0.21481481481481482,0.22870370370370371],[0.21481481481481482,0.22870370370370371]]]",2,"[161,92]",space,17.806,space,1.276,0,2,2,6,1,right_left_2.jpg,right_left_2_path.jpg,,,,,,,,,,,,,,,,
Image_List_2,,,,,,,,,,,,,,,,44213,2020-11-18_16h58.20.601,analogCatScenes,2020.1.3,Win32,60,"[1620,1080]","[[[-0.003703703703703704,-0.20555555555555555],[-0.003703703703703704,-0.20555555555555555],[-0.003703703703703704,-0.20555555555555555],[-0.003703703703703704,-0.20555555555555555],[-0.003703703703703704,-0.20555555555555555],[-0.003703703703703704,-0.20555555555555555],[-0.003703703703703704,-0.20555555555555555],[-0.003703703703703704,-0.20555555555555555],[-0.003703703703703704,-0.20555555555555555],[-0.003703703703703704,-0.20555555555555555],[-0.003703703703703704,-0.20555555555555555],[-0.003703703703703704,-0.20555555555555555],[0.002777777777777778,-0.20462962962962963],[0.030555555555555555,-0.2037037037037037],[0.04351851851851852,-0.2037037037037037],[0.06851851851851852,-0.20277777777777778],[0.07777777777777778,-0.20185185185185187],[0.09814814814814815,-0.19814814814814816],[0.11666666666666667,-0.18981481481481483],[0.1259259259259259,-0.18333333333333332],[0.14074074074074075,-0.17314814814814813],[0.15,-0.16296296296296298],[0.1675925925925926,-0.14444444444444443],[0.18333333333333332,-0.12777777777777777],[0.19444444444444445,-0.11666666666666667],[0.21203703703703702,-0.0962962962962963],[0.22037037037037038,-0.08611111111111111],[0.2351851851851852,-0.06851851851851852],[0.23796296296296296,-0.06574074074074074],[0.24166666666666667,-0.062037037037037036],[0.24444444444444444,-0.05555555555555555],[0.24814814814814815,-0.04814814814814815],[0.2490740740740741,-0.046296296296296294],[0.2490740740740741,-0.044444444444444446],[0.2490740740740741,-0.044444444444444446],[0.2490740740740741,-0.044444444444444446],[0.2490740740740741,-0.044444444444444446]],[[-0.001851851851851852,-0.1962962962962963],[-0.001851851851851852,-0.1962962962962963],[-0.001851851851851852,-0.1962962962962963],[-0.001851851851851852,-0.1962962962962963],[-0.001851851851851852,-0.1962962962962963],[-0.001851851851851852,-0.18703703703703703],[-0.001851851851851852,-0.1574074074074074],[0,-0.1361111111111111],[0.004629629629629629,-0.11481481481481481],[0.006481481481481481,-0.09074074074074075],[0.009259259259259259,-0.06111111111111111],[0.010185185185185186,-0.03981481481481482],[0.008333333333333333,-0.025],[0.008333333333333333,-0.025],[-0.003703703703703704,0.018518518518518517],[-0.011111111111111112,0.041666666666666664],[-0.013888888888888888,0.05277777777777778],[-0.016666666666666666,0.06388888888888888],[-0.019444444444444445,0.07407407407407407],[-0.021296296296296296,0.07685185185185185],[-0.023148148148148147,0.0824074074074074],[-0.024074074074074074,0.08611111111111111],[-0.024074074074074074,0.08703703703703704],[-0.025,0.08796296296296297],[-0.025925925925925925,0.08796296296296297],[-0.028703703703703703,0.09259259259259259],[-0.030555555555555555,0.0962962962962963],[-0.032407407407407406,0.1],[-0.03333333333333333,0.10185185185185185],[-0.03333333333333333,0.10185185185185185],[-0.03333333333333333,0.10185185185185185],[-0.03333333333333333,0.10185185185185185]]]",2,"[37,32]",space,9.99,space,1.29,0,3,3,2,1,ahead_right_2.jpg,ahead_right_2_path.jpg,,,,,,,,,,,,,,,,
Image_List_2,,,,,,,,,,,,,,,,44213,2020-11-18_16h58.20.601,analogCatScenes,2020.1.3,Win32,60,"[1620,1080]","[[[0.001851851851851852,-0.19814814814814816],[0.001851851851851852,-0.19814814814814816],[0.001851851851851852,-0.19814814814814816],[0.001851851851851852,-0.19814814814814816],[0.001851851851851852,-0.19722222222222222],[0.001851851851851852,-0.1824074074074074],[0.003703703703703704,-0.16018518518518518],[0.005555555555555556,-0.13055555555555556],[0.011111111111111112,-0.10185185185185185],[0.014814814814814815,-0.07592592592592592],[0.016666666666666666,-0.06388888888888888],[0.019444444444444445,-0.04814814814814815],[0.023148148148148147,-0.025925925925925925],[0.026851851851851852,-0.010185185185185186],[0.028703703703703703,0.008333333333333333],[0.030555555555555555,0.025925925925925925],[0.030555555555555555,0.05185185185185185],[0.030555555555555555,0.06666666666666667],[0.030555555555555555,0.09074074074074075],[0.03148148148148148,0.12037037037037036],[0.03611111111111111,0.14814814814814814],[0.03888888888888889,0.1712962962962963],[0.03981481481481482,0.19074074074074074],[0.03981481481481482,0.20462962962962963],[0.03981481481481482,0.20555555555555555],[0.03981481481481482,0.2074074074074074],[0.03981481481481482,0.2074074074074074],[0.03981481481481482,0.2074074074074074],[0.03981481481481482,0.2074074074074074],[0.03981481481481482,0.2074074074074074],[0.03981481481481482,0.2074074074074074],[0.03981481481481482,0.2074074074074074]]]",1,[32],space,4.615,space,1.939,0,4,4,1,1,ahead_left_2.jpg,ahead_left_2_path.jpg,,,,,,,,,,,,,,,,
Image_List_2,,,,,,,,,,,,,,,,44213,2020-11-18_16h58.20.601,analogCatScenes,2020.1.3,Win32,60,"[1620,1080]","[[[0.003703703703703704,-0.19814814814814816],[0.003703703703703704,-0.19814814814814816],[0.003703703703703704,-0.19814814814814816],[0.003703703703703704,-0.19814814814814816],[0.003703703703703704,-0.19814814814814816],[0.003703703703703704,-0.19814814814814816],[0.003703703703703704,-0.19814814814814816],[0.003703703703703704,-0.19814814814814816],[0.003703703703703704,-0.19814814814814816],[0.002777777777777778,-0.18981481481481483],[0.003703703703703704,-0.17407407407407408],[0.006481481481481481,-0.1648148148148148],[0.009259259259259259,-0.1574074074074074],[0.010185185185185186,-0.15462962962962962],[0.011111111111111112,-0.1527777777777778],[0.013888888888888888,-0.14351851851851852],[0.014814814814814815,-0.1388888888888889],[0.016666666666666666,-0.13240740740740742],[0.017592592592592594,-0.125],[0.019444444444444445,-0.11666666666666667],[0.019444444444444445,-0.10555555555555556],[0.019444444444444445,-0.09814814814814815],[0.019444444444444445,-0.08796296296296297],[0.019444444444444445,-0.07962962962962963],[0.021296296296296296,-0.06944444444444445],[0.021296296296296296,-0.06296296296296296],[0.022222222222222223,-0.05648148148148148],[0.022222222222222223,-0.049074074074074076],[0.023148148148148147,-0.04537037037037037],[0.023148148148148147,-0.040740740740740744],[0.023148148148148147,-0.03333333333333333],[0.022222222222222223,-0.028703703703703703],[0.021296296296296296,-0.018518518518518517],[0.021296296296296296,-0.017592592592592594],[0.021296296296296296,-0.012962962962962963],[0.021296296296296296,-0.008333333333333333],[0.021296296296296296,-0.007407407407407408],[0.021296296296296296,-0.006481481481481481],[0.021296296296296296,-0.006481481481481481],[0.021296296296296296,-0.006481481481481481],[0.021296296296296296,-0.006481481481481481],[0.021296296296296296,-0.006481481481481481],[0.021296296296296296,-0.006481481481481481]],[[-0.006481481481481481,-0.19907407407407407],[-0.006481481481481481,-0.19907407407407407],[-0.006481481481481481,-0.19907407407407407],[-0.006481481481481481,-0.19907407407407407],[0.000925925925925926,-0.1925925925925926],[0.010185185185185186,-0.18611111111111112],[0.019444444444444445,-0.17685185185185184],[0.02962962962962963,-0.16666666666666666],[0.037037037037037035,-0.15925925925925927],[0.04537037037037037,-0.1537037037037037],[0.05277777777777778,-0.14907407407407408],[0.05462962962962963,-0.14722222222222223],[0.058333333333333334,-0.14351851851851852],[0.06388888888888888,-0.13796296296296295],[0.06666666666666667,-0.13425925925925927],[0.075,-0.1259259259259259],[0.0787037037037037,-0.12222222222222222],[0.08425925925925926,-0.11574074074074074],[0.08981481481481482,-0.10833333333333334],[0.09444444444444444,-0.10277777777777777],[0.10185185185185185,-0.09444444444444444],[0.11018518518518519,-0.08888888888888889],[0.11388888888888889,-0.08518518518518518],[0.11851851851851852,-0.08055555555555556],[0.12685185185185185,-0.075],[0.13148148148148148,-0.0712962962962963],[0.1398148148148148,-0.06666666666666667],[0.14537037037037037,-0.06296296296296296],[0.1574074074074074,-0.058333333333333334],[0.17777777777777778,-0.05277777777777778],[0.18425925925925926,-0.05092592592592592],[0.19537037037037036,-0.04814814814814815],[0.19907407407407407,-0.04814814814814815],[0.19907407407407407,-0.04814814814814815],[0.19907407407407407,-0.04814814814814815]],[[0.001851851851851852,-0.2064814814814815],[0.001851851851851852,-0.2064814814814815],[0.001851851851851852,-0.2064814814814815],[0.001851851851851852,-0.2064814814814815],[0.001851851851851852,-0.2064814814814815],[0.001851851851851852,-0.2064814814814815],[-0.002777777777777778,-0.2064814814814815],[-0.013888888888888888,-0.20555555555555555],[-0.02962962962962963,-0.19814814814814816],[-0.040740740740740744,-0.1925925925925926],[-0.049074074074074076,-0.18981481481481483],[-0.06296296296296296,-0.18425925925925926],[-0.07592592592592592,-0.18055555555555555],[-0.09444444444444444,-0.17407407407407408],[-0.1111111111111111,-0.16574074074074074],[-0.1175925925925926,-0.16296296296296298],[-0.12777777777777777,-0.16111111111111112],[-0.13796296296296295,-0.15833333333333333],[-0.14722222222222223,-0.15462962962962962],[-0.1648148148148148,-0.14629629629629629],[-0.17222222222222222,-0.14351851851851852],[-0.18518518518518517,-0.1398148148148148],[-0.19722222222222222,-0.13333333333333333],[-0.20925925925925926,-0.1287037037037037],[-0.22592592592592592,-0.12129629629629629],[-0.23333333333333334,-0.11944444444444445],[-0.24722222222222223,-0.11481481481481481],[-0.2638888888888889,-0.10833333333333334],[-0.2796296296296296,-0.09444444444444444],[-0.2935185185185185,-0.07777777777777778],[-0.30092592592592593,-0.07314814814814814],[-0.31296296296296294,-0.07037037037037037],[-0.31851851851851853,-0.07037037037037037],[-0.32685185185185184,-0.0712962962962963],[-0.3296296296296296,-0.07222222222222222],[-0.3314814814814815,-0.07222222222222222],[-0.3314814814814815,-0.07222222222222222],[-0.3314814814814815,-0.07222222222222222]]]",3,"[43,35,38]",space,13.865,space,1.286,0,5,5,3,1,ahead_right_left_2.jpg,ahead_right_left_2_path.jpg,,,,,,,,,,,,,,,,
Image_List_2,,,,,,,,,,,,,,,,44213,2020-11-18_16h58.20.601,analogCatScenes,2020.1.3,Win32,60,"[1620,1080]","[[[0.003703703703703704,-0.20462962962962963],[0.003703703703703704,-0.20462962962962963],[0.003703703703703704,-0.20462962962962963],[0.003703703703703704,-0.20462962962962963],[0.003703703703703704,-0.20462962962962963],[0.003703703703703704,-0.20462962962962963],[0.003703703703703704,-0.20462962962962963],[0.003703703703703704,-0.20462962962962963],[0.003703703703703704,-0.20462962962962963],[0.003703703703703704,-0.20462962962962963],[0.003703703703703704,-0.20462962962962963],[0.003703703703703704,-0.20462962962962963],[0.003703703703703704,-0.20462962962962963],[0.003703703703703704,-0.20462962962962963],[0.003703703703703704,-0.20462962962962963],[0.003703703703703704,-0.20462962962962963],[0.003703703703703704,-0.20462962962962963],[0.003703703703703704,-0.20462962962962963],[0.003703703703703704,-0.20462962962962963],[0.003703703703703704,-0.20462962962962963],[0.003703703703703704,-0.20462962962962963],[0.006481481481481481,-0.20277777777777778],[0.006481481481481481,-0.20092592592592592],[0.006481481481481481,-0.20092592592592592],[0.007407407407407408,-0.2],[0.009259259259259259,-0.19814814814814816],[0.012962962962962963,-0.1962962962962963],[0.017592592592592594,-0.1925925925925926],[0.020370370370370372,-0.19074074074074074],[0.026851851851851852,-0.18611111111111112],[0.032407407407407406,-0.1824074074074074],[0.04259259259259259,-0.175],[0.05277777777777778,-0.1675925925925926],[0.06574074074074074,-0.16018518518518518],[0.07592592592592592,-0.15555555555555556],[0.08148148148148149,-0.15185185185185185],[0.08981481481481482,-0.14537037037037037],[0.09444444444444444,-0.14166666666666666],[0.10185185185185185,-0.13425925925925927],[0.11018518518518519,-0.12685185185185185],[0.1175925925925926,-0.12129629629629629],[0.1259259259259259,-0.11203703703703703],[0.13518518518518519,-0.1037037037037037],[0.14444444444444443,-0.09722222222222222],[0.1574074074074074,-0.08703703703703704],[0.1648148148148148,-0.0824074074074074],[0.175,-0.07592592592592592],[0.18888888888888888,-0.06481481481481481],[0.20185185185185187,-0.053703703703703705],[0.2111111111111111,-0.04814814814814815],[0.21388888888888888,-0.046296296296296294],[0.21481481481481482,-0.046296296296296294],[0.21481481481481482,-0.046296296296296294],[0.21481481481481482,-0.046296296296296294],[0.21481481481481482,-0.046296296296296294],[0.21481481481481482,-0.046296296296296294],[0.21481481481481482,-0.046296296296296294],[0.21481481481481482,-0.046296296296296294],[0.21481481481481482,-0.046296296296296294],[0.21481481481481482,-0.046296296296296294],[0.21481481481481482,-0.046296296296296294],[0.21481481481481482,-0.046296296296296294],[0.21481481481481482,-0.046296296296296294],[0.21481481481481482,-0.046296296296296294],[0.21481481481481482,-0.046296296296296294],[0.21666666666666667,-0.04537037037037037],[0.2212962962962963,-0.04259259259259259],[0.22592592592592592,-0.03981481481481482],[0.23055555555555557,-0.03611111111111111],[0.23425925925925925,-0.03333333333333333],[0.23796296296296296,-0.03148148148148148],[0.24537037037037038,-0.026851851851851852],[0.25277777777777777,-0.021296296296296296],[0.2574074074074074,-0.017592592592592594],[0.26296296296296295,-0.012962962962962963],[0.26666666666666666,-0.009259259259259259],[0.2740740740740741,-0.003703703703703704],[0.27870370370370373,0],[0.2861111111111111,0.005555555555555556],[0.2898148148148148,0.007407407407407408],[0.2935185185185185,0.011111111111111112],[0.2962962962962963,0.013888888888888888],[0.30462962962962964,0.020370370370370372],[0.3111111111111111,0.025925925925925925],[0.31666666666666665,0.03148148148148148],[0.31666666666666665,0.032407407407407406],[0.31666666666666665,0.032407407407407406],[0.31666666666666665,0.032407407407407406],[0.31666666666666665,0.032407407407407406],[0.31666666666666665,0.032407407407407406],[0.31666666666666665,0.032407407407407406]]]",1,[91],space,10.612,space,0.809,0,6,6,5,1,right_2.jpg,right_2_path.jpg,,,,,,,,,,,,,,,,
Image_List_2,,,,,,,,,,,,,,,,44213,2020-11-18_16h58.20.601,analogCatScenes,2020.1.3,Win32,60,"[1620,1080]","[[[-0.000925925925925926,-0.19444444444444445],[-0.000925925925925926,-0.19444444444444445],[-0.000925925925925926,-0.19444444444444445],[-0.000925925925925926,-0.19444444444444445],[-0.000925925925925926,-0.19444444444444445],[-0.000925925925925926,-0.19444444444444445],[-0.000925925925925926,-0.19444444444444445],[-0.000925925925925926,-0.19444444444444445],[-0.000925925925925926,-0.19444444444444445],[-0.000925925925925926,-0.19444444444444445],[-0.000925925925925926,-0.19444444444444445],[-0.003703703703703704,-0.19444444444444445],[-0.010185185185185186,-0.18981481481481483],[-0.023148148148148147,-0.1814814814814815],[-0.030555555555555555,-0.17777777777777778],[-0.04259259259259259,-0.16111111111111112],[-0.04722222222222222,-0.15648148148148147],[-0.06018518518518518,-0.14166666666666666],[-0.06574074074074074,-0.13703703703703704],[-0.08425925925925926,-0.11574074074074074],[-0.09814814814814815,-0.10277777777777777],[-0.11851851851851852,-0.07685185185185185],[-0.13425925925925927,-0.05925925925925926],[-0.1527777777777778,-0.037037037037037035],[-0.1685185185185185,-0.016666666666666666],[-0.18611111111111112,0],[-0.20277777777777778,0.019444444444444445],[-0.2222222222222222,0.037037037037037035],[-0.2490740740740741,0.06388888888888888],[-0.26296296296296295,0.07407407407407407],[-0.2814814814814815,0.08518518518518518],[-0.28703703703703703,0.08796296296296297],[-0.29259259259259257,0.08888888888888889],[-0.29814814814814816,0.09074074074074075],[-0.29814814814814816,0.09074074074074075]]]",1,[35],,,,,,,,,,,,space,3.946,cafeteria6.jpg,space,3.718,0,0,0,16,1,basement.jpg,breakroom2.jpg,campusquad4.jpg,barbershop2.jpg,,
Image_List_2,,,,,,,,,,,,,,,,44213,2020-11-18_16h58.20.601,analogCatScenes,2020.1.3,Win32,60,"[1620,1080]","[[[-0.005555555555555556,-0.20092592592592592],[-0.005555555555555556,-0.20092592592592592],[-0.005555555555555556,-0.20092592592592592],[-0.005555555555555556,-0.20092592592592592],[-0.005555555555555556,-0.20092592592592592],[-0.005555555555555556,-0.20092592592592592],[-0.005555555555555556,-0.20092592592592592],[-0.005555555555555556,-0.20092592592592592],[-0.005555555555555556,-0.20092592592592592],[-0.006481481481481481,-0.20092592592592592],[-0.009259259259259259,-0.18796296296296297],[-0.018518518518518517,-0.17037037037037037],[-0.024074074074074074,-0.1527777777777778],[-0.028703703703703703,-0.13703703703703704],[-0.032407407407407406,-0.11851851851851852],[-0.03888888888888889,-0.09074074074074075],[-0.04259259259259259,-0.06296296296296296],[-0.04537037037037037,-0.046296296296296294],[-0.053703703703703705,-0.021296296296296296],[-0.05555555555555555,-0.013888888888888888],[-0.05925925925925926,-0.002777777777777778],[-0.06296296296296296,0.018518518518518517],[-0.06388888888888888,0.025],[-0.06574074074074074,0.044444444444444446],[-0.06574074074074074,0.053703703703703705],[-0.06759259259259259,0.06574074074074074],[-0.06944444444444445,0.08518518518518518],[-0.07222222222222222,0.09351851851851851],[-0.07222222222222222,0.10092592592592593],[-0.07314814814814814,0.11481481481481481],[-0.07314814814814814,0.12222222222222222],[-0.07314814814814814,0.13425925925925927],[-0.07314814814814814,0.1425925925925926],[-0.07314814814814814,0.1527777777777778],[-0.07314814814814814,0.1675925925925926],[-0.07314814814814814,0.17592592592592593],[-0.075,0.1935185185185185],[-0.075,0.19722222222222222],[-0.075,0.19722222222222222],[-0.075,0.19722222222222222],[-0.075,0.19722222222222222],[-0.075,0.19722222222222222],[-0.075,0.19722222222222222],[-0.075,0.19722222222222222],[-0.075,0.19722222222222222],[-0.075,0.19722222222222222],[-0.075,0.2],[-0.075,0.2101851851851852],[-0.075,0.21296296296296297],[-0.075,0.21944444444444444],[-0.075,0.2212962962962963],[-0.075,0.22685185185185186],[-0.075,0.22870370370370371],[-0.07592592592592592,0.23703703703703705],[-0.07592592592592592,0.24259259259259258],[-0.07592592592592592,0.2462962962962963],[-0.07592592592592592,0.2537037037037037],[-0.07592592592592592,0.2574074074074074],[-0.07685185185185185,0.2657407407407407],[-0.07685185185185185,0.2675925925925926],[-0.07685185185185185,0.2722222222222222],[-0.07685185185185185,0.2740740740740741],[-0.07685185185185185,0.2824074074074074],[-0.07685185185185185,0.287962962962963],[-0.07685185185185185,0.29907407407407405],[-0.07685185185185185,0.30277777777777776],[-0.07685185185185185,0.30833333333333335],[-0.07777777777777778,0.31296296296296294],[-0.0787037037037037,0.3175925925925926],[-0.0787037037037037,0.3194444444444444],[-0.0787037037037037,0.32222222222222224],[-0.0787037037037037,0.325],[-0.0787037037037037,0.3277777777777778],[-0.0787037037037037,0.33055555555555555],[-0.0787037037037037,0.33240740740740743],[-0.0787037037037037,0.3333333333333333],[-0.0787037037037037,0.33611111111111114],[-0.0787037037037037,0.337037037037037],[-0.07777777777777778,0.3416666666666667],[-0.07777777777777778,0.34444444444444444],[-0.07777777777777778,0.34814814814814815],[-0.07777777777777778,0.35],[-0.07777777777777778,0.3527777777777778],[-0.07777777777777778,0.35833333333333334],[-0.0787037037037037,0.3638888888888889],[-0.0787037037037037,0.3675925925925926],[-0.07962962962962963,0.37222222222222223],[-0.07962962962962963,0.37592592592592594],[-0.07962962962962963,0.3824074074074074],[-0.07962962962962963,0.38333333333333336],[-0.07962962962962963,0.38333333333333336],[-0.07962962962962963,0.38333333333333336]]]",1,[92],,,,,,,,,,,,,,cemetery6.jpg,space,7.522,0,1,1,21,1,botanicalGarden6.jpg,campusquad3.jpg,cave5.jpg,beach1.jpeg,,
Image_List_2,,,,,,,,,,,,,,,,44213,2020-11-18_16h58.20.601,analogCatScenes,2020.1.3,Win32,60,"[1620,1080]","[[[0.004629629629629629,-0.2037037037037037],[0.004629629629629629,-0.2037037037037037],[0.004629629629629629,-0.2037037037037037],[0.004629629629629629,-0.2037037037037037],[0.004629629629629629,-0.2037037037037037],[-0.05462962962962963,-0.18888888888888888],[-0.09166666666666666,-0.16574074074074074],[-0.16111111111111112,-0.11296296296296296],[-0.18981481481481483,-0.09351851851851851],[-0.21481481481481482,-0.07962962962962963],[-0.2490740740740741,-0.06481481481481481],[-0.2740740740740741,-0.05277777777777778],[-0.2740740740740741,-0.05277777777777778],[-0.2740740740740741,-0.05277777777777778]],[[0.001851851851851852,-0.19537037037037036],[0.001851851851851852,-0.19537037037037036],[0.001851851851851852,-0.19537037037037036],[0.007407407407407408,-0.19537037037037036],[0.05740740740740741,-0.19537037037037036],[0.13518518518518519,-0.19722222222222222],[0.21944444444444444,-0.1925925925925926],[0.2740740740740741,-0.18703703703703703],[0.3472222222222222,-0.1824074074074074]]]",2,"[14,9]",,,,,,,,,,,,,,bar2.jpg,space,3.805,0,2,2,9,1,auto_showroom3.jpg,ballroom2.jpg,basement5.jpg,arcade2.jpg,,
Image_List_2,,,,,,,,,,,,,,,,44213,2020-11-18_16h58.20.601,analogCatScenes,2020.1.3,Win32,60,"[1620,1080]","[[[0.000925925925925926,-0.2074074074074074],[0.000925925925925926,-0.2074074074074074],[0.003703703703703704,-0.2074074074074074],[0.005555555555555556,-0.20833333333333334],[0.007407407407407408,-0.20833333333333334],[0.007407407407407408,-0.20925925925925926],[0.007407407407407408,-0.20925925925925926],[0.007407407407407408,-0.20925925925925926],[0.010185185185185186,-0.2064814814814815],[0.016666666666666666,-0.20092592592592592],[0.027777777777777776,-0.1935185185185185],[0.032407407407407406,-0.18981481481481483],[0.04259259259259259,-0.1824074074074074],[0.05462962962962963,-0.17222222222222222],[0.05925925925925926,-0.16666666666666666],[0.06574074074074074,-0.15833333333333333],[0.0712962962962963,-0.15],[0.07777777777777778,-0.13703703703703704],[0.0824074074074074,-0.13055555555555556],[0.09074074074074075,-0.11018518518518519],[0.09351851851851851,-0.10092592592592593],[0.10092592592592593,-0.07777777777777778],[0.10462962962962963,-0.05925925925925926],[0.10925925925925926,-0.04814814814814815],[0.11481481481481481,-0.03148148148148148],[0.1175925925925926,-0.025],[0.12037037037037036,-0.019444444444444445],[0.12685185185185185,0.001851851851851852],[0.12962962962962962,0.011111111111111112],[0.13333333333333333,0.022222222222222223],[0.13333333333333333,0.025]]]",1,[31],,,,,,,,,,,,,,hotelRoom3.jpg,space,3.324,0,3,3,55,1,greenmountains.jpg,gazebo5.jpg,hotelRoom7.jpg,frontLawn2.jpg,,
Image_List_2,,,,,,,,,,,,,,,,44213,2020-11-18_16h58.20.601,analogCatScenes,2020.1.3,Win32,60,"[1620,1080]","[[[0.006481481481481481,-0.19814814814814816],[0.006481481481481481,-0.19814814814814816],[0.006481481481481481,-0.19814814814814816],[0.006481481481481481,-0.19814814814814816],[0.006481481481481481,-0.19814814814814816],[-0.004629629629629629,-0.1648148148148148],[-0.008333333333333333,-0.14907407407407408],[-0.012037037037037037,-0.12962962962962962],[-0.016666666666666666,-0.10462962962962963],[-0.020370370370370372,-0.08796296296296297],[-0.023148148148148147,-0.07222222222222222],[-0.026851851851851852,-0.06296296296296296],[-0.03148148148148148,-0.05],[-0.03518518518518519,-0.03796296296296296],[-0.03888888888888889,-0.019444444444444445],[-0.04259259259259259,0.002777777777777778],[-0.044444444444444446,0.025],[-0.049074074074074076,0.05092592592592592],[-0.05,0.06851851851851852],[-0.05277777777777778,0.08518518518518518],[-0.05462962962962963,0.09722222222222222],[-0.05648148148148148,0.11203703703703703],[-0.058333333333333334,0.12777777777777777],[-0.062037037037037036,0.14722222222222223],[-0.06574074074074074,0.15925925925925927],[-0.06574074074074074,0.16018518518518518],[-0.06574074074074074,0.16018518518518518],[-0.06574074074074074,0.16018518518518518],[-0.06574074074074074,0.16018518518518518]]]",1,[29],,,,,,,,,,,,,,frontLawn5.jpg,space,3.893,0,4,4,46,1,flowershop.jpg,farmersmarket4.jpg,fountain4.jpg,dormroom6.jpg,,
Image_List_2,,,,,,,,,,,,,,,,44213,2020-11-18_16h58.20.601,analogCatScenes,2020.1.3,Win32,60,"[1620,1080]","[[[0.003703703703703704,-0.19074074074074074],[0.003703703703703704,-0.19074074074074074],[0.003703703703703704,-0.19074074074074074],[0.003703703703703704,-0.19074074074074074],[0.003703703703703704,-0.19074074074074074],[0.014814814814814815,-0.18611111111111112],[0.023148148148148147,-0.1814814814814815],[0.046296296296296294,-0.16944444444444445],[0.06481481481481481,-0.16018518518518518],[0.08981481481481482,-0.14537037037037037],[0.10277777777777777,-0.13240740740740742],[0.1111111111111111,-0.12129629629629629],[0.12407407407407407,-0.10185185185185185],[0.13055555555555556,-0.09166666666666666],[0.13703703703703704,-0.0787037037037037],[0.14074074074074075,-0.06666666666666667],[0.14351851851851852,-0.058333333333333334],[0.14444444444444443,-0.05],[0.14444444444444443,-0.041666666666666664],[0.14537037037037037,-0.03518518518518519],[0.14537037037037037,-0.028703703703703703],[0.14444444444444443,-0.023148148148148147],[0.1398148148148148,-0.014814814814814815],[0.13240740740740742,-0.005555555555555556],[0.12777777777777777,-0.000925925925925926],[0.12222222222222222,0.003703703703703704],[0.11574074074074074,0.008333333333333333],[0.11018518518518519,0.010185185185185186],[0.10555555555555556,0.012037037037037037],[0.09814814814814815,0.013888888888888888],[0.08981481481481482,0.01574074074074074],[0.08611111111111111,0.016666666666666666],[0.07962962962962963,0.019444444444444445],[0.0712962962962963,0.022222222222222223],[0.06759259259259259,0.024074074074074074],[0.05925925925925926,0.03518518518518519],[0.05648148148148148,0.03981481481481482],[0.05462962962962963,0.04259259259259259],[0.053703703703703705,0.04814814814814815],[0.053703703703703705,0.05092592592592592],[0.05740740740740741,0.05925925925925926],[0.06574074074074074,0.07037037037037037],[0.06851851851851852,0.07407407407407407],[0.07314814814814814,0.07962962962962963],[0.075,0.08518518518518518],[0.075,0.08518518518518518],[0.075,0.08518518518518518],[0.075,0.08518518518518518],[0.075,0.08518518518518518]],[[-0.002777777777777778,-0.19907407407407407],[-0.002777777777777778,-0.19907407407407407],[-0.002777777777777778,-0.19907407407407407],[0.001851851851851852,-0.1935185185185185],[0.004629629629629629,-0.18611111111111112],[0.006481481481481481,-0.1675925925925926],[0.007407407407407408,-0.15648148148148147],[0.005555555555555556,-0.13796296296296295],[-0.004629629629629629,-0.11851851851851852],[-0.016666666666666666,-0.09907407407407408],[-0.025925925925925925,-0.0787037037037037],[-0.032407407407407406,-0.0712962962962963],[-0.04814814814814815,-0.05925925925925926],[-0.05555555555555555,-0.05555555555555555],[-0.062037037037037036,-0.05185185185185185],[-0.07314814814814814,-0.049074074074074076],[-0.0824074074074074,-0.046296296296296294],[-0.09907407407407408,-0.04537037037037037],[-0.10833333333333334,-0.04537037037037037],[-0.11666666666666667,-0.04537037037037037],[-0.12685185185185185,-0.044444444444444446],[-0.1361111111111111,-0.041666666666666664],[-0.1537037037037037,-0.03518518518518519],[-0.16574074074074074,-0.030555555555555555],[-0.17685185185185184,-0.025925925925925925],[-0.18333333333333332,-0.019444444444444445],[-0.18611111111111112,-0.007407407407407408],[-0.18333333333333332,0.002777777777777778],[-0.175,0.013888888888888888],[-0.16574074074074074,0.023148148148148147],[-0.1425925925925926,0.040740740740740744],[-0.12407407407407407,0.049074074074074076],[-0.09444444444444444,0.05555555555555555],[-0.06666666666666667,0.062037037037037036],[-0.053703703703703705,0.062037037037037036],[-0.032407407407407406,0.05740740740740741],[-0.012962962962962963,0.05092592592592592],[0.002777777777777778,0.05],[0.016666666666666666,0.04814814814814815],[0.027777777777777776,0.04722222222222222],[0.03796296296296296,0.049074074074074076],[0.04814814814814815,0.05277777777777778],[0.05925925925925926,0.058333333333333334],[0.06944444444444445,0.06296296296296296],[0.07592592592592592,0.06851851851851852],[0.07777777777777778,0.06944444444444445],[0.07777777777777778,0.06944444444444445],[0.07777777777777778,0.06944444444444445]],[[-0.002777777777777778,-0.1935185185185185],[-0.002777777777777778,-0.1935185185185185],[-0.002777777777777778,-0.1935185185185185],[-0.001851851851851852,-0.19166666666666668],[0.001851851851851852,-0.18518518518518517],[0.001851851851851852,-0.18333333333333332],[0.001851851851851852,-0.1824074074074074],[0.003703703703703704,-0.17777777777777778],[0.006481481481481481,-0.1712962962962963],[0.006481481481481481,-0.15833333333333333],[0.003703703703703704,-0.1398148148148148],[-0.006481481481481481,-0.11851851851851852],[-0.02962962962962963,-0.08611111111111111],[-0.03981481481481482,-0.07777777777777778],[-0.046296296296296294,-0.07407407407407407],[-0.05925925925925926,-0.06944444444444445],[-0.07037037037037037,-0.06574074074074074],[-0.08611111111111111,-0.062037037037037036],[-0.10462962962962963,-0.05648148148148148],[-0.11388888888888889,-0.05277777777777778],[-0.12962962962962962,-0.04814814814814815],[-0.1398148148148148,-0.04537037037037037],[-0.14814814814814814,-0.04351851851851852],[-0.15833333333333333,-0.041666666666666664],[-0.1675925925925926,-0.03888888888888889],[-0.17777777777777778,-0.03425925925925926],[-0.19074074074074074,-0.021296296296296296],[-0.1935185185185185,-0.016666666666666666],[-0.1925925925925926,-0.012962962962962963],[-0.17962962962962964,-0.000925925925925926],[-0.16574074074074074,0.006481481481481481],[-0.1574074074074074,0.009259259259259259],[-0.15555555555555556,0.010185185185185186],[-0.1527777777777778,0.013888888888888888],[-0.1527777777777778,0.022222222222222223],[-0.1527777777777778,0.03518518518518519],[-0.15462962962962962,0.03796296296296296],[-0.15648148148148147,0.04259259259259259],[-0.16111111111111112,0.046296296296296294],[-0.17037037037037037,0.05],[-0.17314814814814813,0.05185185185185185],[-0.17407407407407408,0.05185185185185185],[-0.175,0.05185185185185185],[-0.17592592592592593,0.05277777777777778]]]",3,"[49,48,44]",,,,,,,,,,,,,,playroom4.jpg,space,11.662,0,5,5,76,1,parkinggarage.jpg,parkinggarage3.jpg,park2.jpg,lookout4.jpg,,
Image_List_2,,,,,,,,,,,,,,,,44213,2020-11-18_16h58.20.601,analogCatScenes,2020.1.3,Win32,60,"[1620,1080]","[[[0.007407407407407408,-0.20185185185185187],[0.007407407407407408,-0.20185185185185187],[0.007407407407407408,-0.20185185185185187],[0.007407407407407408,-0.20185185185185187],[0.007407407407407408,-0.20185185185185187],[0.007407407407407408,-0.20185185185185187],[-0.004629629629629629,-0.18796296296296297],[-0.041666666666666664,-0.17314814814814813],[-0.062037037037037036,-0.16574074074074074],[-0.08796296296296297,-0.15833333333333333],[-0.09907407407407408,-0.15833333333333333],[-0.12037037037037036,-0.15925925925925927],[-0.14907407407407408,-0.16018518518518518],[-0.18055555555555555,-0.16111111111111112],[-0.22685185185185186,-0.16111111111111112],[-0.2601851851851852,-0.16574074074074074],[-0.3,-0.175],[-0.31574074074074077,-0.17777777777777778],[-0.3398148148148148,-0.18055555555555555],[-0.3398148148148148,-0.18055555555555555],[-0.3398148148148148,-0.18055555555555555],[-0.3398148148148148,-0.18055555555555555],[-0.3398148148148148,-0.18055555555555555]],[[0.004629629629629629,-0.20185185185185187],[0.004629629629629629,-0.20185185185185187],[0.004629629629629629,-0.20185185185185187],[0.004629629629629629,-0.20185185185185187],[0.004629629629629629,-0.20185185185185187],[0.004629629629629629,-0.20185185185185187],[0.004629629629629629,-0.20185185185185187],[0.004629629629629629,-0.20185185185185187],[0.020370370370370372,-0.21296296296296297],[0.040740740740740744,-0.22314814814814815],[0.06851851851851852,-0.23333333333333334],[0.0824074074074074,-0.23796296296296296],[0.1,-0.24166666666666667],[0.10925925925925926,-0.24351851851851852],[0.13703703703703704,-0.24537037037037038],[0.17222222222222222,-0.24074074074074073],[0.225,-0.2212962962962963],[0.23703703703703705,-0.21203703703703702],[0.2675925925925926,-0.1962962962962963],[0.275,-0.19166666666666668],[0.28425925925925927,-0.1824074074074074],[0.2935185185185185,-0.1712962962962963],[0.30277777777777776,-0.15555555555555556],[0.3074074074074074,-0.14722222222222223],[0.3101851851851852,-0.14074074074074075],[0.3101851851851852,-0.1388888888888889],[0.3101851851851852,-0.1388888888888889],[0.3101851851851852,-0.1388888888888889]]]",2,"[23,28]",,,,,,,,,,,,,,diningroom1.jpg,space,6.534,0,6,6,33,1,deck1.jpg,courthouse2.jpg,diner10.jpg,cabinIndoors5.jpg,,
Image_List_2,,,,,,,,,,,,,,,,44213,2020-11-18_16h58.20.601,analogCatScenes,2020.1.3,Win32,60,"[1620,1080]","[[[-0.001851851851851852,-0.2],[-0.001851851851851852,-0.2],[-0.001851851851851852,-0.2],[-0.001851851851851852,-0.2],[0.001851851851851852,-0.19814814814814816],[0.030555555555555555,-0.17037037037037037],[0.10648148148148148,-0.11388888888888889],[0.12962962962962962,-0.09444444444444444],[0.17222222222222222,-0.05648148148148148],[0.2037037037037037,-0.02962962962962963],[0.21851851851851853,-0.01574074074074074],[0.23425925925925925,-0.003703703703703704],[0.2462962962962963,0.007407407407407408],[0.2564814814814815,0.018518518518518517],[0.27685185185185185,0.03611111111111111],[0.29074074074074074,0.04722222222222222],[0.29907407407407405,0.05462962962962963],[0.3074074074074074,0.06111111111111111],[0.30925925925925923,0.062037037037037036],[0.30925925925925923,0.062037037037037036]],[[0.003703703703703704,-0.19166666666666668],[0.003703703703703704,-0.19166666666666668],[0.003703703703703704,-0.19166666666666668],[0.003703703703703704,-0.19166666666666668],[-0.001851851851851852,-0.17685185185185184],[-0.012962962962962963,-0.15833333333333333],[-0.025,-0.13703703703703704],[-0.04259259259259259,-0.09722222222222222],[-0.05277777777777778,-0.06666666666666667],[-0.05925925925925926,-0.046296296296296294],[-0.07037037037037037,-0.012037037037037037],[-0.07685185185185185,0.002777777777777778],[-0.08425925925925926,0.025925925925925925],[-0.08611111111111111,0.027777777777777776],[-0.09074074074074075,0.03333333333333333],[-0.1037037037037037,0.040740740740740744],[-0.11203703703703703,0.04351851851851852],[-0.12129629629629629,0.046296296296296294],[-0.13333333333333333,0.04814814814814815],[-0.1425925925925926,0.049074074074074076],[-0.15185185185185185,0.05092592592592592],[-0.16018518518518518,0.05092592592592592],[-0.16296296296296298,0.05092592592592592],[-0.16296296296296298,0.05092592592592592],[-0.16296296296296298,0.05092592592592592],[-0.16296296296296298,0.05092592592592592],[-0.16296296296296298,0.05092592592592592]]]",2,"[20,27]",,,,,,,,,,,,,,dancestudio5.jpg,space,5.164,0,7,7,28,1,churchInside1.jpg,citystreet10.jpg,clothingstore5.jpg,bridalboutique2.jpg,,
Image_List_2,,,,,,,,,,,,,,,,44213,2020-11-18_16h58.20.601,analogCatScenes,2020.1.3,Win32,60,"[1620,1080]","[[[0.002777777777777778,-0.20277777777777778],[0.002777777777777778,-0.20277777777777778],[0.002777777777777778,-0.20277777777777778],[0.002777777777777778,-0.20277777777777778],[0.002777777777777778,-0.20277777777777778],[0.002777777777777778,-0.20277777777777778],[0.002777777777777778,-0.20277777777777778],[0.002777777777777778,-0.20277777777777778],[0.002777777777777778,-0.20277777777777778],[0.002777777777777778,-0.20277777777777778],[0.002777777777777778,-0.20277777777777778],[0.002777777777777778,-0.20277777777777778],[0.002777777777777778,-0.20277777777777778],[0.002777777777777778,-0.20277777777777778],[0.002777777777777778,-0.20277777777777778],[0.002777777777777778,-0.20277777777777778],[0.002777777777777778,-0.20277777777777778],[0.002777777777777778,-0.20277777777777778],[0.002777777777777778,-0.20277777777777778],[0.002777777777777778,-0.20277777777777778],[0.002777777777777778,-0.20277777777777778],[0.002777777777777778,-0.20277777777777778],[0.002777777777777778,-0.20277777777777778],[0.002777777777777778,-0.20277777777777778],[0.002777777777777778,-0.20277777777777778],[0.002777777777777778,-0.20277777777777778],[0.002777777777777778,-0.20277777777777778],[0.002777777777777778,-0.20277777777777778],[0.002777777777777778,-0.20277777777777778],[0.002777777777777778,-0.20277777777777778],[0.002777777777777778,-0.20277777777777778],[0.002777777777777778,-0.20277777777777778],[0.002777777777777778,-0.20277777777777778],[0.002777777777777778,-0.20277777777777778],[-0.010185185185185186,-0.20833333333333334],[-0.018518518518518517,-0.21203703703703702],[-0.044444444444444446,-0.21666666666666667],[-0.06111111111111111,-0.21666666666666667],[-0.07685185185185185,-0.21666666666666667],[-0.09907407407407408,-0.21666666666666667],[-0.11296296296296296,-0.2175925925925926],[-0.13055555555555556,-0.2175925925925926],[-0.13796296296296295,-0.2175925925925926],[-0.14722222222222223,-0.21666666666666667],[-0.16574074074074074,-0.21388888888888888],[-0.175,-0.21203703703703702],[-0.1962962962962963,-0.20833333333333334],[-0.20833333333333334,-0.20555555555555555],[-0.2212962962962963,-0.2037037037037037],[-0.24444444444444444,-0.2],[-0.2462962962962963,-0.2],[-0.2462962962962963,-0.2],[-0.2462962962962963,-0.2],[-0.2462962962962963,-0.2],[-0.2462962962962963,-0.2],[-0.2462962962962963,-0.2],[-0.26666666666666666,-0.22314814814814815],[-0.2916666666666667,-0.23333333333333334],[-0.3138888888888889,-0.23148148148148148],[-0.325,-0.22870370370370371],[-0.3398148148148148,-0.225],[-0.3472222222222222,-0.22314814814814815],[-0.35,0.15092592592592594],[-0.3435185185185185,0.1527777777777778],[-0.33240740740740743,0.15648148148148147],[-0.32592592592592595,0.1574074074074074],[-0.32037037037037036,0.16111111111111112],[-0.3111111111111111,0.16666666666666666],[-0.30462962962962964,0.1712962962962963],[-0.2972222222222222,0.175],[-0.2898148148148148,0.1814814814814815],[-0.2796296296296296,0.18703703703703703],[-0.26666666666666666,0.1925925925925926],[-0.2564814814814815,0.19907407407407407],[-0.24537037037037038,0.20462962962962963],[-0.2351851851851852,0.2101851851851852],[-0.2351851851851852,0.2101851851851852],[-0.2351851851851852,0.2101851851851852],[-0.2351851851851852,0.2101851851851852],[-0.2351851851851852,0.2101851851851852],[-0.2351851851851852,0.2101851851851852],[-0.2351851851851852,0.2101851851851852],[-0.2351851851851852,0.2101851851851852],[-0.2351851851851852,0.2101851851851852],[-0.2351851851851852,0.2101851851851852],[-0.2351851851851852,0.2101851851851852],[-0.2351851851851852,0.2101851851851852],[-0.2351851851851852,0.2101851851851852],[-0.2351851851851852,0.2101851851851852],[-0.2351851851851852,0.2101851851851852],[-0.2351851851851852,0.2101851851851852],[-0.2351851851851852,0.2101851851851852],[-0.2351851851851852,0.2101851851851852],[-0.2324074074074074,0.21388888888888888],[-0.21388888888888888,0.2361111111111111],[-0.19537037037037036,0.25462962962962965],[-0.18055555555555555,0.2675925925925926],[-0.16944444444444445,0.2740740740740741],[-0.15462962962962962,0.2824074074074074],[-0.14537037037037037,0.287962962962963],[-0.1361111111111111,0.29444444444444445],[-0.12407407407407407,0.29814814814814816],[-0.11574074074074074,0.30185185185185187],[-0.10925925925925926,0.30462962962962964],[-0.10648148148148148,0.30462962962962964],[-0.10648148148148148,0.30462962962962964],[-0.10648148148148148,0.30462962962962964]]]",1,[107],,,,,,,,,,,,,,greenhouse5.jpg,space,11.522,0,8,8,49,1,frontDoor3.jpg,flowershop3.jpg,greenhouse.jpg,farm2.jpg,,
Image_List_2,,,,,,,,,,,,,,,,44213,2020-11-18_16h58.20.601,analogCatScenes,2020.1.3,Win32,60,"[1620,1080]","[[[-0.003703703703703704,-0.20925925925925926],[-0.003703703703703704,-0.20925925925925926],[-0.003703703703703704,-0.20925925925925926],[-0.003703703703703704,-0.20925925925925926],[-0.003703703703703704,-0.20925925925925926],[-0.011111111111111112,-0.2037037037037037],[-0.06944444444444445,-0.13333333333333333],[-0.1037037037037037,-0.08333333333333333],[-0.1175925925925926,-0.03796296296296296],[-0.1175925925925926,-0.010185185185185186],[-0.09444444444444444,0.024074074074074074],[-0.07407407407407407,0.032407407407407406],[-0.026851851851851852,0.03981481481481482],[0.006481481481481481,0.041666666666666664],[0.037037037037037035,0.03148148148148148],[0.05092592592592592,0.023148148148148147],[0.08055555555555556,-0.013888888888888888],[0.09351851851851851,-0.03148148148148148],[0.10833333333333334,-0.062037037037037036],[0.11574074074074074,-0.07314814814814814],[0.1287037037037037,-0.09907407407407408],[0.1398148148148148,-0.1259259259259259],[0.1537037037037037,-0.1537037037037037],[0.17037037037037037,-0.17222222222222222],[0.18611111111111112,-0.17777777777777778],[0.20185185185185187,-0.18611111111111112],[0.20277777777777778,-0.18888888888888888]],[[-0.002777777777777778,-0.19722222222222222],[-0.002777777777777778,-0.19722222222222222],[-0.010185185185185186,-0.17407407407407408],[-0.017592592592592594,-0.14907407407407408],[-0.024074074074074074,-0.1037037037037037],[-0.022222222222222223,-0.07314814814814814],[-0.007407407407407408,-0.05],[0.025925925925925925,-0.012037037037037037],[0.06666666666666667,0.025],[0.09537037037037037,0.05740740740740741],[0.11851851851851852,0.08611111111111111],[0.13055555555555556,0.09814814814814815],[0.1388888888888889,0.10740740740740741],[0.1388888888888889,0.10740740740740741]]]",2,"[27,14]",,,,,,,,,,,,,,attic1.jpg,space,6.568,0,9,9,3,1,apartmentBuilding2.jpg,aquarium1.jpg,appleorchard2.jpg,alley3.jpg,,
Image_List_2,,,,,,,,,,,,,,,,44213,2020-11-18_16h58.20.601,analogCatScenes,2020.1.3,Win32,60,"[1620,1080]","[[[-0.001851851851851852,-0.20462962962962963],[-0.001851851851851852,-0.20462962962962963],[-0.001851851851851852,-0.20462962962962963],[-0.001851851851851852,-0.20462962962962963],[0.001851851851851852,-0.17222222222222222],[0.002777777777777778,-0.14074074074074075],[0.003703703703703704,-0.11666666666666667],[0.009259259259259259,-0.0787037037037037],[0.009259259259259259,-0.06111111111111111],[0.009259259259259259,-0.03518518518518519],[0.006481481481481481,-0.001851851851851852],[0.005555555555555556,0.020370370370370372],[0.004629629629629629,0.037037037037037035],[0.004629629629629629,0.05925925925925926],[0.004629629629629629,0.08796296296296297],[0.003703703703703704,0.09722222222222222],[0.003703703703703704,0.10277777777777777],[0.003703703703703704,0.10277777777777777]]]",1,[18],,,,,,,,,,,,,,warehouse2.jpg,space,2.633,0,10,10,95,1,waitingroom2.jpg,stripmall6.jpg,weightroom4.jpg,tvstudio3.jpg,,
Image_List_2,,,,,,,,,,,,,,,,44213,2020-11-18_16h58.20.601,analogCatScenes,2020.1.3,Win32,60,"[1620,1080]","[[[-0.001851851851851852,-0.20925925925925926],[-0.001851851851851852,-0.20925925925925926],[-0.001851851851851852,-0.20925925925925926],[-0.001851851851851852,-0.20925925925925926],[-0.012037037037037037,-0.1638888888888889],[-0.019444444444444445,-0.12407407407407407],[-0.025,-0.10185185185185185],[-0.028703703703703703,-0.08425925925925926],[-0.028703703703703703,-0.06018518518518518],[-0.024074074074074074,-0.02962962962962963],[-0.021296296296296296,-0.012037037037037037],[-0.021296296296296296,0.021296296296296296],[-0.021296296296296296,0.03518518518518519],[-0.022222222222222223,0.046296296296296294],[-0.025925925925925925,0.05277777777777778],[-0.02962962962962963,0.06944444444444445],[-0.03518518518518519,0.09074074074074075],[-0.03611111111111111,0.09444444444444444],[-0.03981481481481482,0.10833333333333334],[-0.03981481481481482,0.10925925925925926],[-0.03981481481481482,0.10925925925925926],[-0.03981481481481482,0.10925925925925926],[-0.03981481481481482,0.10925925925925926],[-0.03981481481481482,0.10925925925925926],[-0.03981481481481482,0.10925925925925926],[-0.03981481481481482,0.10925925925925926],[-0.03981481481481482,0.10925925925925926],[-0.03981481481481482,0.10925925925925926],[-0.03981481481481482,0.10925925925925926],[-0.03981481481481482,0.10925925925925926],[-0.03888888888888889,0.1111111111111111],[-0.037037037037037035,0.11388888888888889],[-0.037037037037037035,0.11388888888888889],[-0.03611111111111111,0.11574074074074074],[-0.03518518518518519,0.11851851851851852],[-0.03518518518518519,0.12037037037037036],[-0.03518518518518519,0.12037037037037036],[-0.03425925925925926,0.12222222222222222],[-0.03425925925925926,0.1259259259259259],[-0.03611111111111111,0.13055555555555556],[-0.037037037037037035,0.13148148148148148],[-0.037037037037037035,0.13148148148148148]]]",1,[42],,,,,,,,,,,,,,cornfield4.jpg,space,3.071,0,11,11,26,1,campusquad2.jpg,church4.jpg,churchInside3.jpg,botanicalGarden7.jpg,,
Image_List_2,,,,,,,,,,,,,,,,44213,2020-11-18_16h58.20.601,analogCatScenes,2020.1.3,Win32,60,"[1620,1080]","[[[-0.001851851851851852,-0.20555555555555555],[-0.001851851851851852,-0.20555555555555555],[-0.001851851851851852,-0.20555555555555555],[-0.001851851851851852,-0.20555555555555555],[-0.001851851851851852,-0.20555555555555555],[-0.001851851851851852,-0.20555555555555555],[-0.001851851851851852,-0.20555555555555555],[-0.001851851851851852,-0.20555555555555555],[-0.001851851851851852,-0.20555555555555555],[-0.001851851851851852,-0.20555555555555555],[-0.001851851851851852,-0.20555555555555555],[-0.001851851851851852,-0.20555555555555555],[-0.001851851851851852,-0.20555555555555555],[-0.001851851851851852,-0.20555555555555555],[-0.001851851851851852,-0.20555555555555555],[-0.002777777777777778,-0.20185185185185187],[-0.012037037037037037,-0.175],[-0.016666666666666666,-0.1574074074074074],[-0.025,-0.1425925925925926],[-0.03888888888888889,-0.12037037037037036],[-0.046296296296296294,-0.11574074074074074],[-0.05648148148148148,-0.11574074074074074],[-0.07222222222222222,-0.12129629629629629],[-0.07962962962962963,-0.12407407407407407],[-0.09259259259259259,-0.13148148148148148],[-0.0962962962962963,-0.13333333333333333],[-0.11203703703703703,-0.13425925925925927],[-0.11944444444444445,-0.13240740740740742],[-0.13148148148148148,-0.12962962962962962],[-0.1425925925925926,-0.12685185185185185],[-0.1537037037037037,-0.12314814814814815],[-0.1638888888888889,-0.11851851851851852],[-0.1712962962962963,-0.11481481481481481],[-0.18703703703703703,-0.10833333333333334],[-0.19907407407407407,-0.10277777777777777],[-0.2064814814814815,-0.09907407407407408],[-0.21944444444444444,-0.09537037037037037],[-0.2388888888888889,-0.08703703703703704],[-0.2462962962962963,-0.08425925925925926],[-0.26296296296296295,-0.07222222222222222],[-0.2740740740740741,-0.06296296296296296],[-0.2953703703703704,-0.04259259259259259],[-0.29907407407407405,-0.03611111111111111],[-0.30185185185185187,-0.027777777777777776],[-0.30185185185185187,-0.025],[-0.30185185185185187,-0.025],[-0.30185185185185187,-0.025]],[[-0.005555555555555556,-0.20277777777777778],[-0.005555555555555556,-0.20277777777777778],[-0.005555555555555556,-0.20277777777777778],[-0.005555555555555556,-0.20277777777777778],[-0.005555555555555556,-0.19814814814814816],[-0.000925925925925926,-0.175],[0,-0.16666666666666666],[0.004629629629629629,-0.1388888888888889],[0.007407407407407408,-0.125],[0.010185185185185186,-0.09907407407407408],[0.012962962962962963,-0.07592592592592592],[0.013888888888888888,-0.06388888888888888],[0.013888888888888888,-0.05648148148148148],[0.013888888888888888,-0.05648148148148148],[0.013888888888888888,-0.05462962962962963],[0.013888888888888888,-0.05462962962962963]]]",2,"[47,16]",,,,,,,,,,,,,,frontFoyer7.jpg,space,5.891,0,12,12,45,1,fittingroom2.jpg,factory1.jpg,forestpath4.jpg,dock4.jpg,,
Image_List_2,,,,,,,,,,,,,,,,44213,2020-11-18_16h58.20.601,analogCatScenes,2020.1.3,Win32,60,"[1620,1080]","[[[-0.008333333333333333,-0.20833333333333334],[-0.008333333333333333,-0.20833333333333334],[-0.008333333333333333,-0.20833333333333334],[-0.008333333333333333,-0.20833333333333334],[-0.008333333333333333,-0.20833333333333334],[-0.008333333333333333,-0.20833333333333334],[-0.008333333333333333,-0.20833333333333334],[-0.003703703703703704,-0.20092592592592592],[0.003703703703703704,-0.18888888888888888],[0.011111111111111112,-0.17777777777777778],[0.021296296296296296,-0.16296296296296298],[0.030555555555555555,-0.15555555555555556],[0.03796296296296296,-0.14537037037037037],[0.04722222222222222,-0.11574074074074074],[0.04814814814814815,-0.10462962962962963],[0.05185185185185185,-0.08518518518518518],[0.053703703703703705,-0.06944444444444445],[0.05648148148148148,-0.05462962962962963],[0.05740740740740741,-0.046296296296296294],[0.06296296296296296,-0.03425925925925926],[0.06574074074074074,-0.025],[0.06851851851851852,-0.012962962962962963],[0.06851851851851852,-0.010185185185185186],[0.06851851851851852,-0.001851851851851852],[0.06666666666666667,0.012037037037037037],[0.06481481481481481,0.016666666666666666],[0.062037037037037036,0.024074074074074074],[0.058333333333333334,0.03611111111111111],[0.053703703703703705,0.05],[0.04814814814814815,0.06111111111111111],[0.04537037037037037,0.07222222222222222],[0.046296296296296294,0.07777777777777778],[0.05,0.08425925925925926],[0.053703703703703705,0.08611111111111111],[0.06481481481481481,0.08981481481481482],[0.06944444444444445,0.08981481481481482],[0.07592592592592592,0.09166666666666666],[0.07685185185185185,0.09166666666666666],[0.0787037037037037,0.09259259259259259],[0.07962962962962963,0.09351851851851851],[0.07962962962962963,0.09351851851851851]]]",1,[41],,,,,,,,,,,,,,golfcourse6.jpg,space,3.131,0,13,13,48,1,frontDoor2.jpg,fittingroom5.jpg,golfcourse7.jpg,fabricstore2.jpg,,
Image_List_2,,,,,,,,,,,,,,,,44213,2020-11-18_16h58.20.601,analogCatScenes,2020.1.3,Win32,60,"[1620,1080]","[[[0,-0.20277777777777778],[0,-0.20277777777777778],[0,-0.20277777777777778],[0,-0.20277777777777778],[-0.001851851851851852,-0.19444444444444445],[-0.003703703703703704,-0.17592592592592593],[-0.004629629629629629,-0.15833333333333333],[-0.004629629629629629,-0.13333333333333333],[-0.007407407407407408,-0.10277777777777777],[-0.009259259259259259,-0.07407407407407407],[-0.008333333333333333,-0.049074074074074076],[-0.005555555555555556,-0.03518518518518519],[0.004629629629629629,-0.019444444444444445],[0.012962962962962963,-0.010185185185185186],[0.021296296296296296,0.004629629629629629],[0.025,0.011111111111111112],[0.026851851851851852,0.01574074074074074],[0.03148148148148148,0.027777777777777776],[0.032407407407407406,0.037037037037037035],[0.03425925925925926,0.04259259259259259],[0.03611111111111111,0.049074074074074076],[0.037037037037037035,0.05],[0.037037037037037035,0.05],[0.037037037037037035,0.05],[0.037037037037037035,0.05]],[[-0.007407407407407408,-0.1962962962962963],[-0.007407407407407408,-0.1962962962962963],[-0.03148148148148148,-0.14629629629629629],[-0.04722222222222222,-0.10185185185185185],[-0.075,-0.05185185185185185],[-0.08055555555555556,-0.040740740740740744],[-0.09722222222222222,-0.006481481481481481],[-0.10462962962962963,0.012962962962962963],[-0.11018518518518519,0.02962962962962963],[-0.11296296296296296,0.040740740740740744],[-0.11481481481481481,0.04722222222222222]]]",2,"[25,11]",,,,,,,,,,,,,,dock3.jpg,space,4.134,0,14,14,35,1,deck5.jpg,cubicle7.jpg,dining_car6.jpg,carmechanic2.jpg,,
Image_List_2,,,,,,,,,,,,,,,,44213,2020-11-18_16h58.20.601,analogCatScenes,2020.1.3,Win32,60,"[1620,1080]","[[[0.001851851851851852,-0.18981481481481483],[0.001851851851851852,-0.18981481481481483],[0.001851851851851852,-0.18981481481481483],[0.001851851851851852,-0.18981481481481483],[0.001851851851851852,-0.18981481481481483],[0.001851851851851852,-0.18611111111111112],[0.002777777777777778,-0.16296296296296298],[0.006481481481481481,-0.14814814814814814],[0.018518518518518517,-0.11296296296296296],[0.024074074074074074,-0.09907407407407408],[0.03425925925925926,-0.08148148148148149],[0.05277777777777778,-0.07037037037037037],[0.0824074074074074,-0.05648148148148148],[0.10740740740740741,-0.05092592592592592],[0.12777777777777777,-0.046296296296296294],[0.14537037037037037,-0.044444444444444446],[0.1675925925925926,-0.041666666666666664],[0.1814814814814815,-0.040740740740740744],[0.20555555555555555,-0.037037037037037035],[0.23055555555555557,-0.03518518518518519],[0.25277777777777777,-0.03425925925925926],[0.27870370370370373,-0.03981481481481482],[0.2972222222222222,-0.04814814814814815],[0.30833333333333335,-0.05277777777777778],[0.31296296296296294,-0.05462962962962963],[0.31296296296296294,-0.05462962962962963],[0.31296296296296294,-0.05462962962962963],[0.31296296296296294,-0.05462962962962963]]]",1,[28],,,,,,,,,,,,,,desertvegetation6.jpg,space,4.542,0,15,15,31,1,cubicle4.jpg,conference4.jpg,courtroom2.jpg,cabin3.jpg,,
Image_List_2,,,,,,,,,,,,,,,,44213,2020-11-18_16h58.20.601,analogCatScenes,2020.1.3,Win32,60,"[1620,1080]","[[[0.007407407407407408,-0.19074074074074074],[0.007407407407407408,-0.19074074074074074],[0.007407407407407408,-0.19074074074074074],[0.007407407407407408,-0.19074074074074074],[0.001851851851851852,-0.1962962962962963],[-0.04537037037037037,-0.20462962962962963],[-0.07592592592592592,-0.20277777777777778],[-0.12407407407407407,-0.19814814814814816],[-0.14074074074074075,-0.19722222222222222],[-0.17962962962962964,-0.18888888888888888],[-0.19814814814814816,-0.18055555555555555],[-0.2222222222222222,-0.17222222222222222],[-0.24722222222222223,-0.15925925925925927],[-0.2740740740740741,-0.1388888888888889],[-0.30277777777777776,-0.1175925925925926],[-0.33425925925925926,-0.08981481481481482],[-0.3453703703703704,-0.07037037037037037],[-0.34814814814814815,-0.040740740740740744],[-0.33611111111111114,-0.01574074074074074],[-0.31851851851851853,0.002777777777777778],[-0.2935185185185185,0.017592592592592594],[-0.23333333333333334,0.027777777777777776],[-0.18888888888888888,0.03333333333333333],[-0.1425925925925926,0.03888888888888889],[-0.08703703703703704,0.046296296296296294],[-0.06296296296296296,0.05092592592592592],[-0.03796296296296296,0.05462962962962963],[0.017592592592592594,0.07314814814814814],[0.05,0.08611111111111111],[0.10277777777777777,0.10277777777777777],[0.1675925925925926,0.11018518518518519],[0.2212962962962963,0.10648148148148148],[0.24537037037037038,0.10648148148148148],[0.27314814814814814,0.10648148148148148],[0.27685185185185185,0.10648148148148148],[0.27685185185185185,0.10648148148148148],[0.27685185185185185,0.10648148148148148]]]",1,[37],,,,,,,,,,,,,,casino3.jpg,space,3.391,0,16,16,19,1,boardwalk2.jpg,cafeteria1.jpg,castle4.jpg,basketballcourt.jpg,,
Image_List_2,,,,,,,,,,,,,,,,44213,2020-11-18_16h58.20.601,analogCatScenes,2020.1.3,Win32,60,"[1620,1080]","[[[-0.000925925925925926,-0.20925925925925926],[-0.000925925925925926,-0.20925925925925926],[-0.000925925925925926,-0.20925925925925926],[-0.000925925925925926,-0.20925925925925926],[-0.000925925925925926,-0.18888888888888888],[-0.000925925925925926,-0.15925925925925927],[0.004629629629629629,-0.13240740740740742],[0.013888888888888888,-0.10277777777777777],[0.040740740740740744,-0.05740740740740741],[0.06018518518518518,-0.032407407407407406],[0.08148148148148149,-0.008333333333333333],[0.10462962962962963,0.017592592592592594],[0.13055555555555556,0.032407407407407406],[0.16203703703703703,0.040740740740740744],[0.18333333333333332,0.04259259259259259],[0.2,0.04351851851851852],[0.21481481481481482,0.04537037037037037],[0.21851851851851853,0.04537037037037037],[0.21851851851851853,0.04537037037037037]],[[-0.005555555555555556,-0.20092592592592592],[-0.005555555555555556,-0.20092592592592592],[-0.005555555555555556,-0.20092592592592592],[-0.005555555555555556,-0.20092592592592592],[-0.008333333333333333,-0.18333333333333332],[-0.014814814814814815,-0.16296296296296298],[-0.020370370370370372,-0.13240740740740742],[-0.025,-0.09814814814814815],[-0.028703703703703703,-0.05740740740740741],[-0.03888888888888889,-0.008333333333333333],[-0.04814814814814815,0.013888888888888888],[-0.05185185185185185,0.024074074074074074],[-0.053703703703703705,0.024074074074074074],[-0.06666666666666667,0.011111111111111112],[-0.0824074074074074,-0.001851851851851852],[-0.09444444444444444,-0.009259259259259259],[-0.10277777777777777,-0.013888888888888888],[-0.10740740740740741,-0.01574074074074074],[-0.11388888888888889,-0.01574074074074074],[-0.11944444444444445,-0.01574074074074074],[-0.12962962962962962,-0.014814814814814815],[-0.1361111111111111,-0.013888888888888888],[-0.14166666666666666,-0.013888888888888888],[-0.1425925925925926,-0.013888888888888888],[-0.14351851851851852,-0.013888888888888888],[-0.14351851851851852,-0.013888888888888888]],[[-0.000925925925925926,-0.1935185185185185],[-0.000925925925925926,-0.1935185185185185],[-0.000925925925925926,-0.1935185185185185],[-0.000925925925925926,-0.1935185185185185],[-0.000925925925925926,-0.1935185185185185],[-0.000925925925925926,-0.1935185185185185],[0.011111111111111112,-0.18981481481481483],[0.032407407407407406,-0.1787037037037037],[0.0712962962962963,-0.13796296296296295],[0.10555555555555556,-0.11944444444444445],[0.1361111111111111,-0.10555555555555556],[0.15462962962962962,-0.10185185185185185],[0.18518518518518517,-0.09814814814814815],[0.22870370370370371,-0.09166666666666666],[0.2777777777777778,-0.07777777777777778],[0.3111111111111111,-0.07222222222222222],[0.32592592592592595,-0.06759259259259259],[0.3296296296296296,-0.06666666666666667]]]",3,"[19,26,18]",,,,,,,,,,,,,,elevatorOutside4.jpg,space,8.993,0,17,17,38,1,dining_car2.jpg,dock1.jpg,driveway8.jpg,classroom1.jpg,,
Image_List_2,,,,,,,,,,,,,,,,44213,2020-11-18_16h58.20.601,analogCatScenes,2020.1.3,Win32,60,"[1620,1080]","[[[0.001851851851851852,-0.19814814814814816],[0.001851851851851852,-0.19814814814814816],[0.001851851851851852,-0.19814814814814816],[0.001851851851851852,-0.19814814814814816],[0.001851851851851852,-0.19814814814814816],[0.001851851851851852,-0.19814814814814816],[0.006481481481481481,-0.17777777777777778],[0.022222222222222223,-0.1537037037037037],[0.05185185185185185,-0.11574074074074074],[0.07407407407407407,-0.09722222222222222],[0.1,-0.07037037037037037],[0.11574074074074074,-0.058333333333333334],[0.14074074074074075,-0.025925925925925925],[0.15092592592592594,-0.01574074074074074],[0.1638888888888889,-0.001851851851851852],[0.18333333333333332,0.017592592592592594],[0.19166666666666668,0.025],[0.20462962962962963,0.03981481481481482],[0.2074074074074074,0.044444444444444446],[0.21574074074074073,0.05648148148148148],[0.22685185185185186,0.07407407407407407],[0.23055555555555557,0.08055555555555556],[0.2361111111111111,0.08888888888888889],[0.23981481481481481,0.09444444444444444],[0.2462962962962963,0.1037037037037037],[0.25092592592592594,0.1111111111111111],[0.2537037037037037,0.11388888888888889],[0.25462962962962965,0.1175925925925926],[0.25462962962962965,0.1175925925925926],[0.25462962962962965,0.1175925925925926],[0.25462962962962965,0.1175925925925926]],[[0.000925925925925926,-0.19537037037037036],[0.000925925925925926,-0.19537037037037036],[0.000925925925925926,-0.19537037037037036],[0.000925925925925926,-0.19537037037037036],[0.000925925925925926,-0.19537037037037036],[0.000925925925925926,-0.19537037037037036],[0.000925925925925926,-0.19537037037037036],[-0.009259259259259259,-0.17962962962962964],[-0.025925925925925925,-0.1527777777777778],[-0.028703703703703703,-0.14537037037037037],[-0.032407407407407406,-0.1361111111111111],[-0.03611111111111111,-0.13240740740740742],[-0.044444444444444446,-0.11944444444444445],[-0.07222222222222222,-0.08888888888888889],[-0.08703703703703704,-0.0712962962962963],[-0.10185185185185185,-0.04814814814814815],[-0.10462962962962963,-0.03981481481481482],[-0.10462962962962963,-0.037037037037037035],[-0.10462962962962963,-0.03333333333333333],[-0.10462962962962963,-0.03148148148148148],[-0.10555555555555556,-0.025],[-0.11481481481481481,-0.013888888888888888],[-0.1175925925925926,-0.010185185185185186],[-0.1287037037037037,0.003703703703703704],[-0.1398148148148148,0.01574074074074074],[-0.14074074074074075,0.016666666666666666],[-0.14074074074074075,0.016666666666666666],[-0.14074074074074075,0.016666666666666666]]]",2,"[31,28]",,,,,,,,,,,,,,gasstation8.jpg,space,6.024,0,18,18,47,1,frontDoor.jpg,firestation4.jpg,fountain7.jpg,elevatorOutside2.jpg,,
Image_List_2,,,,,,,,,,,,,,,,44213,2020-11-18_16h58.20.601,analogCatScenes,2020.1.3,Win32,60,"[1620,1080]","[[[-0.000925925925925926,-0.19074074074074074],[-0.000925925925925926,-0.19074074074074074],[-0.000925925925925926,-0.19074074074074074],[-0.000925925925925926,-0.19074074074074074],[0.000925925925925926,-0.18981481481481483],[0.003703703703703704,-0.18703703703703703],[0.005555555555555556,-0.18333333333333332],[-0.001851851851851852,-0.1685185185185185],[-0.023148148148148147,-0.14814814814814814],[-0.04814814814814815,-0.12777777777777777],[-0.06388888888888888,-0.11574074074074074],[-0.075,-0.10462962962962963],[-0.08148148148148149,-0.0962962962962963],[-0.08425925925925926,-0.09166666666666666],[-0.08425925925925926,-0.09074074074074075],[-0.08518518518518518,-0.08981481481481482],[-0.08518518518518518,-0.08981481481481482],[-0.08518518518518518,-0.08981481481481482],[-0.08518518518518518,-0.08981481481481482],[-0.08518518518518518,-0.08981481481481482]],[[-0.002777777777777778,-0.1962962962962963],[-0.002777777777777778,-0.1962962962962963],[-0.002777777777777778,-0.1962962962962963],[-0.002777777777777778,-0.1962962962962963],[-0.002777777777777778,-0.1962962962962963],[-0.002777777777777778,-0.1962962962962963],[0.002777777777777778,-0.18703703703703703],[0.012037037037037037,-0.17037037037037037],[0.03611111111111111,-0.1388888888888889],[0.04814814814814815,-0.12407407407407407],[0.062037037037037036,-0.11018518518518519],[0.07685185185185185,-0.09259259259259259],[0.08796296296296297,-0.07592592592592592],[0.10555555555555556,-0.05648148148148148],[0.11388888888888889,-0.046296296296296294],[0.12037037037037036,-0.03796296296296296],[0.12037037037037036,-0.037037037037037035]]]",2,"[20,17]",,,,,,,,,,,,,,pavilion.jpg,space,3.72,0,19,19,70,1,lockerroom4.jpg,lockerroom3.jpg,minigolf8.jpg,igloo.jpg,,
Image_List_2,,,,,,,,,,,,,,,,44213,2020-11-18_16h58.20.601,analogCatScenes,2020.1.3,Win32,60,"[1620,1080]","[[[-0.001851851851851852,-0.19814814814814816],[-0.001851851851851852,-0.19814814814814816],[-0.001851851851851852,-0.19814814814814816],[-0.001851851851851852,-0.19814814814814816],[-0.001851851851851852,-0.19814814814814816],[-0.001851851851851852,-0.1962962962962963],[-0.004629629629629629,-0.16574074074074074],[-0.01574074074074074,-0.12129629629629629],[-0.01574074074074074,-0.10833333333333334],[-0.014814814814814815,-0.08518518518518518],[-0.013888888888888888,-0.06759259259259259],[-0.013888888888888888,-0.06666666666666667],[-0.013888888888888888,-0.06296296296296296],[-0.013888888888888888,-0.062037037037037036],[-0.013888888888888888,-0.062037037037037036]],[[0.005555555555555556,-0.1925925925925926],[0.005555555555555556,-0.1925925925925926],[0.005555555555555556,-0.1925925925925926],[0.005555555555555556,-0.1925925925925926],[0.005555555555555556,-0.1925925925925926],[0.005555555555555556,-0.1925925925925926],[0.009259259259259259,-0.1925925925925926],[0.05277777777777778,-0.1925925925925926],[0.10833333333333334,-0.1935185185185185],[0.17592592592592593,-0.1962962962962963],[0.22962962962962963,-0.2111111111111111],[0.2796296296296296,-0.21851851851851853],[0.3398148148148148,-0.2175925925925926]],[[0.002777777777777778,-0.1925925925925926],[0.002777777777777778,-0.1925925925925926],[0.002777777777777778,-0.1925925925925926],[0.002777777777777778,-0.1925925925925926],[-0.011111111111111112,-0.20462962962962963],[-0.04537037037037037,-0.21851851851851853],[-0.12407407407407407,-0.22777777777777777],[-0.15092592592592594,-0.22777777777777777],[-0.19907407407407407,-0.2222222222222222],[-0.2490740740740741,-0.2111111111111111],[-0.2712962962962963,-0.2037037037037037],[-0.3037037037037037,-0.1962962962962963],[-0.32222222222222224,-0.1935185185185185],[-0.3351851851851852,-0.1925925925925926],[-0.33796296296296297,-0.1925925925925926],[-0.33796296296296297,-0.1925925925925926]]]",3,"[15,13,16]",,,,,,,,,,,,,,apartmentBuilding1.jpg,space,5.201,0,20,20,1,1,airportTerminal4.jpg,applestore1.jpg,airportTerminal3.jpg,airportTerminal2.jpg,,
Image_List_2,,,,,,,,,,,,,,,,44213,2020-11-18_16h58.20.601,analogCatScenes,2020.1.3,Win32,60,"[1620,1080]","[[[-0.002777777777777778,-0.19814814814814816],[-0.002777777777777778,-0.19814814814814816],[-0.002777777777777778,-0.19814814814814816],[-0.002777777777777778,-0.19814814814814816],[-0.06481481481481481,-0.18518518518518517],[-0.0962962962962963,-0.16018518518518518],[-0.11944444444444445,-0.13148148148148148],[-0.13240740740740742,-0.10555555555555556],[-0.1388888888888889,-0.08518518518518518],[-0.14722222222222223,-0.03611111111111111],[-0.14537037037037037,-0.014814814814814815],[-0.1425925925925926,-0.001851851851851852],[-0.1425925925925926,-0.000925925925925926],[-0.1425925925925926,-0.000925925925925926]],[[-0.001851851851851852,-0.2037037037037037],[-0.001851851851851852,-0.2037037037037037],[-0.001851851851851852,-0.2037037037037037],[-0.001851851851851852,-0.2037037037037037],[0.03888888888888889,-0.21203703703703702],[0.07314814814814814,-0.21574074074074073],[0.11851851851851852,-0.21481481481481482],[0.17407407407407408,-0.2037037037037037],[0.20925925925925926,-0.18981481481481483],[0.2361111111111111,-0.1574074074074074],[0.23981481481481481,-0.1398148148148148],[0.23796296296296296,-0.10185185185185185],[0.2361111111111111,-0.08611111111111111],[0.23055555555555557,-0.07314814814814814],[0.2222222222222222,-0.06296296296296296],[0.2064814814814815,-0.040740740740740744],[0.19537037037037036,-0.03148148148148148],[0.18518518518518517,-0.026851851851851852],[0.18333333333333332,-0.026851851851851852],[0.18333333333333332,-0.026851851851851852],[0.18333333333333332,-0.026851851851851852],[0.1824074074074074,-0.026851851851851852],[0.1824074074074074,-0.026851851851851852],[0.1824074074074074,-0.026851851851851852],[0.17592592592592593,-0.023148148148148147],[0.17314814814814813,-0.023148148148148147],[0.1685185185185185,-0.020370370370370372],[0.1648148148148148,-0.020370370370370372],[0.16296296296296298,-0.020370370370370372],[0.16203703703703703,-0.020370370370370372],[0.16203703703703703,-0.020370370370370372],[0.16203703703703703,-0.020370370370370372],[0.16203703703703703,-0.020370370370370372]]]",2,"[14,33]",,,,,,,,,,,,,,deck2.jpg,space,5.557,0,21,21,29,1,cornfield2.jpg,cliff2.jpg,constructionSite4.jpg,bridalboutique3.jpg,,
Image_List_2,,,,,,,,,,,,,,,,44213,2020-11-18_16h58.20.601,analogCatScenes,2020.1.3,Win32,60,"[1620,1080]","[[[-0.004629629629629629,-0.19074074074074074],[-0.004629629629629629,-0.19074074074074074],[-0.004629629629629629,-0.19074074074074074],[-0.004629629629629629,-0.19074074074074074],[-0.004629629629629629,-0.19074074074074074],[-0.004629629629629629,-0.19074074074074074],[0.017592592592592594,-0.18055555555555555],[0.0787037037037037,-0.14907407407407408],[0.1398148148148148,-0.1111111111111111],[0.1675925925925926,-0.09351851851851851],[0.19444444444444445,-0.07407407407407407],[0.21574074074074073,-0.06111111111111111],[0.2324074074074074,-0.04814814814814815],[0.2574074074074074,-0.03518518518518519],[0.2638888888888889,-0.03148148148148148],[0.2759259259259259,-0.021296296296296296],[0.2962962962962963,-0.000925925925925926],[0.30462962962962964,0.010185185185185186],[0.32037037037037036,0.03333333333333333],[0.3296296296296296,0.04537037037037037],[0.3333333333333333,0.04814814814814815],[0.3351851851851852,0.05],[0.3351851851851852,0.05]],[[-0.007407407407407408,-0.19907407407407407],[-0.007407407407407408,-0.19907407407407407],[-0.007407407407407408,-0.19907407407407407],[-0.007407407407407408,-0.19907407407407407],[-0.007407407407407408,-0.19907407407407407],[-0.007407407407407408,-0.19907407407407407],[-0.012037037037037037,-0.19074074074074074],[-0.027777777777777776,-0.15462962962962962],[-0.03333333333333333,-0.13425925925925927],[-0.040740740740740744,-0.10277777777777777],[-0.046296296296296294,-0.06111111111111111],[-0.049074074074074076,-0.03981481481481482],[-0.05277777777777778,-0.022222222222222223],[-0.05462962962962963,-0.013888888888888888],[-0.05648148148148148,-0.002777777777777778],[-0.05648148148148148,0.002777777777777778],[-0.05740740740740741,0.004629629629629629],[-0.05740740740740741,0.004629629629629629],[-0.05740740740740741,0.004629629629629629],[-0.05740740740740741,0.004629629629629629],[-0.05740740740740741,0.004629629629629629]]]",2,"[23,21]",,,,,,,,,,,,,,conference3.jpg,space,4.214,0,22,22,25,1,campsite7.jpg,church3.jpg,checkoutcounter2.jpg,botanicalGarden4.jpg,,
