image_list,key_resp_intructions.keys,key_resp_intructions.rt,key_resp_intructions_3.keys,key_resp_intructions_3.rt,PracticeComplete_2.keys,PracticeComplete_2.rt,PracticeComplete_3.keys,PracticeComplete_3.rt,demo_trials.thisRepN,demo_trials.thisTrialN,demo_trials.thisN,demo_trials.thisIndex,demo_trials.ran,demo_images,path_images,participant,date,expName,psychopyVersion,OS,frameRate,windowSize,drawing,numDrawings,drawingSizes,practice_complete.keys,practice_complete.rt,PracticeComplete.keys,PracticeComplete.rt,practice_trials.thisRepN,practice_trials.thisTrialN,practice_trials.thisN,practice_trials.thisIndex,practice_trials.ran,practice_images,feedback_images,key_resp_intructions_2.keys,key_resp_intructions_2.rt,Image_List_2,trial_complete.keys,trial_complete.rt,trials.thisRepN,trials.thisTrialN,trials.thisN,trials.thisIndex,trials.ran,Image_List_1,Image_List_3,Image_List_4,Image_List_5,key_resp.keys,key_resp.rt
Image_List_2,space,18.189,space,5.97,space,17.07,space,3.608,0,0,0,1,1,ahead_left.jpg,ahead_left_path.jpg,44225,2020-11-25_11h54.43.440,analogCatScenes,2020.1.3,MacIntel,60,,,,,,,,,,,,,,,,,,,,,,,,,,,,,,,
Image_List_2,,,,,space,2.738,space,1.042,0,1,1,2,1,ahead_right.jpg,ahead_right_path.jpg,44225,2020-11-25_11h54.43.440,analogCatScenes,2020.1.3,MacIntel,60,,,,,,,,,,,,,,,,,,,,,,,,,,,,,,,
Image_List_2,,,,,space,1.24,space,2.159,0,2,2,3,1,ahead_right_left.jpg,ahead_right_left_path.jpg,44225,2020-11-25_11h54.43.440,analogCatScenes,2020.1.3,MacIntel,60,,,,,,,,,,,,,,,,,,,,,,,,,,,,,,,
Image_List_2,,,,,space,2.904,space,1.42,0,3,3,6,1,right_left.jpg,right_left_path.jpg,44225,2020-11-25_11h54.43.440,analogCatScenes,2020.1.3,MacIntel,60,,,,,,,,,,,,,,,,,,,,,,,,,,,,,,,
Image_List_2,,,,,space,3.343,space,1.938,0,4,4,5,1,right.jpg,right_path.jpg,44225,2020-11-25_11h54.43.440,analogCatScenes,2020.1.3,MacIntel,60,,,,,,,,,,,,,,,,,,,,,,,,,,,,,,,
Image_List_2,,,,,space,2.596,space,2.91,0,5,5,4,1,left.jpg,left_path.jpg,44225,2020-11-25_11h54.43.440,analogCatScenes,2020.1.3,MacIntel,60,,,,,,,,,,,,,,,,,,,,,,,,,,,,,,,
Image_List_2,,,,,space,1.31,space,1.706,0,6,6,0,1,ahead.jpg,ahead_path.jpg,44225,2020-11-25_11h54.43.440,analogCatScenes,2020.1.3,MacIntel,60,,,,,,,,,,,,,,,,,,,,,,,,,,,,,,,
Image_List_2,,,,,,,,,,,,,,,,44225,2020-11-25_11h54.43.440,analogCatScenes,2020.1.3,MacIntel,60,"[1792,1120]",[],0,[],space,3.015,space,1.352,0,0,0,1,1,ahead_left_2.jpg,ahead_left_2_path.jpg,,,,,,,,,,,,,,,,
Image_List_2,,,,,,,,,,,,,,,,44225,2020-11-25_11h54.43.440,analogCatScenes,2020.1.3,MacIntel,60,"[1792,1120]","[[[0,-0.20089285714285715],[0,-0.20089285714285715],[0,-0.20089285714285715],[0,-0.20089285714285715],[0,-0.20089285714285715],[0,-0.20089285714285715],[0,-0.20089285714285715],[0,-0.20089285714285715],[0,-0.20089285714285715],[0,-0.20089285714285715],[0,-0.20089285714285715],[0,-0.20089285714285715],[0,-0.20089285714285715],[0,-0.20089285714285715],[0,-0.20089285714285715],[0,-0.20089285714285715],[0,-0.2],[0.0008928571428571428,-0.19910714285714284],[0.0017857142857142857,-0.19910714285714284],[0.0026785714285714286,-0.19732142857142856],[0.004464285714285714,-0.19642857142857142],[0.005357142857142857,-0.19553571428571428],[0.00625,-0.19464285714285715],[0.008035714285714285,-0.19285714285714287],[0.008928571428571428,-0.19107142857142856],[0.0125,-0.1875],[0.014285714285714285,-0.18571428571428572],[0.017857142857142856,-0.18214285714285713],[0.020535714285714286,-0.18035714285714285],[0.022321428571428572,-0.17857142857142858],[0.024107142857142858,-0.1767857142857143],[0.025892857142857145,-0.17410714285714285],[0.02857142857142857,-0.17142857142857143],[0.03125,-0.16964285714285715],[0.033928571428571426,-0.1669642857142857],[0.039285714285714285,-0.1625],[0.04375,-0.15982142857142856],[0.048214285714285716,-0.15625],[0.05357142857142857,-0.15267857142857144],[0.05625,-0.15],[0.060714285714285714,-0.14642857142857144],[0.06428571428571428,-0.14375],[0.07053571428571428,-0.1392857142857143],[0.07410714285714286,-0.1375],[0.07767857142857143,-0.13482142857142856],[0.08035714285714286,-0.13303571428571428],[0.08303571428571428,-0.13125],[0.08482142857142858,-0.13035714285714287],[0.08660714285714285,-0.12857142857142856],[0.08928571428571429,-0.12678571428571428],[0.09375,-0.12321428571428572],[0.09642857142857143,-0.12142857142857143],[0.1,-0.11964285714285715],[0.10446428571428572,-0.11696428571428572],[0.10625,-0.11517857142857142],[0.10982142857142857,-0.11339285714285714],[0.11160714285714286,-0.11160714285714286],[0.11339285714285714,-0.11071428571428571],[0.11607142857142858,-0.10892857142857143],[0.11785714285714285,-0.10714285714285714],[0.11964285714285715,-0.10535714285714286],[0.12142857142857143,-0.10446428571428572],[0.12410714285714286,-0.10267857142857142],[0.12857142857142856,-0.09910714285714285],[0.13035714285714287,-0.09732142857142857],[0.13482142857142856,-0.09375],[0.13839285714285715,-0.09107142857142857],[0.14107142857142857,-0.08928571428571429],[0.14285714285714285,-0.0875],[0.14464285714285716,-0.08571428571428572],[0.14821428571428572,-0.08303571428571428],[0.15357142857142858,-0.07946428571428571],[0.15892857142857142,-0.07589285714285714],[0.16339285714285715,-0.07321428571428572],[0.1669642857142857,-0.07142857142857142],[0.16964285714285715,-0.06964285714285715],[0.17232142857142857,-0.06785714285714285],[0.17410714285714285,-0.06696428571428571],[0.17767857142857144,-0.06607142857142857],[0.18125,-0.06428571428571428],[0.1875,-0.06160714285714286],[0.19196428571428573,-0.059821428571428574],[0.19732142857142856,-0.05714285714285714],[0.2,-0.055357142857142855],[0.2044642857142857,-0.05267857142857143],[0.20982142857142858,-0.049107142857142856],[0.21428571428571427,-0.04642857142857143],[0.21875,-0.04375],[0.22321428571428573,-0.04107142857142857],[0.22589285714285715,-0.039285714285714285],[0.22857142857142856,-0.038392857142857145],[0.23035714285714284,-0.0375],[0.23125,-0.03660714285714286],[0.2330357142857143,-0.03571428571428571],[0.23482142857142857,-0.03571428571428571],[0.2392857142857143,-0.033928571428571426],[0.24375,-0.03125],[0.24910714285714286,-0.02857142857142857],[0.25535714285714284,-0.025892857142857145],[0.26160714285714287,-0.022321428571428572],[0.26607142857142857,-0.020535714285714286],[0.27053571428571427,-0.01875],[0.2741071428571429,-0.016964285714285713],[0.27589285714285716,-0.01607142857142857],[0.27767857142857144,-0.01607142857142857],[0.2785714285714286,-0.01607142857142857],[0.2785714285714286,-0.01607142857142857],[0.2785714285714286,-0.01607142857142857]]]",1,[108],space,28.295,space,1.362,0,1,1,5,1,right_2.jpg,right_2_path.jpg,,,,,,,,,,,,,,,,
Image_List_2,,,,,,,,,,,,,,,,44225,2020-11-25_11h54.43.440,analogCatScenes,2020.1.3,MacIntel,60,"[1792,1120]","[[[0.0017857142857142857,-0.20267857142857143],[0.0017857142857142857,-0.20267857142857143],[0.0017857142857142857,-0.20267857142857143],[0.0017857142857142857,-0.20267857142857143],[0.0017857142857142857,-0.20267857142857143],[0.0017857142857142857,-0.20267857142857143],[0.0017857142857142857,-0.20267857142857143],[0.0017857142857142857,-0.20267857142857143],[0.0017857142857142857,-0.20267857142857143],[0.0017857142857142857,-0.20267857142857143],[0.0017857142857142857,-0.20267857142857143],[0.0017857142857142857,-0.20267857142857143],[0.0017857142857142857,-0.20267857142857143],[0.0017857142857142857,-0.20267857142857143],[0.0017857142857142857,-0.20267857142857143],[0.0017857142857142857,-0.2],[0.0017857142857142857,-0.19017857142857142],[0.0017857142857142857,-0.17857142857142858],[0.0017857142857142857,-0.1625],[0.0017857142857142857,-0.15],[0.0017857142857142857,-0.13839285714285715],[0.0017857142857142857,-0.13214285714285715],[0.0017857142857142857,-0.12410714285714286],[0.0026785714285714286,-0.11785714285714285],[0.0035714285714285713,-0.11071428571428571],[0.005357142857142857,-0.10357142857142858],[0.007142857142857143,-0.09642857142857143],[0.008035714285714285,-0.08928571428571429],[0.008928571428571428,-0.08392857142857142],[0.009821428571428571,-0.07678571428571429],[0.010714285714285714,-0.07232142857142858],[0.0125,-0.06696428571428571],[0.013392857142857142,-0.05892857142857143],[0.014285714285714285,-0.054464285714285715],[0.015178571428571428,-0.048214285714285716],[0.015178571428571428,-0.04017857142857143],[0.015178571428571428,-0.033035714285714286],[0.015178571428571428,-0.023214285714285715],[0.015178571428571428,-0.0125],[0.014285714285714285,-0.0008928571428571428],[0.013392857142857142,0.009821428571428571],[0.013392857142857142,0.020535714285714286],[0.013392857142857142,0.03125],[0.013392857142857142,0.04107142857142857],[0.013392857142857142,0.049107142857142856],[0.013392857142857142,0.05714285714285714],[0.013392857142857142,0.06160714285714286],[0.0125,0.06696428571428571],[0.011607142857142858,0.07321428571428572],[0.011607142857142858,0.07678571428571429],[0.010714285714285714,0.08035714285714286],[0.010714285714285714,0.08303571428571428],[0.009821428571428571,0.08660714285714285],[0.009821428571428571,0.09017857142857143],[0.009821428571428571,0.09285714285714286],[0.009821428571428571,0.09464285714285714],[0.009821428571428571,0.09642857142857143],[0.009821428571428571,0.09821428571428571],[0.009821428571428571,0.1],[0.009821428571428571,0.10178571428571428],[0.009821428571428571,0.10357142857142858],[0.009821428571428571,0.10535714285714286],[0.009821428571428571,0.10892857142857143],[0.009821428571428571,0.11160714285714286],[0.009821428571428571,0.11428571428571428],[0.008928571428571428,0.11875],[0.008928571428571428,0.12142857142857143],[0.008928571428571428,0.125],[0.008928571428571428,0.12857142857142856],[0.008928571428571428,0.13214285714285715],[0.008928571428571428,0.13482142857142856],[0.008928571428571428,0.13660714285714284],[0.008928571428571428,0.1375],[0.008928571428571428,0.1392857142857143],[0.008928571428571428,0.14017857142857143],[0.008928571428571428,0.14017857142857143],[0.009821428571428571,0.14107142857142857],[0.009821428571428571,0.14107142857142857],[0.009821428571428571,0.14107142857142857],[0.009821428571428571,0.14107142857142857],[0.009821428571428571,0.14107142857142857],[0.009821428571428571,0.1419642857142857],[0.010714285714285714,0.1419642857142857],[0.010714285714285714,0.1419642857142857],[0.010714285714285714,0.1419642857142857],[0.010714285714285714,0.1419642857142857],[0.010714285714285714,0.1419642857142857],[0.010714285714285714,0.1419642857142857],[0.010714285714285714,0.1419642857142857]]]",1,[89],space,5.957,space,1.056,0,2,2,0,1,ahead_2.jpg,ahead_2_path.jpg,,,,,,,,,,,,,,,,
Image_List_2,,,,,,,,,,,,,,,,44225,2020-11-25_11h54.43.440,analogCatScenes,2020.1.3,MacIntel,60,"[1792,1120]","[[[0.0017857142857142857,-0.20089285714285715],[0.0017857142857142857,-0.20089285714285715],[0.0017857142857142857,-0.20089285714285715],[0.0017857142857142857,-0.20089285714285715],[0.0017857142857142857,-0.20089285714285715],[0.0017857142857142857,-0.20089285714285715],[0.0017857142857142857,-0.20089285714285715],[0.0017857142857142857,-0.20089285714285715],[0.0017857142857142857,-0.20089285714285715],[0.0017857142857142857,-0.20089285714285715],[0.0017857142857142857,-0.2],[0.0017857142857142857,-0.1982142857142857],[0.0017857142857142857,-0.19017857142857142],[0.0017857142857142857,-0.18482142857142858],[0.0017857142857142857,-0.17767857142857144],[0.0017857142857142857,-0.1705357142857143],[0.0017857142857142857,-0.16339285714285715],[0.0017857142857142857,-0.15446428571428572],[0.0017857142857142857,-0.14375],[0.0017857142857142857,-0.13482142857142856],[0.0008928571428571428,-0.125],[0,-0.11607142857142858],[0,-0.11160714285714286],[-0.0008928571428571428,-0.10267857142857142],[-0.0017857142857142857,-0.09642857142857143],[-0.0026785714285714286,-0.09017857142857143],[-0.0035714285714285713,-0.08392857142857142],[-0.005357142857142857,-0.07410714285714286],[-0.00625,-0.06875],[-0.007142857142857143,-0.0625],[-0.008928571428571428,-0.055357142857142855],[-0.009821428571428571,-0.045535714285714284],[-0.010714285714285714,-0.03660714285714286],[-0.0125,-0.029464285714285714],[-0.0125,-0.02142857142857143],[-0.013392857142857142,-0.01607142857142857],[-0.013392857142857142,-0.009821428571428571],[-0.014285714285714285,-0.00625],[-0.014285714285714285,-0.0017857142857142857],[-0.014285714285714285,0.0017857142857142857],[-0.014285714285714285,0.004464285714285714],[-0.014285714285714285,0.00625],[-0.015178571428571428,0.008928571428571428],[-0.015178571428571428,0.013392857142857142],[-0.01607142857142857,0.01607142857142857],[-0.01607142857142857,0.019642857142857142],[-0.016964285714285713,0.023214285714285715],[-0.016964285714285713,0.026785714285714284],[-0.016964285714285713,0.029464285714285714],[-0.017857142857142856,0.03125],[-0.017857142857142856,0.033035714285714286],[-0.01875,0.03482142857142857],[-0.01875,0.03660714285714286],[-0.01875,0.039285714285714285],[-0.01875,0.04107142857142857],[-0.01875,0.04375],[-0.01875,0.04642857142857143],[-0.019642857142857142,0.048214285714285716],[-0.019642857142857142,0.05089285714285714],[-0.020535714285714286,0.05267857142857143],[-0.022321428571428572,0.05625],[-0.023214285714285715,0.059821428571428574],[-0.025,0.06339285714285714],[-0.025892857142857145,0.06607142857142857],[-0.027678571428571427,0.06875],[-0.02857142857142857,0.07142857142857142],[-0.02857142857142857,0.07232142857142858],[-0.02857142857142857,0.07410714285714286],[-0.02857142857142857,0.07589285714285714],[-0.029464285714285714,0.07678571428571429],[-0.029464285714285714,0.07767857142857143],[-0.029464285714285714,0.07767857142857143],[-0.029464285714285714,0.07857142857142857],[-0.029464285714285714,0.07946428571428571],[-0.029464285714285714,0.07946428571428571],[-0.029464285714285714,0.08035714285714286],[-0.029464285714285714,0.08035714285714286],[-0.029464285714285714,0.08035714285714286]],[[0,-0.19910714285714284],[0,-0.19910714285714284],[0,-0.19910714285714284],[0,-0.19910714285714284],[0,-0.19910714285714284],[0,-0.19910714285714284],[0,-0.19910714285714284],[0,-0.19910714285714284],[0,-0.19910714285714284],[0,-0.19910714285714284],[0,-0.19910714285714284],[0,-0.19910714285714284],[0,-0.19910714285714284],[0,-0.19910714285714284],[0.0008928571428571428,-0.19910714285714284],[0.0017857142857142857,-0.19910714285714284],[0.0017857142857142857,-0.19910714285714284],[0.0035714285714285713,-0.1982142857142857],[0.005357142857142857,-0.19642857142857142],[0.008928571428571428,-0.19375],[0.0125,-0.19107142857142856],[0.016964285714285713,-0.18839285714285714],[0.025,-0.18482142857142858],[0.02857142857142857,-0.18214285714285713],[0.03125,-0.18125],[0.033928571428571426,-0.17946428571428572],[0.03571428571428571,-0.17767857142857144],[0.039285714285714285,-0.17589285714285716],[0.04375,-0.17410714285714285],[0.04732142857142857,-0.17232142857142857],[0.05178571428571429,-0.17142857142857143],[0.05625,-0.16964285714285715],[0.0625,-0.1669642857142857],[0.06696428571428571,-0.16517857142857142],[0.06964285714285715,-0.16428571428571428],[0.07589285714285714,-0.16160714285714287],[0.08125,-0.15982142857142856],[0.08571428571428572,-0.15803571428571428],[0.09017857142857143,-0.15714285714285714],[0.09375,-0.15535714285714286],[0.09821428571428571,-0.15357142857142858],[0.10178571428571428,-0.15357142857142858],[0.10535714285714286,-0.15267857142857144],[0.11071428571428571,-0.15089285714285713],[0.11517857142857142,-0.15],[0.11875,-0.14910714285714285],[0.125,-0.14821428571428572],[0.12857142857142856,-0.14821428571428572],[0.13214285714285715,-0.14732142857142858],[0.1375,-0.14642857142857144],[0.14107142857142857,-0.1455357142857143],[0.14642857142857144,-0.14464285714285716],[0.15178571428571427,-0.14285714285714285],[0.15535714285714286,-0.14285714285714285],[0.15982142857142856,-0.14107142857142857],[0.16517857142857142,-0.14107142857142857],[0.16875,-0.14017857142857143],[0.17589285714285716,-0.1392857142857143],[0.18125,-0.13839285714285715],[0.18660714285714286,-0.1375],[0.19196428571428573,-0.1375],[0.1982142857142857,-0.13660714285714284],[0.2044642857142857,-0.13660714285714284],[0.21071428571428572,-0.13660714285714284],[0.21517857142857144,-0.13660714285714284],[0.22053571428571428,-0.13660714285714284],[0.22410714285714287,-0.13660714285714284],[0.23035714285714284,-0.1357142857142857],[0.23392857142857143,-0.13482142857142856],[0.2375,-0.13392857142857142],[0.24107142857142858,-0.13303571428571428],[0.24464285714285713,-0.13214285714285715],[0.24642857142857144,-0.13214285714285715],[0.24910714285714286,-0.13214285714285715],[0.25,-0.13125],[0.25089285714285714,-0.13125],[0.2517857142857143,-0.13125],[0.2526785714285714,-0.13125],[0.2526785714285714,-0.13125]]]",2,"[78,79]",space,6.758,space,1.014,0,3,3,2,1,ahead_right_2.jpg,ahead_right_2_path.jpg,,,,,,,,,,,,,,,,
Image_List_2,,,,,,,,,,,,,,,,44225,2020-11-25_11h54.43.440,analogCatScenes,2020.1.3,MacIntel,60,"[1792,1120]","[[[-0.0035714285714285713,-0.1982142857142857],[-0.0035714285714285713,-0.1982142857142857],[-0.0035714285714285713,-0.1982142857142857],[-0.0035714285714285713,-0.1982142857142857],[-0.0035714285714285713,-0.1982142857142857],[-0.0035714285714285713,-0.1982142857142857],[-0.0035714285714285713,-0.1982142857142857],[-0.0035714285714285713,-0.1982142857142857],[-0.0035714285714285713,-0.1982142857142857],[-0.0035714285714285713,-0.1982142857142857],[-0.0035714285714285713,-0.1982142857142857],[-0.0035714285714285713,-0.1982142857142857],[-0.0035714285714285713,-0.19732142857142856],[-0.0035714285714285713,-0.19464285714285715],[-0.0035714285714285713,-0.19285714285714287],[-0.00625,-0.18482142857142858],[-0.008928571428571428,-0.17767857142857144],[-0.0125,-0.16964285714285715],[-0.019642857142857142,-0.15357142857142858],[-0.023214285714285715,-0.14464285714285716],[-0.03214285714285714,-0.12589285714285714],[-0.039285714285714285,-0.11071428571428571],[-0.044642857142857144,-0.09910714285714285],[-0.05178571428571429,-0.08482142857142858],[-0.05625,-0.07053571428571428],[-0.060714285714285714,-0.05803571428571429],[-0.06517857142857143,-0.04642857142857143],[-0.06875,-0.03571428571428571],[-0.07589285714285714,-0.019642857142857142],[-0.07946428571428571,-0.014285714285714285],[-0.08928571428571429,0.0008928571428571428],[-0.09553571428571428,0.010714285714285714],[-0.10178571428571428,0.023214285714285715],[-0.10982142857142857,0.038392857142857145],[-0.11696428571428572,0.05267857142857143],[-0.12142857142857143,0.0625],[-0.12767857142857142,0.07321428571428572],[-0.13214285714285715,0.08303571428571428],[-0.13482142857142856,0.08839285714285715],[-0.13839285714285715,0.09553571428571428],[-0.14107142857142857,0.10178571428571428],[-0.14285714285714285,0.10625],[-0.14464285714285716,0.11071428571428571],[-0.1455357142857143,0.11339285714285714],[-0.14732142857142858,0.11875],[-0.15,0.125],[-0.15178571428571427,0.12857142857142856],[-0.15357142857142858,0.13392857142857142],[-0.15625,0.13839285714285715],[-0.15803571428571428,0.14464285714285716],[-0.15982142857142856,0.15],[-0.16160714285714287,0.15357142857142858],[-0.16339285714285715,0.15803571428571428],[-0.16428571428571428,0.16160714285714287],[-0.16517857142857142,0.16428571428571428],[-0.1669642857142857,0.1669642857142857],[-0.16964285714285715,0.17142857142857143],[-0.17142857142857143,0.175],[-0.17410714285714285,0.18035714285714285],[-0.1767857142857143,0.18392857142857144],[-0.18125,0.18839285714285714],[-0.18125,0.18839285714285714]],[[-0.0035714285714285713,-0.1982142857142857],[-0.0035714285714285713,-0.1982142857142857],[-0.0035714285714285713,-0.1982142857142857],[-0.0035714285714285713,-0.1982142857142857],[-0.0035714285714285713,-0.1982142857142857],[-0.0035714285714285713,-0.1982142857142857],[-0.0035714285714285713,-0.1982142857142857],[-0.0035714285714285713,-0.1982142857142857],[-0.0035714285714285713,-0.1982142857142857],[-0.0035714285714285713,-0.1982142857142857],[-0.0035714285714285713,-0.19732142857142856],[-0.0035714285714285713,-0.19375],[-0.0026785714285714286,-0.18928571428571428],[-0.0008928571428571428,-0.18214285714285713],[0.0026785714285714286,-0.175],[0.007142857142857143,-0.16517857142857142],[0.015178571428571428,-0.14464285714285716],[0.023214285714285715,-0.12946428571428573],[0.02857142857142857,-0.11964285714285715],[0.03660714285714286,-0.10625],[0.04285714285714286,-0.09464285714285714],[0.048214285714285716,-0.08660714285714285],[0.05089285714285714,-0.08035714285714286],[0.054464285714285715,-0.07410714285714286],[0.05803571428571429,-0.06964285714285715],[0.06160714285714286,-0.06428571428571428],[0.06517857142857143,-0.059821428571428574],[0.06875,-0.055357142857142855],[0.07232142857142858,-0.05178571428571429],[0.07589285714285714,-0.04732142857142857],[0.07857142857142857,-0.04285714285714286],[0.08125,-0.038392857142857145],[0.08571428571428572,-0.03214285714285714],[0.08839285714285715,-0.025892857142857145],[0.09107142857142857,-0.02142857142857143],[0.09375,-0.01607142857142857],[0.09642857142857143,-0.010714285714285714],[0.09910714285714285,-0.00625],[0.10089285714285715,-0.0026785714285714286],[0.10357142857142858,0.0026785714285714286],[0.10625,0.008035714285714285],[0.10803571428571429,0.014285714285714285],[0.11071428571428571,0.020535714285714286],[0.11339285714285714,0.026785714285714284],[0.11517857142857142,0.033035714285714286],[0.11785714285714285,0.039285714285714285],[0.12053571428571429,0.044642857142857144],[0.12232142857142857,0.05178571428571429],[0.12678571428571428,0.06339285714285714],[0.12857142857142856,0.07142857142857142],[0.13035714285714287,0.07946428571428571],[0.13214285714285715,0.08839285714285715],[0.13392857142857142,0.09553571428571428],[0.13482142857142856,0.10357142857142858],[0.1375,0.11071428571428571],[0.1392857142857143,0.11875],[0.14107142857142857,0.12589285714285714],[0.1419642857142857,0.13125],[0.14285714285714285,0.13482142857142856],[0.14375,0.1392857142857143],[0.1455357142857143,0.14464285714285716],[0.14642857142857144,0.15],[0.14732142857142858,0.15357142857142858],[0.14821428571428572,0.15625],[0.14821428571428572,0.15892857142857142],[0.14910714285714285,0.16071428571428573],[0.14910714285714285,0.1625],[0.15,0.16339285714285715],[0.15089285714285713,0.16428571428571428],[0.15089285714285713,0.16428571428571428],[0.15178571428571427,0.16517857142857142],[0.15357142857142858,0.16607142857142856],[0.15446428571428572,0.16607142857142856],[0.15625,0.16607142857142856],[0.15803571428571428,0.1669642857142857],[0.15892857142857142,0.1669642857142857],[0.15892857142857142,0.16785714285714284],[0.15982142857142856,0.16785714285714284],[0.16071428571428573,0.16964285714285715],[0.16160714285714287,0.16964285714285715],[0.1625,0.1705357142857143],[0.16339285714285715,0.17142857142857143],[0.16428571428571428,0.17232142857142857],[0.16517857142857142,0.17232142857142857],[0.16607142857142856,0.1732142857142857],[0.1669642857142857,0.1732142857142857],[0.16785714285714284,0.17410714285714285],[0.16875,0.17410714285714285],[0.16964285714285715,0.175],[0.1705357142857143,0.175],[0.17232142857142857,0.17589285714285716],[0.17232142857142857,0.17589285714285716],[0.17410714285714285,0.1767857142857143],[0.17410714285714285,0.17767857142857144],[0.175,0.17767857142857144],[0.17589285714285716,0.17767857142857144],[0.17589285714285716,0.17767857142857144],[0.17946428571428572,0.17767857142857144]]]",2,"[62,98]",space,6.735,space,1.503,0,4,4,6,1,right_left_2.jpg,right_left_2_path.jpg,,,,,,,,,,,,,,,,
Image_List_2,,,,,,,,,,,,,,,,44225,2020-11-25_11h54.43.440,analogCatScenes,2020.1.3,MacIntel,60,"[1792,1120]","[[[0,-0.1982142857142857],[0,-0.1982142857142857],[0,-0.1982142857142857],[0,-0.1982142857142857],[0,-0.1982142857142857],[0,-0.1982142857142857],[0,-0.1982142857142857],[0,-0.1982142857142857],[0,-0.1982142857142857],[0,-0.1982142857142857],[-0.0017857142857142857,-0.1982142857142857],[-0.005357142857142857,-0.19642857142857142],[-0.010714285714285714,-0.19375],[-0.019642857142857142,-0.18928571428571428],[-0.023214285714285715,-0.18660714285714286],[-0.02857142857142857,-0.18482142857142858],[-0.033928571428571426,-0.18214285714285713],[-0.038392857142857145,-0.17946428571428572],[-0.044642857142857144,-0.17589285714285716],[-0.05,-0.1732142857142857],[-0.054464285714285715,-0.1705357142857143],[-0.05892857142857143,-0.16875],[-0.06428571428571428,-0.1669642857142857],[-0.07053571428571428,-0.16428571428571428],[-0.07678571428571429,-0.1625],[-0.08392857142857142,-0.16071428571428573],[-0.09107142857142857,-0.15892857142857142],[-0.09910714285714285,-0.15714285714285714],[-0.11339285714285714,-0.15535714285714286],[-0.12321428571428572,-0.15446428571428572],[-0.13303571428571428,-0.15357142857142858],[-0.14017857142857143,-0.15267857142857144],[-0.14732142857142858,-0.15089285714285713],[-0.15357142857142858,-0.15],[-0.15982142857142856,-0.14910714285714285],[-0.1669642857142857,-0.14821428571428572],[-0.17232142857142857,-0.14732142857142858],[-0.1767857142857143,-0.1455357142857143],[-0.18214285714285713,-0.1455357142857143],[-0.1875,-0.14375],[-0.19196428571428573,-0.14285714285714285],[-0.19732142857142856,-0.1419642857142857],[-0.20357142857142857,-0.14017857142857143],[-0.21071428571428572,-0.13839285714285715],[-0.21607142857142858,-0.13660714285714284],[-0.22053571428571428,-0.1357142857142857],[-0.22589285714285715,-0.13392857142857142],[-0.2294642857142857,-0.13303571428571428],[-0.2330357142857143,-0.13214285714285715],[-0.23839285714285716,-0.13035714285714287],[-0.24285714285714285,-0.12946428571428573],[-0.24821428571428572,-0.12767857142857142],[-0.25535714285714284,-0.12678571428571428],[-0.2642857142857143,-0.12589285714285714],[-0.2732142857142857,-0.12321428571428572],[-0.2794642857142857,-0.12142857142857143],[-0.28660714285714284,-0.11875],[-0.2910714285714286,-0.11517857142857142],[-0.29375,-0.11339285714285714],[-0.2955357142857143,-0.11071428571428571],[-0.29642857142857143,-0.10982142857142857],[-0.29642857142857143,-0.10892857142857143],[-0.29642857142857143,-0.10803571428571429],[-0.29642857142857143,-0.10803571428571429],[-0.29642857142857143,-0.10714285714285714],[-0.29642857142857143,-0.10714285714285714],[-0.29642857142857143,-0.10892857142857143],[-0.29642857142857143,-0.10982142857142857]],[[-0.0026785714285714286,-0.19732142857142856],[-0.0026785714285714286,-0.19732142857142856],[-0.0026785714285714286,-0.19732142857142856],[-0.0026785714285714286,-0.19732142857142856],[-0.0026785714285714286,-0.19732142857142856],[-0.0026785714285714286,-0.19732142857142856],[-0.0026785714285714286,-0.19732142857142856],[-0.0026785714285714286,-0.19732142857142856],[-0.0026785714285714286,-0.19732142857142856],[-0.0026785714285714286,-0.19732142857142856],[-0.0026785714285714286,-0.19732142857142856],[-0.0026785714285714286,-0.19642857142857142],[-0.0026785714285714286,-0.19464285714285715],[-0.0026785714285714286,-0.19017857142857142],[-0.0008928571428571428,-0.18482142857142858],[0,-0.18125],[0.0008928571428571428,-0.1767857142857143],[0.0026785714285714286,-0.17142857142857143],[0.0035714285714285713,-0.16785714285714284],[0.00625,-0.16339285714285715],[0.008035714285714285,-0.15803571428571428],[0.009821428571428571,-0.15446428571428572],[0.011607142857142858,-0.15],[0.013392857142857142,-0.1455357142857143],[0.015178571428571428,-0.1419642857142857],[0.016964285714285713,-0.13839285714285715],[0.019642857142857142,-0.13303571428571428],[0.020535714285714286,-0.13035714285714287],[0.02142857142857143,-0.12767857142857142],[0.023214285714285715,-0.12410714285714286],[0.024107142857142858,-0.12053571428571429],[0.025,-0.11785714285714285],[0.025892857142857145,-0.11428571428571428],[0.026785714285714284,-0.10982142857142857],[0.027678571428571427,-0.10357142857142858],[0.02857142857142857,-0.09821428571428571],[0.02857142857142857,-0.09196428571428572],[0.029464285714285714,-0.0875],[0.030357142857142857,-0.08214285714285714],[0.030357142857142857,-0.07946428571428571],[0.030357142857142857,-0.07678571428571429],[0.030357142857142857,-0.07410714285714286],[0.030357142857142857,-0.07053571428571428],[0.030357142857142857,-0.06785714285714285],[0.030357142857142857,-0.06607142857142857],[0.030357142857142857,-0.06339285714285714],[0.030357142857142857,-0.06160714285714286],[0.030357142857142857,-0.059821428571428574],[0.030357142857142857,-0.05892857142857143],[0.030357142857142857,-0.05803571428571429],[0.030357142857142857,-0.05714285714285714],[0.030357142857142857,-0.05625],[0.030357142857142857,-0.055357142857142855],[0.030357142857142857,-0.054464285714285715],[0.030357142857142857,-0.05357142857142857],[0.030357142857142857,-0.05178571428571429],[0.030357142857142857,-0.05],[0.030357142857142857,-0.05],[0.030357142857142857,-0.049107142857142856]],[[0,-0.19910714285714284],[0,-0.19910714285714284],[0,-0.19910714285714284],[0,-0.19910714285714284],[0,-0.19910714285714284],[0,-0.19910714285714284],[0,-0.19910714285714284],[0,-0.19910714285714284],[0,-0.19910714285714284],[0,-0.1982142857142857],[0,-0.19642857142857142],[0,-0.19464285714285715],[0,-0.19196428571428573],[0.0008928571428571428,-0.19017857142857142],[0.004464285714285714,-0.18571428571428572],[0.008928571428571428,-0.18125],[0.013392857142857142,-0.1767857142857143],[0.024107142857142858,-0.16785714285714284],[0.030357142857142857,-0.1625],[0.03571428571428571,-0.15892857142857142],[0.04196428571428571,-0.15535714285714286],[0.04642857142857143,-0.15178571428571427],[0.049107142857142856,-0.15],[0.05178571428571429,-0.14732142857142858],[0.055357142857142855,-0.14464285714285716],[0.059821428571428574,-0.1419642857142857],[0.06607142857142857,-0.13839285714285715],[0.06964285714285715,-0.1357142857142857],[0.07410714285714286,-0.13214285714285715],[0.08035714285714286,-0.12857142857142856],[0.08214285714285714,-0.12767857142857142],[0.0875,-0.12410714285714286],[0.09196428571428572,-0.12053571428571429],[0.09553571428571428,-0.11785714285714285],[0.1,-0.11428571428571428],[0.10267857142857142,-0.11160714285714286],[0.10625,-0.10803571428571429],[0.10892857142857143,-0.10535714285714286],[0.11071428571428571,-0.10357142857142858],[0.1125,-0.10178571428571428],[0.11428571428571428,-0.1],[0.11607142857142858,-0.09821428571428571],[0.11875,-0.09553571428571428],[0.12142857142857143,-0.09464285714285714],[0.12410714285714286,-0.09285714285714286],[0.12678571428571428,-0.09107142857142857],[0.13214285714285715,-0.0875],[0.13392857142857142,-0.08571428571428572],[0.1375,-0.08482142857142858],[0.14107142857142857,-0.08214285714285714],[0.1455357142857143,-0.08125],[0.14910714285714285,-0.08035714285714286],[0.15267857142857144,-0.07857142857142857],[0.15625,-0.07767857142857143],[0.15892857142857142,-0.07589285714285714],[0.16071428571428573,-0.07410714285714286],[0.1625,-0.07321428571428572],[0.16607142857142856,-0.07053571428571428],[0.16875,-0.06875]]]",3,"[68,59,59]",space,11.122,space,0.518,0,5,5,3,1,ahead_right_left_2.jpg,ahead_right_left_2_path.jpg,,,,,,,,,,,,,,,,
Image_List_2,,,,,,,,,,,,,,,,44225,2020-11-25_11h54.43.440,analogCatScenes,2020.1.3,MacIntel,60,"[1792,1120]","[[[-0.0017857142857142857,-0.19553571428571428],[-0.0017857142857142857,-0.19553571428571428],[-0.0017857142857142857,-0.19553571428571428],[-0.0017857142857142857,-0.19553571428571428],[-0.0017857142857142857,-0.19553571428571428],[-0.0017857142857142857,-0.19553571428571428],[-0.0017857142857142857,-0.19553571428571428],[-0.0017857142857142857,-0.19553571428571428],[-0.0017857142857142857,-0.19553571428571428],[-0.0017857142857142857,-0.19553571428571428],[-0.0017857142857142857,-0.19553571428571428],[-0.0017857142857142857,-0.19553571428571428],[-0.0017857142857142857,-0.19553571428571428],[-0.0017857142857142857,-0.19464285714285715],[-0.0017857142857142857,-0.18482142857142858],[-0.0017857142857142857,-0.17589285714285716],[-0.0017857142857142857,-0.16339285714285715],[-0.0017857142857142857,-0.15625],[-0.0026785714285714286,-0.14642857142857144],[-0.004464285714285714,-0.13839285714285715],[-0.00625,-0.12946428571428573],[-0.009821428571428571,-0.11785714285714285],[-0.0125,-0.10625],[-0.01607142857142857,-0.09464285714285714],[-0.01875,-0.08214285714285714],[-0.023214285714285715,-0.07053571428571428],[-0.026785714285714284,-0.060714285714285714],[-0.03125,-0.049107142857142856],[-0.03571428571428571,-0.038392857142857145],[-0.04285714285714286,-0.025892857142857145],[-0.048214285714285716,-0.01875],[-0.054464285714285715,-0.011607142857142858],[-0.060714285714285714,-0.0035714285714285713],[-0.06696428571428571,0.0026785714285714286],[-0.07232142857142858,0.008928571428571428],[-0.07767857142857143,0.014285714285714285],[-0.08125,0.019642857142857142],[-0.08660714285714285,0.024107142857142858],[-0.09017857142857143,0.027678571428571427],[-0.09464285714285714,0.03125],[-0.09821428571428571,0.03482142857142857],[-0.10089285714285715,0.038392857142857145],[-0.10357142857142858,0.04017857142857143],[-0.10625,0.04285714285714286],[-0.10982142857142857,0.045535714285714284],[-0.11339285714285714,0.048214285714285716],[-0.11964285714285715,0.05267857142857143],[-0.12410714285714286,0.05625],[-0.12767857142857142,0.05803571428571429],[-0.13125,0.06160714285714286],[-0.13392857142857142,0.06339285714285714],[-0.13660714285714284,0.06517857142857143],[-0.14107142857142857,0.06785714285714285],[-0.14375,0.07053571428571428],[-0.14910714285714285,0.07232142857142858],[-0.15357142857142858,0.075],[-0.15892857142857142,0.07857142857142857],[-0.16339285714285715,0.08214285714285714],[-0.16785714285714284,0.08571428571428572],[-0.17232142857142857,0.08839285714285715],[-0.17946428571428572,0.09375],[-0.18482142857142858,0.09642857142857143],[-0.18928571428571428,0.1],[-0.19375,0.10178571428571428],[-0.1982142857142857,0.10446428571428572],[-0.20267857142857143,0.10714285714285714],[-0.20892857142857144,0.10982142857142857],[-0.21339285714285713,0.11160714285714286],[-0.21696428571428572,0.11339285714285714],[-0.22142857142857142,0.11696428571428572],[-0.225,0.11964285714285715],[-0.22767857142857142,0.12232142857142857],[-0.23035714285714284,0.12321428571428572],[-0.23214285714285715,0.12410714285714286],[-0.2330357142857143,0.12410714285714286]]]",1,[75],space,6.106,space,0.612,0,6,6,4,1,left_2.jpg,left_2_path.jpg,,,,,,,,,,,,,,,,
Image_List_2,,,,,,,,,,,,,,,,44225,2020-11-25_11h54.43.440,analogCatScenes,2020.1.3,MacIntel,60,"[1792,1120]","[[[0.0017857142857142857,-0.19910714285714284],[0.0017857142857142857,-0.19910714285714284],[0.0017857142857142857,-0.19910714285714284],[0.0017857142857142857,-0.19910714285714284],[0.0017857142857142857,-0.19910714285714284],[0.0017857142857142857,-0.19910714285714284],[0.0017857142857142857,-0.19910714285714284],[0.0017857142857142857,-0.19910714285714284],[0.0017857142857142857,-0.19910714285714284],[0.0017857142857142857,-0.19910714285714284],[0.0017857142857142857,-0.19910714285714284],[0.0017857142857142857,-0.19642857142857142],[0.0017857142857142857,-0.19017857142857142],[0.0017857142857142857,-0.18571428571428572],[0.0017857142857142857,-0.18125],[0.0017857142857142857,-0.17857142857142858],[0.0017857142857142857,-0.1767857142857143],[0.0026785714285714286,-0.1767857142857143],[0.0026785714285714286,-0.17589285714285716],[0.004464285714285714,-0.175],[0.005357142857142857,-0.1732142857142857],[0.007142857142857143,-0.17142857142857143],[0.009821428571428571,-0.16785714285714284],[0.011607142857142858,-0.16428571428571428],[0.013392857142857142,-0.15982142857142856],[0.016964285714285713,-0.15446428571428572],[0.019642857142857142,-0.15],[0.023214285714285715,-0.14375],[0.026785714285714284,-0.1375],[0.030357142857142857,-0.13392857142857142],[0.03214285714285714,-0.13125],[0.033928571428571426,-0.12857142857142856],[0.03482142857142857,-0.12767857142857142],[0.03571428571428571,-0.12589285714285714],[0.038392857142857145,-0.12321428571428572],[0.04196428571428571,-0.11785714285714285],[0.04375,-0.11428571428571428],[0.045535714285714284,-0.1125],[0.04732142857142857,-0.10982142857142857],[0.048214285714285716,-0.10892857142857143],[0.049107142857142856,-0.10803571428571429],[0.05,-0.10714285714285714],[0.05089285714285714,-0.10625],[0.05357142857142857,-0.10446428571428572],[0.05625,-0.10178571428571428],[0.05892857142857143,-0.09910714285714285],[0.06160714285714286,-0.09642857142857143],[0.0625,-0.09642857142857143],[0.0625,-0.09642857142857143]]]",1,[49],,,,,,,,,,,,space,3.526,diningroom1.jpg,space,2.624,0,0,0,33,1,deck1.jpg,courthouse2.jpg,diner10.jpg,cabinIndoors5.jpg,,
Image_List_2,,,,,,,,,,,,,,,,44225,2020-11-25_11h54.43.440,analogCatScenes,2020.1.3,MacIntel,60,"[1792,1120]","[[[0.0008928571428571428,-0.1982142857142857],[0.0008928571428571428,-0.1982142857142857],[0.0008928571428571428,-0.1982142857142857],[0.0008928571428571428,-0.1982142857142857],[0.0008928571428571428,-0.1982142857142857],[0.0008928571428571428,-0.1982142857142857],[0.0008928571428571428,-0.1982142857142857],[0.0008928571428571428,-0.1982142857142857],[0.0008928571428571428,-0.1982142857142857],[0.0008928571428571428,-0.1982142857142857],[0.0008928571428571428,-0.1982142857142857],[0.0008928571428571428,-0.1982142857142857],[0.0008928571428571428,-0.1982142857142857],[0.0035714285714285713,-0.1982142857142857],[0.008035714285714285,-0.19553571428571428],[0.01607142857142857,-0.19107142857142856],[0.02857142857142857,-0.18482142857142858],[0.04017857142857143,-0.17946428571428572],[0.05357142857142857,-0.17232142857142857],[0.06785714285714285,-0.16607142857142856],[0.07946428571428571,-0.16071428571428573],[0.09285714285714286,-0.15535714285714286],[0.1,-0.15178571428571427],[0.10803571428571429,-0.14910714285714285],[0.11607142857142858,-0.14464285714285716],[0.125,-0.14017857142857143],[0.13303571428571428,-0.1357142857142857],[0.13839285714285715,-0.13303571428571428],[0.14285714285714285,-0.13035714285714287],[0.14910714285714285,-0.12678571428571428],[0.15267857142857144,-0.12410714285714286],[0.15803571428571428,-0.12053571428571429],[0.1625,-0.11696428571428572],[0.1669642857142857,-0.11339285714285714],[0.17232142857142857,-0.10803571428571429],[0.1767857142857143,-0.10357142857142858],[0.18035714285714285,-0.09910714285714285],[0.18660714285714286,-0.09107142857142857],[0.19017857142857142,-0.08660714285714285],[0.19285714285714287,-0.08125],[0.19375,-0.07589285714285714],[0.19553571428571428,-0.07142857142857142],[0.19642857142857142,-0.06607142857142857],[0.19732142857142856,-0.0625],[0.1982142857142857,-0.05892857142857143],[0.19910714285714284,-0.054464285714285715],[0.20089285714285715,-0.05089285714285714],[0.2017857142857143,-0.048214285714285716],[0.20357142857142857,-0.04375],[0.2044642857142857,-0.04017857142857143],[0.20625,-0.03571428571428571],[0.2080357142857143,-0.03214285714285714],[0.20982142857142858,-0.029464285714285714],[0.21160714285714285,-0.024107142857142858],[0.21339285714285713,-0.02142857142857143],[0.21428571428571427,-0.01875],[0.21607142857142858,-0.01607142857142857],[0.21696428571428572,-0.013392857142857142],[0.21696428571428572,-0.011607142857142858],[0.21785714285714286,-0.008928571428571428],[0.21875,-0.005357142857142857],[0.21964285714285714,-0.0008928571428571428],[0.22053571428571428,0.0026785714285714286],[0.22142857142857142,0.007142857142857143],[0.22232142857142856,0.009821428571428571],[0.22232142857142856,0.0125],[0.22321428571428573,0.014285714285714285],[0.22410714285714287,0.01607142857142857],[0.22410714285714287,0.01607142857142857],[0.225,0.01607142857142857]]]",1,[70],,,,,,,,,,,,,,hardwarestore1.jpg,space,3.551,0,1,1,52,1,gasstation7.jpg,frontFoyer6.jpg,highway.jpg,forestpath2.jpg,,
Image_List_2,,,,,,,,,,,,,,,,44225,2020-11-25_11h54.43.440,analogCatScenes,2020.1.3,MacIntel,60,"[1792,1120]","[[[0.0035714285714285713,-0.2],[0.0035714285714285713,-0.2],[0.0035714285714285713,-0.2],[0.0035714285714285713,-0.2],[0.0035714285714285713,-0.2],[0.0035714285714285713,-0.2],[0.0035714285714285713,-0.2],[0.0035714285714285713,-0.2],[0.004464285714285714,-0.2],[0.008035714285714285,-0.2],[0.009821428571428571,-0.2],[0.017857142857142856,-0.19910714285714284],[0.026785714285714284,-0.19732142857142856],[0.03571428571428571,-0.19642857142857142],[0.04642857142857143,-0.19375],[0.05803571428571429,-0.19196428571428573],[0.06428571428571428,-0.19107142857142856],[0.07053571428571428,-0.18928571428571428],[0.07589285714285714,-0.1875],[0.07946428571428571,-0.18571428571428572],[0.08214285714285714,-0.18392857142857144],[0.08482142857142858,-0.18303571428571427],[0.08928571428571429,-0.18125],[0.09196428571428572,-0.17857142857142858],[0.09732142857142857,-0.17589285714285716],[0.10089285714285715,-0.17410714285714285],[0.10357142857142858,-0.17142857142857143],[0.10714285714285714,-0.16875],[0.10982142857142857,-0.1669642857142857],[0.1125,-0.16517857142857142],[0.11517857142857142,-0.16339285714285715],[0.11964285714285715,-0.16160714285714287],[0.12232142857142857,-0.15982142857142856],[0.12589285714285714,-0.15714285714285714],[0.13035714285714287,-0.15535714285714286],[0.13392857142857142,-0.15357142857142858],[0.13660714285714284,-0.15178571428571427],[0.14017857142857143,-0.15089285714285713],[0.1455357142857143,-0.14821428571428572],[0.15,-0.14642857142857144],[0.15357142857142858,-0.14464285714285716],[0.15803571428571428,-0.14285714285714285],[0.16071428571428573,-0.14107142857142857],[0.16339285714285715,-0.14017857142857143],[0.16517857142857142,-0.13839285714285715],[0.1669642857142857,-0.1375],[0.16875,-0.13660714285714284],[0.16964285714285715,-0.1357142857142857],[0.1705357142857143,-0.13482142857142856],[0.17232142857142857,-0.13303571428571428],[0.17410714285714285,-0.13214285714285715],[0.1767857142857143,-0.13035714285714287],[0.17946428571428572,-0.12857142857142856],[0.18125,-0.12678571428571428],[0.18392857142857144,-0.125],[0.18660714285714286,-0.12142857142857143],[0.18928571428571428,-0.11875],[0.19107142857142856,-0.11696428571428572],[0.19196428571428573,-0.11517857142857142],[0.19375,-0.1125],[0.19464285714285715,-0.11071428571428571],[0.19464285714285715,-0.10803571428571429],[0.19553571428571428,-0.10535714285714286],[0.19642857142857142,-0.10178571428571428],[0.19642857142857142,-0.09910714285714285],[0.19642857142857142,-0.09642857142857143],[0.19642857142857142,-0.09375],[0.19642857142857142,-0.09107142857142857],[0.19642857142857142,-0.0875],[0.19642857142857142,-0.08482142857142858],[0.19642857142857142,-0.08214285714285714],[0.19553571428571428,-0.08125]],[[-0.0008928571428571428,-0.20089285714285715],[-0.0008928571428571428,-0.20089285714285715],[-0.0008928571428571428,-0.20089285714285715],[-0.0008928571428571428,-0.20089285714285715],[-0.0008928571428571428,-0.20089285714285715],[-0.0017857142857142857,-0.20089285714285715],[-0.0026785714285714286,-0.20089285714285715],[-0.0026785714285714286,-0.20089285714285715],[-0.0035714285714285713,-0.20089285714285715],[-0.005357142857142857,-0.20089285714285715],[-0.00625,-0.20089285714285715],[-0.008035714285714285,-0.2],[-0.008928571428571428,-0.2],[-0.011607142857142858,-0.19910714285714284],[-0.014285714285714285,-0.19732142857142856],[-0.017857142857142856,-0.19553571428571428],[-0.023214285714285715,-0.19285714285714287],[-0.033035714285714286,-0.18928571428571428],[-0.04375,-0.18482142857142858],[-0.054464285714285715,-0.18125],[-0.06607142857142857,-0.1767857142857143],[-0.08125,-0.17142857142857143],[-0.0875,-0.16964285714285715],[-0.09375,-0.16785714285714284],[-0.09821428571428571,-0.16607142857142856],[-0.10267857142857142,-0.16428571428571428],[-0.10535714285714286,-0.16339285714285715],[-0.10803571428571429,-0.1625],[-0.10982142857142857,-0.16160714285714287],[-0.1125,-0.16071428571428573],[-0.11428571428571428,-0.15982142857142856],[-0.11607142857142858,-0.15982142857142856],[-0.11785714285714285,-0.15892857142857142],[-0.11964285714285715,-0.15892857142857142],[-0.12142857142857143,-0.15803571428571428],[-0.12410714285714286,-0.15803571428571428],[-0.12589285714285714,-0.15714285714285714],[-0.13035714285714287,-0.15714285714285714],[-0.13392857142857142,-0.15714285714285714],[-0.13660714285714284,-0.15625],[-0.14017857142857143,-0.15625],[-0.14285714285714285,-0.15625],[-0.1455357142857143,-0.15625],[-0.14732142857142858,-0.15625],[-0.15,-0.15535714285714286],[-0.15089285714285713,-0.15535714285714286],[-0.15267857142857144,-0.15535714285714286],[-0.15446428571428572,-0.15535714285714286],[-0.15625,-0.15535714285714286],[-0.15803571428571428,-0.15535714285714286],[-0.15982142857142856,-0.15535714285714286],[-0.1625,-0.15535714285714286],[-0.16428571428571428,-0.15535714285714286],[-0.16607142857142856,-0.15535714285714286],[-0.1669642857142857,-0.15535714285714286],[-0.16875,-0.15535714285714286],[-0.1705357142857143,-0.15446428571428572],[-0.1732142857142857,-0.15446428571428572],[-0.175,-0.15446428571428572],[-0.17857142857142858,-0.15357142857142858],[-0.18303571428571427,-0.15357142857142858],[-0.18571428571428572,-0.15267857142857144],[-0.18928571428571428,-0.15267857142857144],[-0.19196428571428573,-0.15178571428571427],[-0.19464285714285715,-0.15178571428571427],[-0.19732142857142856,-0.15089285714285713],[-0.2,-0.15089285714285713],[-0.2044642857142857,-0.15089285714285713],[-0.20714285714285716,-0.15],[-0.21071428571428572,-0.15],[-0.21339285714285713,-0.15],[-0.21696428571428572,-0.15],[-0.21964285714285714,-0.15],[-0.22321428571428573,-0.15],[-0.22589285714285715,-0.15],[-0.22857142857142856,-0.15],[-0.23125,-0.15],[-0.23660714285714285,-0.15],[-0.24196428571428572,-0.15],[-0.24732142857142858,-0.15],[-0.2517857142857143,-0.15],[-0.26339285714285715,-0.15],[-0.26875,-0.14910714285714285],[-0.2767857142857143,-0.14732142857142858],[-0.2794642857142857,-0.14642857142857144],[-0.28125,-0.1455357142857143],[-0.28214285714285714,-0.1455357142857143],[-0.2830357142857143,-0.1455357142857143],[-0.2830357142857143,-0.1455357142857143],[-0.2830357142857143,-0.1455357142857143],[-0.2839285714285714,-0.14732142857142858]],[[0.0017857142857142857,-0.2],[0.0017857142857142857,-0.2],[0.0017857142857142857,-0.2],[0.0017857142857142857,-0.2],[0.0017857142857142857,-0.2],[0.0017857142857142857,-0.2],[0.0017857142857142857,-0.2],[0.0017857142857142857,-0.2],[0.0026785714285714286,-0.2],[0.004464285714285714,-0.2],[0.00625,-0.2],[0.013392857142857142,-0.2],[0.016964285714285713,-0.2],[0.02142857142857143,-0.2],[0.027678571428571427,-0.2],[0.03482142857142857,-0.2],[0.04196428571428571,-0.2],[0.048214285714285716,-0.2],[0.055357142857142855,-0.2],[0.06339285714285714,-0.1982142857142857],[0.07142857142857142,-0.19732142857142856],[0.07946428571428571,-0.19553571428571428],[0.08660714285714285,-0.19375],[0.09285714285714286,-0.19285714285714287],[0.09732142857142857,-0.19196428571428573],[0.10267857142857142,-0.19196428571428573],[0.10714285714285714,-0.19107142857142856],[0.1125,-0.19107142857142856],[0.11696428571428572,-0.19017857142857142],[0.12142857142857143,-0.18928571428571428],[0.125,-0.18839285714285714],[0.12946428571428573,-0.18839285714285714],[0.13303571428571428,-0.1875],[0.1375,-0.18571428571428572],[0.14107142857142857,-0.18571428571428572],[0.1455357142857143,-0.18482142857142858],[0.14910714285714285,-0.18482142857142858],[0.15267857142857144,-0.18392857142857144],[0.15714285714285714,-0.18392857142857144],[0.16160714285714287,-0.18392857142857144],[0.1669642857142857,-0.18303571428571427],[0.1705357142857143,-0.18303571428571427],[0.175,-0.18303571428571427],[0.17946428571428572,-0.18303571428571427],[0.18482142857142858,-0.18303571428571427],[0.18928571428571428,-0.18214285714285713],[0.19375,-0.18214285714285713],[0.1982142857142857,-0.18125],[0.20267857142857143,-0.18125],[0.2080357142857143,-0.18125],[0.21339285714285713,-0.18035714285714285],[0.21785714285714286,-0.18035714285714285],[0.22410714285714287,-0.18035714285714285],[0.22857142857142856,-0.18035714285714285],[0.2330357142857143,-0.18035714285714285],[0.23660714285714285,-0.18035714285714285],[0.24107142857142858,-0.18035714285714285],[0.24553571428571427,-0.18035714285714285],[0.25,-0.18035714285714285],[0.2526785714285714,-0.18035714285714285],[0.25625,-0.18035714285714285],[0.2598214285714286,-0.18035714285714285],[0.26339285714285715,-0.18035714285714285],[0.26607142857142857,-0.18035714285714285],[0.26875,-0.18035714285714285],[0.2714285714285714,-0.18035714285714285],[0.275,-0.18035714285714285],[0.27767857142857144,-0.18035714285714285],[0.28125,-0.18035714285714285],[0.2839285714285714,-0.18035714285714285],[0.28660714285714284,-0.18035714285714285],[0.29642857142857143,-0.18035714285714285],[0.30178571428571427,-0.18035714285714285]]]",3,"[72,91,73]",,,,,,,,,,,,,,church6.jpg,space,7.746,0,2,2,22,1,bowlingalley5.jpg,cargo5.jpg,cemetery.jpg,bistrooutdoor6.jpg,,
Image_List_2,,,,,,,,,,,,,,,,44225,2020-11-25_11h54.43.440,analogCatScenes,2020.1.3,MacIntel,60,"[1792,1120]","[[[0,-0.2],[0,-0.2],[0,-0.2],[0,-0.2],[0,-0.2],[0,-0.2],[0,-0.2],[0,-0.2],[0,-0.2],[0,-0.19732142857142856],[0,-0.19375],[0,-0.18214285714285713],[0,-0.1732142857142857],[0,-0.16071428571428573],[0,-0.15446428571428572],[0,-0.14464285714285716],[0,-0.1375],[0,-0.12946428571428573],[0,-0.12232142857142857],[0,-0.11428571428571428],[0.0008928571428571428,-0.10446428571428572],[0.0017857142857142857,-0.1],[0.0017857142857142857,-0.09553571428571428],[0.0026785714285714286,-0.08839285714285715],[0.0026785714285714286,-0.08214285714285714],[0.0035714285714285713,-0.07410714285714286],[0.005357142857142857,-0.06696428571428571],[0.00625,-0.059821428571428574],[0.007142857142857143,-0.054464285714285715],[0.007142857142857143,-0.05089285714285714],[0.007142857142857143,-0.04642857142857143],[0.007142857142857143,-0.04107142857142857],[0.007142857142857143,-0.03482142857142857],[0.007142857142857143,-0.029464285714285714],[0.007142857142857143,-0.02142857142857143],[0.007142857142857143,-0.01875],[0.007142857142857143,-0.014285714285714285],[0.007142857142857143,-0.010714285714285714],[0.007142857142857143,-0.008035714285714285],[0.007142857142857143,-0.004464285714285714],[0.007142857142857143,-0.0008928571428571428],[0.00625,0.0035714285714285713],[0.00625,0.008035714285714285],[0.00625,0.013392857142857142],[0.00625,0.020535714285714286],[0.00625,0.027678571428571427],[0.007142857142857143,0.03482142857142857],[0.007142857142857143,0.039285714285714285],[0.008928571428571428,0.04196428571428571],[0.008928571428571428,0.04196428571428571]]]",1,[50],,,,,,,,,,,,,,warehouse2.jpg,space,2.692,0,3,3,95,1,waitingroom2.jpg,stripmall6.jpg,weightroom4.jpg,tvstudio3.jpg,,
Image_List_2,,,,,,,,,,,,,,,,44225,2020-11-25_11h54.43.440,analogCatScenes,2020.1.3,MacIntel,60,"[1792,1120]","[[[-0.00625,-0.2044642857142857],[-0.00625,-0.2044642857142857],[-0.00625,-0.2044642857142857],[-0.00625,-0.2044642857142857],[-0.00625,-0.2044642857142857],[-0.00625,-0.2044642857142857],[-0.00625,-0.2044642857142857],[-0.00625,-0.2044642857142857],[-0.00625,-0.2044642857142857],[-0.00625,-0.2044642857142857],[-0.0035714285714285713,-0.20267857142857143],[0.0008928571428571428,-0.2],[0.00625,-0.19642857142857142],[0.0125,-0.19285714285714287],[0.017857142857142856,-0.19017857142857142],[0.029464285714285714,-0.18303571428571427],[0.04196428571428571,-0.17410714285714285],[0.05178571428571429,-0.16875],[0.06339285714285714,-0.1625],[0.07410714285714286,-0.15535714285714286],[0.08214285714285714,-0.15089285714285713],[0.09107142857142857,-0.1455357142857143],[0.10089285714285715,-0.14017857142857143],[0.11160714285714286,-0.13482142857142856],[0.12142857142857143,-0.12946428571428573],[0.12767857142857142,-0.12678571428571428],[0.13482142857142856,-0.12321428571428572],[0.1419642857142857,-0.12053571428571429],[0.14642857142857144,-0.11875],[0.15178571428571427,-0.11607142857142858],[0.15625,-0.11339285714285714],[0.16339285714285715,-0.11071428571428571],[0.16875,-0.10714285714285714],[0.17410714285714285,-0.10446428571428572],[0.17946428571428572,-0.10089285714285715],[0.18660714285714286,-0.09642857142857143],[0.19642857142857142,-0.09107142857142857],[0.20625,-0.08571428571428572],[0.2125,-0.08214285714285714],[0.21875,-0.07857142857142857],[0.22321428571428573,-0.07589285714285714],[0.22589285714285715,-0.07410714285714286],[0.22857142857142856,-0.07321428571428572],[0.23214285714285715,-0.07142857142857142],[0.2357142857142857,-0.06964285714285715],[0.24017857142857144,-0.06607142857142857],[0.24642857142857144,-0.06160714285714286],[0.2517857142857143,-0.05803571428571429],[0.2598214285714286,-0.054464285714285715],[0.26607142857142857,-0.05089285714285714],[0.27053571428571427,-0.049107142857142856],[0.2741071428571429,-0.04732142857142857],[0.275,-0.04642857142857143],[0.2767857142857143,-0.045535714285714284],[0.2767857142857143,-0.044642857142857144],[0.27767857142857144,-0.04375],[0.27767857142857144,-0.04375],[0.2794642857142857,-0.04285714285714286],[0.28035714285714286,-0.04107142857142857],[0.28214285714285714,-0.04017857142857143],[0.2857142857142857,-0.0375],[0.2875,-0.03571428571428571],[0.2892857142857143,-0.033928571428571426],[0.2910714285714286,-0.033035714285714286],[0.29285714285714287,-0.03214285714285714],[0.29464285714285715,-0.030357142857142857],[0.29642857142857143,-0.029464285714285714],[0.2982142857142857,-0.02857142857142857],[0.3,-0.027678571428571427],[0.30178571428571427,-0.026785714285714284],[0.30357142857142855,-0.025],[0.3044642857142857,-0.024107142857142858],[0.30625,-0.023214285714285715],[0.3080357142857143,-0.022321428571428572],[0.3098214285714286,-0.02142857142857143],[0.3107142857142857,-0.020535714285714286],[0.3125,-0.01875],[0.3142857142857143,-0.017857142857142856],[0.3151785714285714,-0.017857142857142856],[0.31607142857142856,-0.01607142857142857],[0.31785714285714284,-0.01607142857142857],[0.31875,-0.015178571428571428],[0.3205357142857143,-0.013392857142857142],[0.32142857142857145,-0.0125],[0.32321428571428573,-0.011607142857142858],[0.325,-0.009821428571428571],[0.32767857142857143,-0.008928571428571428],[0.32857142857142857,-0.007142857142857143],[0.3294642857142857,-0.00625],[0.33035714285714285,-0.005357142857142857],[0.33125,-0.004464285714285714],[0.3339285714285714,-0.0035714285714285713]],[[0,-0.19464285714285715],[0,-0.19464285714285715],[0,-0.19464285714285715],[0,-0.19464285714285715],[0,-0.19464285714285715],[0,-0.19464285714285715],[0,-0.19464285714285715],[0,-0.19464285714285715],[0,-0.19464285714285715],[0,-0.19285714285714287],[0,-0.19107142857142856],[0,-0.18928571428571428],[0,-0.18660714285714286],[0,-0.18392857142857144],[0,-0.17857142857142858],[0.0026785714285714286,-0.1732142857142857],[0.005357142857142857,-0.16607142857142856],[0.007142857142857143,-0.15803571428571428],[0.008928571428571428,-0.15357142857142858],[0.010714285714285714,-0.14821428571428572],[0.011607142857142858,-0.14464285714285716],[0.0125,-0.14017857142857143],[0.014285714285714285,-0.13482142857142856],[0.01607142857142857,-0.12678571428571428],[0.01875,-0.11875],[0.020535714285714286,-0.11339285714285714],[0.02142857142857143,-0.10803571428571429],[0.022321428571428572,-0.10178571428571428],[0.023214285714285715,-0.09821428571428571],[0.025,-0.09464285714285714],[0.025892857142857145,-0.09107142857142857],[0.026785714285714284,-0.0875],[0.02857142857142857,-0.08392857142857142],[0.030357142857142857,-0.07946428571428571],[0.03125,-0.07678571428571429],[0.03214285714285714,-0.07410714285714286],[0.033035714285714286,-0.07142857142857142],[0.033035714285714286,-0.06875],[0.033035714285714286,-0.06607142857142857],[0.033035714285714286,-0.06339285714285714],[0.033035714285714286,-0.060714285714285714],[0.033035714285714286,-0.05803571428571429],[0.033035714285714286,-0.05357142857142857],[0.03214285714285714,-0.05089285714285714],[0.03125,-0.048214285714285716],[0.03125,-0.045535714285714284],[0.03125,-0.04285714285714286],[0.03125,-0.04107142857142857],[0.03125,-0.0375],[0.03125,-0.03214285714285714],[0.03214285714285714,-0.025892857142857145],[0.03214285714285714,-0.020535714285714286],[0.03214285714285714,-0.015178571428571428],[0.03214285714285714,-0.0125],[0.03214285714285714,-0.009821428571428571],[0.03214285714285714,-0.008035714285714285],[0.030357142857142857,-0.005357142857142857],[0.029464285714285714,-0.0035714285714285713],[0.02857142857142857,-0.0017857142857142857],[0.026785714285714284,0.0017857142857142857],[0.025892857142857145,0.0026785714285714286],[0.025,0.0026785714285714286],[0.025,0.0026785714285714286]]]",2,"[92,63]",,,,,,,,,,,,,,playground10.jpg,space,5.861,0,4,4,74,1,newsstand2.jpg,observatory4.jpeg,operatingroom1.jpg,lightingstore2.jpg,,
Image_List_2,,,,,,,,,,,,,,,,44225,2020-11-25_11h54.43.440,analogCatScenes,2020.1.3,MacIntel,60,"[1792,1120]","[[[-0.0026785714285714286,-0.20625],[-0.0026785714285714286,-0.20625],[-0.0026785714285714286,-0.20625],[-0.0026785714285714286,-0.20625],[-0.0026785714285714286,-0.20625],[-0.0026785714285714286,-0.20625],[-0.0026785714285714286,-0.20625],[-0.0026785714285714286,-0.20625],[-0.0026785714285714286,-0.20625],[-0.0026785714285714286,-0.20625],[-0.0026785714285714286,-0.20625],[-0.0026785714285714286,-0.20625],[-0.0026785714285714286,-0.20625],[-0.0026785714285714286,-0.20625],[-0.004464285714285714,-0.20625],[-0.007142857142857143,-0.2044642857142857],[-0.0125,-0.2017857142857143],[-0.01875,-0.19732142857142856],[-0.027678571428571427,-0.19285714285714287],[-0.03571428571428571,-0.1875],[-0.04375,-0.18303571428571427],[-0.05089285714285714,-0.17767857142857144],[-0.05625,-0.17410714285714285],[-0.06160714285714286,-0.1705357142857143],[-0.06696428571428571,-0.1669642857142857],[-0.07142857142857142,-0.16339285714285715],[-0.075,-0.16071428571428573],[-0.07946428571428571,-0.15714285714285714],[-0.08482142857142858,-0.15178571428571427],[-0.08571428571428572,-0.15089285714285713],[-0.09107142857142857,-0.1455357142857143],[-0.09464285714285714,-0.14107142857142857],[-0.09910714285714285,-0.1375],[-0.10357142857142858,-0.13214285714285715],[-0.10714285714285714,-0.12678571428571428],[-0.11071428571428571,-0.12142857142857143],[-0.11428571428571428,-0.11607142857142858],[-0.11696428571428572,-0.11071428571428571],[-0.11875,-0.10446428571428572],[-0.12053571428571429,-0.09821428571428571],[-0.12142857142857143,-0.09196428571428572],[-0.12410714285714286,-0.08571428571428572],[-0.12678571428571428,-0.07857142857142857],[-0.12946428571428573,-0.07232142857142858],[-0.13125,-0.06785714285714285],[-0.13392857142857142,-0.06339285714285714],[-0.1375,-0.05803571428571429],[-0.14017857142857143,-0.05625],[-0.1419642857142857,-0.054464285714285715],[-0.14285714285714285,-0.054464285714285715],[-0.14375,-0.054464285714285715],[-0.14375,-0.054464285714285715]],[[-0.0008928571428571428,-0.19732142857142856],[-0.0008928571428571428,-0.19732142857142856],[-0.0008928571428571428,-0.19732142857142856],[-0.0008928571428571428,-0.19732142857142856],[-0.0008928571428571428,-0.19732142857142856],[-0.0008928571428571428,-0.19732142857142856],[-0.0008928571428571428,-0.19732142857142856],[-0.0008928571428571428,-0.19732142857142856],[-0.0008928571428571428,-0.19732142857142856],[-0.0008928571428571428,-0.19732142857142856],[-0.0008928571428571428,-0.19642857142857142],[-0.0026785714285714286,-0.19375],[-0.005357142857142857,-0.18839285714285714],[-0.008928571428571428,-0.18214285714285713],[-0.0125,-0.17589285714285716],[-0.01607142857142857,-0.16964285714285715],[-0.016964285714285713,-0.1669642857142857],[-0.01875,-0.16160714285714287],[-0.020535714285714286,-0.15803571428571428],[-0.022321428571428572,-0.15446428571428572],[-0.023214285714285715,-0.15089285714285713],[-0.024107142857142858,-0.14910714285714285],[-0.025,-0.14732142857142858],[-0.025892857142857145,-0.14375],[-0.026785714285714284,-0.14107142857142857],[-0.02857142857142857,-0.13660714285714284],[-0.029464285714285714,-0.13214285714285715],[-0.03125,-0.12678571428571428],[-0.033035714285714286,-0.12142857142857143],[-0.03571428571428571,-0.11517857142857142],[-0.0375,-0.10267857142857142],[-0.039285714285714285,-0.09375],[-0.04017857142857143,-0.08392857142857142],[-0.04017857142857143,-0.07767857142857143],[-0.04017857142857143,-0.07142857142857142],[-0.04017857142857143,-0.06785714285714285],[-0.04017857142857143,-0.06696428571428571],[-0.04017857142857143,-0.06607142857142857],[-0.04017857142857143,-0.06607142857142857]],[[0.0017857142857142857,-0.2044642857142857],[0.0017857142857142857,-0.2044642857142857],[0.0017857142857142857,-0.2044642857142857],[0.0017857142857142857,-0.2044642857142857],[0.0017857142857142857,-0.2044642857142857],[0.0017857142857142857,-0.2044642857142857],[0.0017857142857142857,-0.2044642857142857],[0.0017857142857142857,-0.2044642857142857],[0.0017857142857142857,-0.2044642857142857],[0.0017857142857142857,-0.2044642857142857],[0.0026785714285714286,-0.20357142857142857],[0.00625,-0.20089285714285715],[0.014285714285714285,-0.19464285714285715],[0.027678571428571427,-0.18571428571428572],[0.038392857142857145,-0.17857142857142858],[0.049107142857142856,-0.17232142857142857],[0.05892857142857143,-0.1669642857142857],[0.06964285714285715,-0.16160714285714287],[0.07767857142857143,-0.15714285714285714],[0.08571428571428572,-0.15267857142857144],[0.09285714285714286,-0.14821428571428572],[0.09821428571428571,-0.14642857142857144],[0.10357142857142858,-0.14285714285714285],[0.10803571428571429,-0.14107142857142857],[0.11339285714285714,-0.13839285714285715],[0.11785714285714285,-0.13482142857142856],[0.12142857142857143,-0.13303571428571428],[0.125,-0.13035714285714287],[0.12767857142857142,-0.12678571428571428],[0.12946428571428573,-0.125],[0.13035714285714287,-0.12410714285714286],[0.13125,-0.12232142857142857],[0.13214285714285715,-0.12053571428571429],[0.13482142857142856,-0.11696428571428572],[0.13660714285714284,-0.11339285714285714],[0.13839285714285715,-0.10982142857142857],[0.14017857142857143,-0.10803571428571429],[0.14107142857142857,-0.10625],[0.1419642857142857,-0.10535714285714286],[0.1419642857142857,-0.10357142857142858],[0.14285714285714285,-0.10267857142857142],[0.14375,-0.10089285714285715],[0.1455357142857143,-0.1],[0.14732142857142858,-0.09732142857142857],[0.14821428571428572,-0.09553571428571428],[0.14910714285714285,-0.09464285714285714],[0.15089285714285713,-0.09196428571428572],[0.15357142857142858,-0.08928571428571429],[0.15625,-0.08482142857142858],[0.15892857142857142,-0.08214285714285714],[0.16160714285714287,-0.07767857142857143],[0.16428571428571428,-0.07410714285714286],[0.1669642857142857,-0.06875],[0.16964285714285715,-0.06428571428571428],[0.17232142857142857,-0.05892857142857143],[0.175,-0.05178571428571429],[0.17857142857142858,-0.04375],[0.18214285714285713,-0.03482142857142857],[0.18571428571428572,-0.025],[0.18928571428571428,-0.01607142857142857],[0.19285714285714287,-0.008928571428571428],[0.19642857142857142,-0.0026785714285714286],[0.19910714285714284,0.0026785714285714286]]]",3,"[52,39,63]",,,,,,,,,,,,,,diningroom5.jpg,space,7.474,0,5,5,34,1,deck4.jpg,courthouse4.jpg,diner11.jpg,campusquad1.jpg,,
Image_List_2,,,,,,,,,,,,,,,,44225,2020-11-25_11h54.43.440,analogCatScenes,2020.1.3,MacIntel,60,"[1792,1120]","[[[-0.0026785714285714286,-0.19910714285714284],[-0.0026785714285714286,-0.19910714285714284],[-0.0026785714285714286,-0.19910714285714284],[-0.0026785714285714286,-0.19910714285714284],[-0.0026785714285714286,-0.19910714285714284],[-0.0026785714285714286,-0.19910714285714284],[-0.0026785714285714286,-0.19910714285714284],[-0.0026785714285714286,-0.1982142857142857],[-0.0008928571428571428,-0.19642857142857142],[0,-0.19464285714285715],[0.0008928571428571428,-0.19285714285714287],[0.0035714285714285713,-0.18839285714285714],[0.008035714285714285,-0.17767857142857144],[0.015178571428571428,-0.1625],[0.03125,-0.12678571428571428],[0.04285714285714286,-0.10267857142857142],[0.054464285714285715,-0.07678571428571429],[0.06339285714285714,-0.054464285714285715],[0.06696428571428571,-0.04196428571428571],[0.07142857142857142,-0.030357142857142857],[0.07589285714285714,-0.020535714285714286],[0.07946428571428571,-0.010714285714285714],[0.08214285714285714,-0.0017857142857142857],[0.08571428571428572,0.008035714285714285],[0.09017857142857143,0.01875],[0.09464285714285714,0.029464285714285714],[0.09910714285714285,0.04107142857142857],[0.10089285714285715,0.048214285714285716],[0.10267857142857142,0.054464285714285715],[0.10357142857142858,0.05803571428571429],[0.10446428571428572,0.059821428571428574],[0.10446428571428572,0.060714285714285714],[0.10446428571428572,0.060714285714285714]]]",1,[33],,,,,,,,,,,,,,volleyballcourt.jpg,space,4.41,0,6,6,92,1,staircase.jpg,skatepark7.jpg,tvstudio2.jpg,soccerfield2.jpg,,
Image_List_2,,,,,,,,,,,,,,,,44225,2020-11-25_11h54.43.440,analogCatScenes,2020.1.3,MacIntel,60,"[1792,1120]","[[[0.0017857142857142857,-0.20267857142857143],[0.0017857142857142857,-0.20267857142857143],[0.0017857142857142857,-0.20267857142857143],[0.0017857142857142857,-0.20267857142857143],[0.0017857142857142857,-0.20267857142857143],[0.0017857142857142857,-0.2017857142857143],[0.0017857142857142857,-0.19910714285714284],[0.0017857142857142857,-0.19642857142857142],[0.0017857142857142857,-0.19375],[0.0026785714285714286,-0.19107142857142856],[0.0026785714285714286,-0.18660714285714286],[0.0035714285714285713,-0.18303571428571427],[0.0035714285714285713,-0.17767857142857144],[0.004464285714285714,-0.16875],[0.005357142857142857,-0.16071428571428573],[0.008035714285714285,-0.15],[0.011607142857142858,-0.13392857142857142],[0.0125,-0.12946428571428573],[0.014285714285714285,-0.12321428571428572],[0.01607142857142857,-0.11428571428571428],[0.016964285714285713,-0.10892857142857143],[0.017857142857142856,-0.10446428571428572],[0.019642857142857142,-0.09821428571428571],[0.02142857142857143,-0.09107142857142857],[0.023214285714285715,-0.08392857142857142],[0.024107142857142858,-0.07857142857142857],[0.025,-0.07321428571428572],[0.025892857142857145,-0.06964285714285715],[0.026785714285714284,-0.06696428571428571],[0.027678571428571427,-0.06339285714285714],[0.029464285714285714,-0.05892857142857143],[0.03214285714285714,-0.05357142857142857],[0.03482142857142857,-0.04732142857142857],[0.0375,-0.04107142857142857],[0.04107142857142857,-0.033928571428571426],[0.04285714285714286,-0.029464285714285714],[0.04375,-0.025892857142857145],[0.044642857142857144,-0.022321428571428572],[0.045535714285714284,-0.020535714285714286],[0.04642857142857143,-0.01875],[0.04732142857142857,-0.016964285714285713],[0.04732142857142857,-0.015178571428571428],[0.048214285714285716,-0.013392857142857142],[0.049107142857142856,-0.010714285714285714],[0.049107142857142856,-0.008928571428571428],[0.049107142857142856,-0.008035714285714285],[0.049107142857142856,-0.00625],[0.05,-0.005357142857142857],[0.05,-0.005357142857142857],[0.05,-0.005357142857142857],[0.05089285714285714,-0.005357142857142857],[0.05089285714285714,-0.005357142857142857]]]",1,[52],,,,,,,,,,,,,,elevatorOutside4.jpg,space,2.885,0,7,7,38,1,dining_car2.jpg,dock1.jpg,driveway8.jpg,classroom1.jpg,,
Image_List_2,,,,,,,,,,,,,,,,44225,2020-11-25_11h54.43.440,analogCatScenes,2020.1.3,MacIntel,60,"[1792,1120]","[[[0.0008928571428571428,-0.19553571428571428],[0.0008928571428571428,-0.19553571428571428],[0.0008928571428571428,-0.19553571428571428],[0.0008928571428571428,-0.19553571428571428],[0.0008928571428571428,-0.19553571428571428],[0.0008928571428571428,-0.19553571428571428],[0.0008928571428571428,-0.19553571428571428],[0.0008928571428571428,-0.19553571428571428],[0.0008928571428571428,-0.19553571428571428],[0.0008928571428571428,-0.19553571428571428],[0.0008928571428571428,-0.19553571428571428],[0.0008928571428571428,-0.19553571428571428],[0.0008928571428571428,-0.19553571428571428],[0.0008928571428571428,-0.19553571428571428],[0.0008928571428571428,-0.19553571428571428],[0.0008928571428571428,-0.19553571428571428],[0.0008928571428571428,-0.19553571428571428],[0.0008928571428571428,-0.19553571428571428],[0.0008928571428571428,-0.19553571428571428],[0.0008928571428571428,-0.19553571428571428],[0.0008928571428571428,-0.19464285714285715],[0.0008928571428571428,-0.19464285714285715],[0.0017857142857142857,-0.19464285714285715],[0.0017857142857142857,-0.19464285714285715],[0.0017857142857142857,-0.19464285714285715],[0.0026785714285714286,-0.19464285714285715],[0.004464285714285714,-0.19375],[0.008035714285714285,-0.19196428571428573],[0.014285714285714285,-0.18928571428571428],[0.022321428571428572,-0.18482142857142858],[0.03125,-0.18035714285714285],[0.04107142857142857,-0.17410714285714285],[0.05,-0.16875],[0.055357142857142855,-0.16607142857142856],[0.060714285714285714,-0.1625],[0.06428571428571428,-0.15892857142857142],[0.06785714285714285,-0.15625],[0.07232142857142858,-0.15267857142857144],[0.075,-0.15],[0.07767857142857143,-0.14732142857142858],[0.07946428571428571,-0.1455357142857143],[0.08035714285714286,-0.14464285714285716],[0.08125,-0.14285714285714285],[0.08214285714285714,-0.14107142857142857],[0.08303571428571428,-0.14017857142857143],[0.08392857142857142,-0.13660714285714284],[0.08482142857142858,-0.13482142857142856],[0.08660714285714285,-0.13125],[0.08839285714285715,-0.12767857142857142],[0.09017857142857143,-0.12321428571428572],[0.09196428571428572,-0.11964285714285715],[0.09464285714285714,-0.11428571428571428],[0.09642857142857143,-0.11071428571428571],[0.1,-0.10357142857142858],[0.10267857142857142,-0.09821428571428571],[0.10446428571428572,-0.09375],[0.10625,-0.09017857142857143],[0.10803571428571429,-0.08482142857142858],[0.10982142857142857,-0.08035714285714286],[0.11071428571428571,-0.075],[0.11160714285714286,-0.07053571428571428],[0.1125,-0.06517857142857143],[0.1125,-0.05892857142857143],[0.1125,-0.054464285714285715],[0.1125,-0.048214285714285716],[0.1125,-0.04017857142857143],[0.1125,-0.033035714285714286],[0.1125,-0.027678571428571427],[0.1125,-0.02142857142857143],[0.11160714285714286,-0.0125],[0.10982142857142857,-0.008035714285714285],[0.10803571428571429,-0.004464285714285714],[0.10446428571428572,0.0017857142857142857],[0.10267857142857142,0.007142857142857143],[0.10089285714285715,0.010714285714285714],[0.09821428571428571,0.015178571428571428],[0.09642857142857143,0.019642857142857142],[0.09553571428571428,0.023214285714285715],[0.09375,0.025892857142857145],[0.09196428571428572,0.030357142857142857],[0.09017857142857143,0.033035714285714286],[0.08839285714285715,0.03571428571428571],[0.08571428571428572,0.03660714285714286]],[[0.0035714285714285713,-0.20089285714285715],[0.0035714285714285713,-0.20089285714285715],[0.0035714285714285713,-0.20089285714285715],[0.0035714285714285713,-0.20089285714285715],[0.0035714285714285713,-0.20089285714285715],[0.0035714285714285713,-0.20089285714285715],[0.0035714285714285713,-0.20089285714285715],[0.004464285714285714,-0.20089285714285715],[0.00625,-0.20089285714285715],[0.008928571428571428,-0.20089285714285715],[0.01607142857142857,-0.20089285714285715],[0.022321428571428572,-0.20089285714285715],[0.030357142857142857,-0.20089285714285715],[0.04107142857142857,-0.1982142857142857],[0.05714285714285714,-0.19553571428571428],[0.07232142857142858,-0.19196428571428573],[0.08392857142857142,-0.19017857142857142],[0.09821428571428571,-0.18660714285714286],[0.11160714285714286,-0.18214285714285713],[0.12321428571428572,-0.17946428571428572],[0.13392857142857142,-0.1767857142857143],[0.14285714285714285,-0.175],[0.14821428571428572,-0.17410714285714285],[0.15357142857142858,-0.17410714285714285],[0.15982142857142856,-0.17410714285714285],[0.16339285714285715,-0.17410714285714285],[0.1669642857142857,-0.17410714285714285],[0.17232142857142857,-0.17410714285714285],[0.17857142857142858,-0.17410714285714285],[0.18392857142857144,-0.1732142857142857],[0.19107142857142856,-0.17142857142857143],[0.19732142857142856,-0.1705357142857143],[0.20357142857142857,-0.16875],[0.20982142857142858,-0.1669642857142857],[0.21696428571428572,-0.16517857142857142],[0.22321428571428573,-0.16428571428571428],[0.22678571428571428,-0.16339285714285715],[0.23214285714285715,-0.16339285714285715],[0.23482142857142857,-0.1625],[0.23660714285714285,-0.1625],[0.23839285714285716,-0.1625],[0.24196428571428572,-0.16160714285714287],[0.24464285714285713,-0.16160714285714287],[0.24821428571428572,-0.16071428571428573],[0.2526785714285714,-0.16071428571428573],[0.2571428571428571,-0.15892857142857142],[0.2642857142857143,-0.15625],[0.26875,-0.15357142857142858],[0.27232142857142855,-0.15178571428571427],[0.2732142857142857,-0.15089285714285713]]]",2,"[83,50]",,,,,,,,,,,,,,cafeteria5.jpg,space,4.94,0,8,8,15,1,bambooforest4.jpg,bleachers8.jpg,cabinIndoors.jpg,bar8.jpg,,
Image_List_2,,,,,,,,,,,,,,,,44225,2020-11-25_11h54.43.440,analogCatScenes,2020.1.3,MacIntel,60,"[1792,1120]","[[[0.0026785714285714286,-0.2],[0.0026785714285714286,-0.2],[0.0026785714285714286,-0.2],[0.0026785714285714286,-0.2],[0.0026785714285714286,-0.2],[0.0026785714285714286,-0.2],[0.0026785714285714286,-0.2],[0.0026785714285714286,-0.2],[0.0026785714285714286,-0.2],[0.004464285714285714,-0.2],[0.007142857142857143,-0.2],[0.009821428571428571,-0.1982142857142857],[0.0125,-0.19642857142857142],[0.01607142857142857,-0.19464285714285715],[0.022321428571428572,-0.18839285714285714],[0.030357142857142857,-0.18035714285714285],[0.044642857142857144,-0.16964285714285715],[0.06160714285714286,-0.15625],[0.07410714285714286,-0.14642857142857144],[0.08214285714285714,-0.1392857142857143],[0.08928571428571429,-0.13303571428571428],[0.09285714285714286,-0.12857142857142856],[0.09464285714285714,-0.12589285714285714],[0.09732142857142857,-0.12053571428571429],[0.1,-0.11607142857142858],[0.10267857142857142,-0.11071428571428571],[0.10446428571428572,-0.10714285714285714],[0.10625,-0.10267857142857142],[0.10803571428571429,-0.09821428571428571],[0.10982142857142857,-0.09375],[0.11160714285714286,-0.08928571428571429],[0.11339285714285714,-0.08303571428571428],[0.11607142857142858,-0.07946428571428571],[0.11785714285714285,-0.07410714285714286],[0.11964285714285715,-0.07142857142857142],[0.12053571428571429,-0.06875],[0.12142857142857143,-0.06696428571428571],[0.12142857142857143,-0.06607142857142857],[0.12142857142857143,-0.06339285714285714],[0.12142857142857143,-0.060714285714285714],[0.12142857142857143,-0.05714285714285714],[0.12142857142857143,-0.05267857142857143],[0.12142857142857143,-0.049107142857142856],[0.12142857142857143,-0.045535714285714284],[0.12142857142857143,-0.04196428571428571],[0.12142857142857143,-0.04017857142857143],[0.12142857142857143,-0.0375],[0.12142857142857143,-0.03660714285714286],[0.12053571428571429,-0.033928571428571426],[0.12053571428571429,-0.03214285714285714],[0.11964285714285715,-0.030357142857142857],[0.11964285714285715,-0.02857142857142857],[0.11964285714285715,-0.026785714285714284],[0.11964285714285715,-0.025],[0.11964285714285715,-0.024107142857142858],[0.11964285714285715,-0.024107142857142858]]]",1,[56],,,,,,,,,,,,,,hotelRoom3.jpg,space,2.614,0,9,9,55,1,greenmountains.jpg,gazebo5.jpg,hotelRoom7.jpg,frontLawn2.jpg,,
Image_List_2,,,,,,,,,,,,,,,,44225,2020-11-25_11h54.43.440,analogCatScenes,2020.1.3,MacIntel,60,"[1792,1120]","[[[-0.0008928571428571428,-0.19196428571428573],[-0.0008928571428571428,-0.19196428571428573],[-0.0008928571428571428,-0.19196428571428573],[-0.0008928571428571428,-0.19196428571428573],[-0.0008928571428571428,-0.19196428571428573],[-0.0008928571428571428,-0.19196428571428573],[-0.0008928571428571428,-0.19196428571428573],[-0.0008928571428571428,-0.19196428571428573],[-0.0008928571428571428,-0.19196428571428573],[-0.0008928571428571428,-0.19196428571428573],[-0.0008928571428571428,-0.19107142857142856],[-0.0008928571428571428,-0.19017857142857142],[-0.0008928571428571428,-0.18839285714285714],[-0.0008928571428571428,-0.1875],[-0.0008928571428571428,-0.18482142857142858],[-0.0017857142857142857,-0.18214285714285713],[-0.0035714285714285713,-0.17767857142857144],[-0.005357142857142857,-0.17410714285714285],[-0.008035714285714285,-0.1705357142857143],[-0.010714285714285714,-0.1669642857142857],[-0.011607142857142858,-0.16517857142857142],[-0.0125,-0.16339285714285715],[-0.013392857142857142,-0.16160714285714287],[-0.013392857142857142,-0.15982142857142856],[-0.014285714285714285,-0.15892857142857142],[-0.015178571428571428,-0.15714285714285714],[-0.015178571428571428,-0.15625],[-0.01607142857142857,-0.15625],[-0.01607142857142857,-0.15535714285714286],[-0.01607142857142857,-0.15535714285714286],[-0.01607142857142857,-0.15535714285714286],[-0.01607142857142857,-0.15535714285714286],[-0.01607142857142857,-0.15535714285714286],[-0.01607142857142857,-0.15535714285714286],[-0.01607142857142857,-0.15535714285714286],[-0.01607142857142857,-0.15535714285714286],[-0.01607142857142857,-0.15535714285714286],[-0.01607142857142857,-0.15535714285714286],[-0.01607142857142857,-0.15446428571428572],[-0.01607142857142857,-0.15446428571428572],[-0.01607142857142857,-0.15446428571428572],[-0.01607142857142857,-0.15446428571428572],[-0.01607142857142857,-0.15446428571428572],[-0.01607142857142857,-0.15446428571428572],[-0.01607142857142857,-0.15446428571428572],[-0.01607142857142857,-0.15446428571428572],[-0.01607142857142857,-0.15446428571428572],[-0.01607142857142857,-0.15446428571428572],[-0.01607142857142857,-0.15446428571428572],[-0.01607142857142857,-0.15446428571428572],[-0.01607142857142857,-0.15446428571428572],[-0.01607142857142857,-0.15446428571428572],[-0.01607142857142857,-0.15446428571428572],[-0.01607142857142857,-0.15446428571428572],[-0.01607142857142857,-0.15446428571428572],[-0.01607142857142857,-0.15446428571428572],[-0.01607142857142857,-0.15446428571428572],[-0.01607142857142857,-0.15446428571428572],[-0.01607142857142857,-0.15446428571428572],[-0.01607142857142857,-0.15446428571428572],[-0.01607142857142857,-0.15357142857142858],[-0.01607142857142857,-0.15357142857142858],[-0.01607142857142857,-0.15357142857142858],[-0.01607142857142857,-0.15357142857142858],[-0.016964285714285713,-0.15267857142857144],[-0.016964285714285713,-0.15267857142857144],[-0.017857142857142856,-0.15178571428571427],[-0.01875,-0.14910714285714285],[-0.020535714285714286,-0.14732142857142858],[-0.022321428571428572,-0.14375],[-0.024107142857142858,-0.1392857142857143],[-0.025892857142857145,-0.13660714285714284],[-0.027678571428571427,-0.13303571428571428],[-0.029464285714285714,-0.12946428571428573],[-0.030357142857142857,-0.12678571428571428],[-0.033035714285714286,-0.12410714285714286],[-0.03482142857142857,-0.12053571428571429],[-0.03660714285714286,-0.11696428571428572],[-0.039285714285714285,-0.1125],[-0.04196428571428571,-0.10714285714285714],[-0.044642857142857144,-0.1],[-0.045535714285714284,-0.08839285714285715],[-0.04642857142857143,-0.08035714285714286],[-0.04642857142857143,-0.07589285714285714],[-0.04732142857142857,-0.07053571428571428],[-0.048214285714285716,-0.06428571428571428],[-0.048214285714285716,-0.059821428571428574],[-0.049107142857142856,-0.055357142857142855],[-0.049107142857142856,-0.049107142857142856],[-0.049107142857142856,-0.04375],[-0.049107142857142856,-0.038392857142857145],[-0.049107142857142856,-0.033928571428571426],[-0.049107142857142856,-0.030357142857142857],[-0.049107142857142856,-0.02857142857142857],[-0.049107142857142856,-0.027678571428571427],[-0.049107142857142856,-0.027678571428571427],[-0.048214285714285716,-0.027678571428571427]],[[-0.0008928571428571428,-0.19375],[-0.0008928571428571428,-0.19375],[-0.0008928571428571428,-0.19375],[-0.0008928571428571428,-0.19375],[-0.0008928571428571428,-0.19375],[-0.0008928571428571428,-0.19375],[-0.0008928571428571428,-0.19375],[-0.0008928571428571428,-0.19375],[-0.0008928571428571428,-0.19375],[-0.0008928571428571428,-0.19375],[-0.0008928571428571428,-0.19375],[-0.0008928571428571428,-0.19375],[0,-0.19375],[0.0017857142857142857,-0.19285714285714287],[0.00625,-0.19017857142857142],[0.0125,-0.18482142857142858],[0.020535714285714286,-0.17767857142857144],[0.025,-0.1732142857142857],[0.03214285714285714,-0.16517857142857142],[0.033928571428571426,-0.1625],[0.03660714285714286,-0.15982142857142856],[0.038392857142857145,-0.15535714285714286],[0.04107142857142857,-0.15],[0.04375,-0.14375],[0.045535714285714284,-0.1392857142857143],[0.04732142857142857,-0.13482142857142856],[0.048214285714285716,-0.13125],[0.048214285714285716,-0.12857142857142856],[0.049107142857142856,-0.125],[0.049107142857142856,-0.12053571428571429],[0.05,-0.11517857142857142],[0.05,-0.10982142857142857],[0.05,-0.10535714285714286],[0.05,-0.10089285714285715],[0.05,-0.09464285714285714],[0.05,-0.09107142857142857],[0.05,-0.0875],[0.05089285714285714,-0.08392857142857142],[0.05089285714285714,-0.08125],[0.05089285714285714,-0.07857142857142857],[0.05089285714285714,-0.075],[0.05089285714285714,-0.07053571428571428],[0.05089285714285714,-0.06607142857142857],[0.05089285714285714,-0.0625],[0.05089285714285714,-0.05803571428571429],[0.05089285714285714,-0.054464285714285715],[0.049107142857142856,-0.05178571428571429],[0.048214285714285716,-0.049107142857142856],[0.048214285714285716,-0.04732142857142857],[0.048214285714285716,-0.04642857142857143],[0.04732142857142857,-0.04642857142857143],[0.04732142857142857,-0.04642857142857143],[0.04642857142857143,-0.04642857142857143]]]",2,"[97,53]",,,,,,,,,,,,,,trainStation1.jpg,space,5.165,0,10,10,90,1,savanna5.jpg,sidewalk1.jpg,stripmall3.jpg,shoestore4.jpg,,
Image_List_2,,,,,,,,,,,,,,,,44225,2020-11-25_11h54.43.440,analogCatScenes,2020.1.3,MacIntel,60,"[1792,1120]","[[[0.0035714285714285713,-0.20267857142857143],[0.0035714285714285713,-0.20267857142857143],[0.0035714285714285713,-0.20267857142857143],[0.0035714285714285713,-0.20267857142857143],[0.0035714285714285713,-0.20267857142857143],[0.0035714285714285713,-0.20267857142857143],[0.0035714285714285713,-0.2017857142857143],[0.0035714285714285713,-0.2],[0.0035714285714285713,-0.2],[0.0035714285714285713,-0.19910714285714284],[0.0035714285714285713,-0.1982142857142857],[0.0035714285714285713,-0.19553571428571428],[0.0035714285714285713,-0.19285714285714287],[0.0035714285714285713,-0.1875],[0.0035714285714285713,-0.18125],[0.0035714285714285713,-0.16875],[0.0035714285714285713,-0.15803571428571428],[0.0035714285714285713,-0.14821428571428572],[0.0035714285714285713,-0.1392857142857143],[0.0035714285714285713,-0.13303571428571428],[0.0035714285714285713,-0.12767857142857142],[0.0035714285714285713,-0.125],[0.0035714285714285713,-0.12232142857142857],[0.0035714285714285713,-0.12053571428571429],[0.0035714285714285713,-0.11696428571428572],[0.0035714285714285713,-0.1125],[0.0035714285714285713,-0.10892857142857143],[0.0035714285714285713,-0.10625],[0.0035714285714285713,-0.10535714285714286],[0.0017857142857142857,-0.10535714285714286]]]",1,[30],,,,,,,,,,,,,,yogastudio4.jpg,space,2.784,0,11,11,99,1,wineVineyard9.jpg,windmill2.jpg,wrestlingring7.jpg,yogastudio1.jpg,,
Image_List_2,,,,,,,,,,,,,,,,44225,2020-11-25_11h54.43.440,analogCatScenes,2020.1.3,MacIntel,60,"[1792,1120]","[[[-0.0008928571428571428,-0.20357142857142857],[-0.0008928571428571428,-0.20357142857142857],[-0.0008928571428571428,-0.20357142857142857],[-0.0008928571428571428,-0.20357142857142857],[-0.0008928571428571428,-0.20357142857142857],[-0.0008928571428571428,-0.20357142857142857],[-0.0008928571428571428,-0.20357142857142857],[-0.0008928571428571428,-0.20357142857142857],[-0.0008928571428571428,-0.2],[-0.0008928571428571428,-0.19464285714285715],[-0.0008928571428571428,-0.18482142857142858],[-0.0008928571428571428,-0.1767857142857143],[-0.0008928571428571428,-0.16964285714285715],[-0.0008928571428571428,-0.16785714285714284],[-0.0008928571428571428,-0.16607142857142856],[-0.0008928571428571428,-0.16517857142857142],[-0.0008928571428571428,-0.1625],[-0.0008928571428571428,-0.15714285714285714],[-0.0008928571428571428,-0.15],[-0.0008928571428571428,-0.14375],[-0.0008928571428571428,-0.13839285714285715],[-0.0008928571428571428,-0.13303571428571428],[-0.0008928571428571428,-0.12767857142857142],[-0.0008928571428571428,-0.12053571428571429],[-0.0008928571428571428,-0.1125],[-0.0008928571428571428,-0.10357142857142858],[-0.0008928571428571428,-0.09732142857142857],[-0.0008928571428571428,-0.08839285714285715],[-0.0008928571428571428,-0.08392857142857142],[-0.0008928571428571428,-0.07589285714285714],[-0.0008928571428571428,-0.06964285714285715],[-0.0026785714285714286,-0.0625],[-0.0026785714285714286,-0.05892857142857143],[-0.0035714285714285713,-0.054464285714285715],[-0.004464285714285714,-0.05089285714285714],[-0.004464285714285714,-0.04732142857142857],[-0.00625,-0.04196428571428571],[-0.007142857142857143,-0.0375],[-0.008035714285714285,-0.033928571428571426],[-0.008928571428571428,-0.030357142857142857],[-0.010714285714285714,-0.025],[-0.013392857142857142,-0.02142857142857143],[-0.016964285714285713,-0.01607142857142857],[-0.02142857142857143,-0.010714285714285714],[-0.024107142857142858,-0.007142857142857143],[-0.025892857142857145,-0.004464285714285714],[-0.027678571428571427,-0.004464285714285714],[-0.027678571428571427,-0.004464285714285714]],[[0.0008928571428571428,-0.19196428571428573],[0.0008928571428571428,-0.19196428571428573],[0.0008928571428571428,-0.19196428571428573],[0.0008928571428571428,-0.19196428571428573],[0.0008928571428571428,-0.19196428571428573],[0.0008928571428571428,-0.19196428571428573],[0.0008928571428571428,-0.19196428571428573],[0.0008928571428571428,-0.19196428571428573],[0.0008928571428571428,-0.19196428571428573],[0.0008928571428571428,-0.19196428571428573],[0.0008928571428571428,-0.19196428571428573],[0.0008928571428571428,-0.19196428571428573],[0.0008928571428571428,-0.19196428571428573],[0.0017857142857142857,-0.19196428571428573],[0.0035714285714285713,-0.19017857142857142],[0.008035714285714285,-0.18571428571428572],[0.01875,-0.17857142857142858],[0.033035714285714286,-0.16875],[0.044642857142857144,-0.16071428571428573],[0.05714285714285714,-0.15357142857142858],[0.06339285714285714,-0.15],[0.06964285714285715,-0.14642857142857144],[0.07589285714285714,-0.1419642857142857],[0.08035714285714286,-0.1392857142857143],[0.08839285714285715,-0.13482142857142856],[0.09553571428571428,-0.13035714285714287],[0.10089285714285715,-0.12767857142857142],[0.10714285714285714,-0.12410714285714286],[0.11428571428571428,-0.12053571428571429],[0.11875,-0.11696428571428572],[0.12321428571428572,-0.11428571428571428],[0.12946428571428573,-0.11071428571428571],[0.13660714285714284,-0.10535714285714286],[0.14464285714285716,-0.10089285714285715],[0.15178571428571427,-0.09553571428571428],[0.15982142857142856,-0.09017857142857143],[0.16875,-0.08482142857142858],[0.1767857142857143,-0.07946428571428571],[0.18571428571428572,-0.07410714285714286],[0.19196428571428573,-0.06964285714285715],[0.20089285714285715,-0.0625],[0.20714285714285716,-0.05714285714285714],[0.2125,-0.05089285714285714],[0.21428571428571427,-0.04732142857142857],[0.21607142857142858,-0.04285714285714286],[0.21785714285714286,-0.04017857142857143],[0.21875,-0.038392857142857145],[0.21875,-0.0375],[0.21875,-0.0375],[0.21875,-0.03660714285714286],[0.21875,-0.03660714285714286],[0.21875,-0.03660714285714286],[0.21875,-0.03660714285714286],[0.21875,-0.03660714285714286],[0.21785714285714286,-0.0375],[0.21607142857142858,-0.0375]],[[-0.007142857142857143,-0.20089285714285715],[-0.007142857142857143,-0.20089285714285715],[-0.007142857142857143,-0.20089285714285715],[-0.007142857142857143,-0.20089285714285715],[-0.007142857142857143,-0.20089285714285715],[-0.007142857142857143,-0.20089285714285715],[-0.007142857142857143,-0.20089285714285715],[-0.007142857142857143,-0.20089285714285715],[-0.007142857142857143,-0.20089285714285715],[-0.013392857142857142,-0.20089285714285715],[-0.023214285714285715,-0.20089285714285715],[-0.0375,-0.20089285714285715],[-0.054464285714285715,-0.20089285714285715],[-0.07232142857142858,-0.20089285714285715],[-0.08482142857142858,-0.20089285714285715],[-0.09910714285714285,-0.20089285714285715],[-0.11071428571428571,-0.20089285714285715],[-0.11875,-0.2],[-0.12321428571428572,-0.1982142857142857],[-0.13035714285714287,-0.19553571428571428],[-0.1375,-0.19196428571428573],[-0.14017857142857143,-0.19107142857142856],[-0.15089285714285713,-0.1875],[-0.15892857142857142,-0.18571428571428572],[-0.16875,-0.18392857142857144],[-0.18125,-0.18303571428571427],[-0.19375,-0.18125],[-0.2044642857142857,-0.18035714285714285],[-0.21428571428571427,-0.18035714285714285],[-0.22410714285714287,-0.18035714285714285],[-0.23035714285714284,-0.18035714285714285],[-0.2357142857142857,-0.18035714285714285],[-0.24285714285714285,-0.17946428571428572],[-0.24821428571428572,-0.17946428571428572],[-0.2544642857142857,-0.17946428571428572],[-0.26071428571428573,-0.17946428571428572],[-0.26517857142857143,-0.18125],[-0.26964285714285713,-0.18571428571428572]]]",3,"[48,56,38]",,,,,,,,,,,,,,campsite6.jpg,space,7.546,0,12,12,17,1,bikerack1.jpg,breakroom4.jpg,carmechanic.jpg,baseball6.jpg,,
Image_List_2,,,,,,,,,,,,,,,,44225,2020-11-25_11h54.43.440,analogCatScenes,2020.1.3,MacIntel,60,"[1792,1120]","[[[-0.0026785714285714286,-0.1982142857142857],[-0.0026785714285714286,-0.1982142857142857],[-0.0026785714285714286,-0.1982142857142857],[-0.0026785714285714286,-0.1982142857142857],[-0.0026785714285714286,-0.1982142857142857],[-0.0026785714285714286,-0.1982142857142857],[-0.0026785714285714286,-0.1982142857142857],[-0.0026785714285714286,-0.1982142857142857],[-0.0026785714285714286,-0.1982142857142857],[-0.0026785714285714286,-0.1982142857142857],[-0.0026785714285714286,-0.19553571428571428],[-0.0026785714285714286,-0.19107142857142856],[-0.0026785714285714286,-0.17946428571428572],[-0.0026785714285714286,-0.16607142857142856],[-0.0026785714285714286,-0.14642857142857144],[-0.0026785714285714286,-0.1125],[0,-0.08660714285714285],[0.005357142857142857,-0.06160714285714286],[0.010714285714285714,-0.03482142857142857],[0.014285714285714285,-0.016964285714285713],[0.017857142857142856,0.005357142857142857],[0.01875,0.02142857142857143],[0.01875,0.033928571428571426],[0.017857142857142856,0.04375],[0.015178571428571428,0.05357142857142857],[0.011607142857142858,0.06160714285714286],[0.009821428571428571,0.06964285714285715],[0.008035714285714285,0.07589285714285714],[0.00625,0.08214285714285714],[0.004464285714285714,0.08839285714285715],[0.0026785714285714286,0.09285714285714286],[0,0.10089285714285715],[-0.0017857142857142857,0.10446428571428572],[-0.0035714285714285713,0.10803571428571429],[-0.004464285714285714,0.11071428571428571],[-0.00625,0.11339285714285714],[-0.008035714285714285,0.11607142857142858],[-0.009821428571428571,0.11875],[-0.0125,0.12053571428571429],[-0.014285714285714285,0.12232142857142857],[-0.01607142857142857,0.12410714285714286],[-0.017857142857142856,0.12589285714285714],[-0.019642857142857142,0.12767857142857142],[-0.02142857142857143,0.12946428571428573],[-0.023214285714285715,0.13125],[-0.025892857142857145,0.13303571428571428],[-0.02857142857142857,0.1357142857142857],[-0.03125,0.1375],[-0.03214285714285714,0.1392857142857143],[-0.033928571428571426,0.1392857142857143],[-0.03571428571428571,0.1392857142857143]]]",1,[51],,,,,,,,,,,,,,frontLawn5.jpg,space,2.38,0,13,13,46,1,flowershop.jpg,farmersmarket4.jpg,fountain4.jpg,dormroom6.jpg,,
Image_List_2,,,,,,,,,,,,,,,,44225,2020-11-25_11h54.43.440,analogCatScenes,2020.1.3,MacIntel,60,"[1792,1120]","[[[0.0026785714285714286,-0.2017857142857143],[0.0026785714285714286,-0.2017857142857143],[0.0026785714285714286,-0.2017857142857143],[0.0026785714285714286,-0.2017857142857143],[0.0026785714285714286,-0.2017857142857143],[0.0026785714285714286,-0.2017857142857143],[0.0026785714285714286,-0.2017857142857143],[0.0008928571428571428,-0.2017857142857143],[-0.0017857142857142857,-0.2017857142857143],[-0.007142857142857143,-0.2017857142857143],[-0.01607142857142857,-0.2017857142857143],[-0.022321428571428572,-0.20089285714285715],[-0.03482142857142857,-0.19642857142857142],[-0.04642857142857143,-0.19375],[-0.06875,-0.18660714285714286],[-0.08214285714285714,-0.18125],[-0.09285714285714286,-0.17767857142857144],[-0.10535714285714286,-0.1705357142857143],[-0.11696428571428572,-0.16428571428571428],[-0.12946428571428573,-0.15892857142857142],[-0.14017857142857143,-0.15357142857142858],[-0.15178571428571427,-0.14821428571428572],[-0.16160714285714287,-0.14464285714285716],[-0.17410714285714285,-0.13839285714285715],[-0.18392857142857144,-0.13125],[-0.19107142857142856,-0.12410714285714286],[-0.19732142857142856,-0.11696428571428572],[-0.20267857142857143,-0.11160714285714286],[-0.20714285714285716,-0.10625],[-0.21339285714285713,-0.10089285714285715],[-0.21875,-0.09553571428571428],[-0.2294642857142857,-0.08571428571428572],[-0.2357142857142857,-0.07767857142857143],[-0.24285714285714285,-0.06875],[-0.25,-0.06160714285714286],[-0.25625,-0.05267857142857143],[-0.26071428571428573,-0.048214285714285716],[-0.26517857142857143,-0.04196428571428571],[-0.26875,-0.0375],[-0.2714285714285714,-0.033928571428571426],[-0.27232142857142855,-0.029464285714285714],[-0.2741071428571429,-0.025892857142857145],[-0.275,-0.023214285714285715],[-0.2767857142857143,-0.019642857142857142],[-0.27767857142857144,-0.016964285714285713],[-0.28035714285714286,-0.014285714285714285],[-0.2830357142857143,-0.011607142857142858],[-0.2839285714285714,-0.009821428571428571],[-0.28482142857142856,-0.009821428571428571],[-0.28482142857142856,-0.009821428571428571]]]",1,[50],,,,,,,,,,,,,,wineVineyard2.jpg,space,4,0,14,14,97,1,warehouseoutside4.jpg,waitingroom4.jpg,winebarrel3.jpg,warehouseoutside3.jpg,,
Image_List_2,,,,,,,,,,,,,,,,44225,2020-11-25_11h54.43.440,analogCatScenes,2020.1.3,MacIntel,60,"[1792,1120]","[[[-0.004464285714285714,-0.19464285714285715],[-0.004464285714285714,-0.19464285714285715],[-0.004464285714285714,-0.19464285714285715],[-0.004464285714285714,-0.19464285714285715],[-0.004464285714285714,-0.19464285714285715],[-0.004464285714285714,-0.19464285714285715],[-0.004464285714285714,-0.19464285714285715],[-0.004464285714285714,-0.19464285714285715],[-0.004464285714285714,-0.19464285714285715],[-0.004464285714285714,-0.19464285714285715],[-0.004464285714285714,-0.19464285714285715],[-0.004464285714285714,-0.19285714285714287],[-0.00625,-0.18839285714285714],[-0.007142857142857143,-0.18214285714285713],[-0.009821428571428571,-0.1767857142857143],[-0.011607142857142858,-0.17232142857142857],[-0.0125,-0.16964285714285715],[-0.013392857142857142,-0.16785714285714284],[-0.013392857142857142,-0.16607142857142856],[-0.013392857142857142,-0.16517857142857142],[-0.014285714285714285,-0.1625],[-0.014285714285714285,-0.15892857142857142],[-0.01607142857142857,-0.15357142857142858],[-0.01607142857142857,-0.15],[-0.017857142857142856,-0.1455357142857143],[-0.017857142857142856,-0.14107142857142857],[-0.019642857142857142,-0.13392857142857142],[-0.020535714285714286,-0.12946428571428573],[-0.02142857142857143,-0.125],[-0.022321428571428572,-0.11875],[-0.023214285714285715,-0.11428571428571428],[-0.024107142857142858,-0.11160714285714286],[-0.025892857142857145,-0.10178571428571428],[-0.026785714285714284,-0.09732142857142857],[-0.02857142857142857,-0.09196428571428572],[-0.030357142857142857,-0.0875],[-0.03214285714285714,-0.08392857142857142],[-0.03482142857142857,-0.08035714285714286],[-0.03660714285714286,-0.07678571428571429],[-0.0375,-0.07321428571428572],[-0.039285714285714285,-0.07053571428571428],[-0.04196428571428571,-0.06607142857142857],[-0.04285714285714286,-0.06339285714285714],[-0.04642857142857143,-0.05714285714285714],[-0.049107142857142856,-0.05357142857142857],[-0.05089285714285714,-0.049107142857142856],[-0.05178571428571429,-0.044642857142857144],[-0.05267857142857143,-0.04107142857142857],[-0.054464285714285715,-0.038392857142857145],[-0.055357142857142855,-0.03571428571428571],[-0.05803571428571429,-0.033035714285714286],[-0.059821428571428574,-0.03125],[-0.060714285714285714,-0.02857142857142857],[-0.06160714285714286,-0.027678571428571427],[-0.06160714285714286,-0.026785714285714284],[-0.06160714285714286,-0.025892857142857145],[-0.06160714285714286,-0.025892857142857145],[-0.0625,-0.025],[-0.0625,-0.025],[-0.0625,-0.025],[-0.0625,-0.025],[-0.0625,-0.025],[-0.0625,-0.025],[-0.0625,-0.025],[-0.0625,-0.025],[-0.0625,-0.025],[-0.0625,-0.025],[-0.0625,-0.025],[-0.0625,-0.025],[-0.0625,-0.025],[-0.0625,-0.025]]]",1,[71],,,,,,,,,,,,,,bambooforest.jpg,space,3.941,0,15,15,5,1,artStudio3.jpg,auto_showroom4.jpg,attic4.jpg,amusement3.jpg,,
Image_List_2,,,,,,,,,,,,,,,,44225,2020-11-25_11h54.43.440,analogCatScenes,2020.1.3,MacIntel,60,"[1792,1120]","[[[0.0035714285714285713,-0.1982142857142857],[0.0035714285714285713,-0.1982142857142857],[0.0035714285714285713,-0.1982142857142857],[0.0035714285714285713,-0.1982142857142857],[0.0035714285714285713,-0.1982142857142857],[0.0035714285714285713,-0.1982142857142857],[0.0035714285714285713,-0.1982142857142857],[0.0035714285714285713,-0.1982142857142857],[0.0035714285714285713,-0.1982142857142857],[0.004464285714285714,-0.19642857142857142],[0.008928571428571428,-0.19285714285714287],[0.0125,-0.18928571428571428],[0.019642857142857142,-0.18392857142857144],[0.033035714285714286,-0.17410714285714285],[0.045535714285714284,-0.16428571428571428],[0.060714285714285714,-0.15446428571428572],[0.07678571428571429,-0.1419642857142857],[0.08214285714285714,-0.1375],[0.09196428571428572,-0.12946428571428573],[0.10089285714285715,-0.12142857142857143],[0.10714285714285714,-0.11339285714285714],[0.11071428571428571,-0.10892857142857143],[0.1125,-0.10535714285714286],[0.11428571428571428,-0.10178571428571428],[0.11428571428571428,-0.09910714285714285],[0.11517857142857142,-0.09553571428571428],[0.11517857142857142,-0.09196428571428572],[0.11607142857142858,-0.08660714285714285],[0.11607142857142858,-0.08214285714285714],[0.11607142857142858,-0.07767857142857143],[0.11607142857142858,-0.07321428571428572],[0.11607142857142858,-0.06964285714285715],[0.11607142857142858,-0.06517857142857143],[0.11607142857142858,-0.06160714285714286],[0.11428571428571428,-0.05892857142857143],[0.11339285714285714,-0.05892857142857143],[0.1125,-0.059821428571428574]]]",1,[37],,,,,,,,,,,,,,hut3.jpg,space,2.012,0,16,16,56,1,grocerystore5.jpg,golfcourse10.jpg,hut1.jpg,gasstation2.jpg,,
