image_list,key_resp_intructions.keys,key_resp_intructions.rt,key_resp_intructions_3.keys,key_resp_intructions_3.rt,PracticeComplete_2.keys,PracticeComplete_2.rt,PracticeComplete_3.keys,PracticeComplete_3.rt,demo_trials.thisRepN,demo_trials.thisTrialN,demo_trials.thisN,demo_trials.thisIndex,demo_trials.ran,demo_images,path_images,participant,date,expName,psychopyVersion,OS,frameRate,windowSize,practice_complete.keys,practice_complete.rt,boxes_checked,PracticeComplete.keys,PracticeComplete.rt,practice_trials.thisRepN,practice_trials.thisTrialN,practice_trials.thisN,practice_trials.thisIndex,practice_trials.ran,practice_images,feedback_images,key_resp_intructions_2.keys,key_resp_intructions_2.rt,Image_List_1,trial_complete.keys,trial_complete.rt,trial_mouse.x,trial_mouse.y,trial_mouse.leftButton,trial_mouse.midButton,trial_mouse.rightButton,trial_mouse.time,trial_mouse.clicked_name,trials.thisRepN,trials.thisTrialN,trials.thisN,trials.thisIndex,trials.ran,Image_List_2,Image_List_3,Image_List_4,Image_List_5,key_resp.keys,key_resp.rt
Image_List_1,space,20.360365,space,4.19923,space,12.012205,space,1.08683,0,0,0,4,1,left.jpg,left_path.jpg,44237,2020-11-18_16h44.36.722,lingCatScenes,2020.1.3,MacIntel,60,,,,,,,,,,,,,,,,,,,,,,,,,,,,,,,,,,,,
Image_List_1,,,,,space,34.57749,space,3.57726,0,1,1,3,1,ahead_right_left.jpg,ahead_right_left_path.jpg,44237,2020-11-18_16h44.36.722,lingCatScenes,2020.1.3,MacIntel,60,,,,,,,,,,,,,,,,,,,,,,,,,,,,,,,,,,,,
Image_List_1,,,,,space,45.7194,space,2.679635,0,2,2,5,1,right.jpg,right_path.jpg,44237,2020-11-18_16h44.36.722,lingCatScenes,2020.1.3,MacIntel,60,,,,,,,,,,,,,,,,,,,,,,,,,,,,,,,,,,,,
Image_List_1,,,,,space,6.87139,space,2.52189,0,3,3,6,1,right_left.jpg,right_left_path.jpg,44237,2020-11-18_16h44.36.722,lingCatScenes,2020.1.3,MacIntel,60,,,,,,,,,,,,,,,,,,,,,,,,,,,,,,,,,,,,
Image_List_1,,,,,space,1.38733,space,2.568765,0,4,4,2,1,ahead_right.jpg,ahead_right_path.jpg,44237,2020-11-18_16h44.36.722,lingCatScenes,2020.1.3,MacIntel,60,,,,,,,,,,,,,,,,,,,,,,,,,,,,,,,,,,,,
Image_List_1,,,,,space,3.070705,space,1.682835,0,5,5,1,1,ahead_left.jpg,ahead_left_path.jpg,44237,2020-11-18_16h44.36.722,lingCatScenes,2020.1.3,MacIntel,60,,,,,,,,,,,,,,,,,,,,,,,,,,,,,,,,,,,,
Image_List_1,,,,,space,1.477205,space,0.51013,0,6,6,0,1,ahead.jpg,ahead_path.jpg,44237,2020-11-18_16h44.36.722,lingCatScenes,2020.1.3,MacIntel,60,,,,,,,,,,,,,,,,,,,,,,,,,,,,,,,,,,,,
Image_List_1,,,,,,,,,,,,,,,,44237,2020-11-18_16h44.36.722,lingCatScenes,2020.1.3,MacIntel,60,"[1280,800]",space,1.185555,[],space,0.476005,0,0,0,3,1,ahead_right_left_2.jpg,ahead_right_left_2_path.jpg,,,,,,,,,,,,,,,,,,,,,,,
Image_List_1,,,,,,,,,,,,,,,,44237,2020-11-18_16h44.36.722,lingCatScenes,2020.1.3,MacIntel,60,"[1280,800]",space,0.435535,[],space,0.263665,0,1,1,5,1,right_2.jpg,right_2_path.jpg,,,,,,,,,,,,,,,,,,,,,,,
Image_List_1,,,,,,,,,,,,,,,,44237,2020-11-18_16h44.36.722,lingCatScenes,2020.1.3,MacIntel,60,"[1280,800]",space,0.189125,[],space,0.174785,0,2,2,0,1,ahead_2.jpg,ahead_2_path.jpg,,,,,,,,,,,,,,,,,,,,,,,
Image_List_1,,,,,,,,,,,,,,,,44237,2020-11-18_16h44.36.722,lingCatScenes,2020.1.3,MacIntel,60,"[1280,800]",space,0.1918,[],space,0.19676,0,3,3,2,1,ahead_right_2.jpg,ahead_right_2_path.jpg,,,,,,,,,,,,,,,,,,,,,,,
Image_List_1,,,,,,,,,,,,,,,,44237,2020-11-18_16h44.36.722,lingCatScenes,2020.1.3,MacIntel,60,"[1280,800]",space,6.66243,"[""ahead_box""]",space,1.66668,0,4,4,1,1,ahead_left_2.jpg,ahead_left_2_path.jpg,,,,,,,,,,,,,,,,,,,,,,,
Image_List_1,,,,,,,,,,,,,,,,44237,2020-11-18_16h44.36.722,lingCatScenes,2020.1.3,MacIntel,60,"[1280,800]",space,76.55198,"[""right_box""]",space,4.88179,0,5,5,4,1,left_2.jpg,left_2_path.jpg,,,,,,,,,,,,,,,,,,,,,,,
Image_List_1,,,,,,,,,,,,,,,,44237,2020-11-18_16h44.36.722,lingCatScenes,2020.1.3,MacIntel,60,"[1280,800]",space,8.16757,"[""left_box"",""right_box""]",space,1.547685,0,6,6,6,1,right_left_2.jpg,right_left_2_path.jpg,,,,,,,,,,,,,,,,,,,,,,,
Image_List_1,,,,,,,,,,,,,,,,44237,2020-11-18_16h44.36.722,lingCatScenes,2020.1.3,MacIntel,60,"[1280,800]",,,"[""trial_ahead_box""]",,,,,,,,,,space,4.11995,treehouse.jpg,space,2.578115,[0.0024267578125],[-0.2983837890625],[1],[0],[0],[2.2560750000120606],"[""trial_ahead_box""]",0,0,0,94,1,waitingroom3.jpg,staircase6.jpg,weightroom.jpg,trainStation3.jpg,,
Image_List_1,,,,,,,,,,,,,,,,44237,2020-11-18_16h44.36.722,lingCatScenes,2020.1.3,MacIntel,60,"[1280,800]",,,"[""trial_slight_right_box""]",,,,,,,,,,,,botanicalGarden6.jpg,space,3.46155,[0.184443359375],[-0.285732421875],[1],[0],[0],[2.2101700000057463],"[""trial_slight_right_box""]",0,1,1,21,1,cemetery6.jpg,campusquad3.jpg,cave5.jpg,beach1.jpeg,,
Image_List_1,,,,,,,,,,,,,,,,44237,2020-11-18_16h44.36.722,lingCatScenes,2020.1.3,MacIntel,60,"[1280,800]",,,"[""trial_slight_left_box""]",,,,,,,,,,,,backstage2.jpg,space,4.512075,[-0.210185546875],[-0.3001416015625],[1],[0],[0],[3.0792749999964144],"[""trial_slight_left_box""]",0,2,2,10,1,barbershop3.jpg,ballroom4.jpg,basketballcourt3.jpg,ATM4.jpg,,
Image_List_1,,,,,,,,,,,,,,,,44237,2020-11-18_16h44.36.722,lingCatScenes,2020.1.3,MacIntel,60,"[1280,800]",,,"[""trial_slight_left_box""]",,,,,,,,,,,,campsite7.jpg,space,4.581085,[-0.2181787109375],[-0.318994140625],[1],[0],[0],[3.030995000008261],"[""trial_slight_left_box""]",0,3,3,25,1,conference3.jpg,church3.jpg,checkoutcounter2.jpg,botanicalGarden4.jpg,,
Image_List_1,,,,,,,,,,,,,,,,44237,2020-11-18_16h44.36.722,lingCatScenes,2020.1.3,MacIntel,60,"[1280,800]",,,"[""trial_right_box"",""trial_sharp_right_box""]",,,,,,,,,,,,bikerack1.jpg,space,7.731355,"[0.3914208984375,0.6056494140625]","[-0.3026611328125,-0.3103955078125]","[1,1]","[0,0]","[0,0]","[4.763309999980265,7.414139999978943]","[""trial_right_box"",""trial_sharp_right_box""]",0,4,4,17,1,campsite6.jpg,breakroom4.jpg,carmechanic.jpg,baseball6.jpg,,
Image_List_1,,,,,,,,,,,,,,,,44237,2020-11-18_16h44.36.722,lingCatScenes,2020.1.3,MacIntel,60,"[1280,800]",,,"[""trial_sharp_right_box"",""trial_sharp_left_box""]",,,,,,,,,,,,hayfield5.jpg,space,9.601155,"[0.2096826171875,0.3950732421875,0.6503173828125,0.615419921875,0.181162109375,0.20669921875,0.3721533203125,0.390078125,-0.5903466796875]","[-0.311240234375,-0.3045068359375,-0.305126953125,-0.3043310546875,-0.3391259765625,-0.300546875,-0.300546875,-0.300546875,-0.3154736328125]","[1,1,1,1,1,1,1,1,1]","[0,0,0,0,0,0,0,0,0]","[0,0,0,0,0,0,0,0,0]","[2.613099999987753,3.3800649999757297,3.7970449999847915,4.34626500000013,6.564664999983506,7.632199999992736,8.097775000002002,8.482274999987567,9.332164999999804]","[""trial_slight_right_box"",""trial_right_box"",""trial_sharp_right_box"",""trial_slight_right_box"",""trial_right_box"",""trial_sharp_left_box""]",0,5,5,57,1,jail1.jpg,hallway4.jpg,hut5.jpg,gazebo.jpg,,
Image_List_1,,,,,,,,,,,,,,,,44237,2020-11-18_16h44.36.722,lingCatScenes,2020.1.3,MacIntel,60,"[1280,800]",,,"[""trial_ahead_box"",""trial_slight_right_box"",""trial_slight_left_box"",""trial_left_box"",""trial_sharp_left_box"",""trial_right_box"",""trial_sharp_right_box""]",,,,,,,,,,,,rooftop1.jpg,space,16.64142,"[-0.0251708984375,0.0047021484375,0.184326171875,-0.2064892578125,-0.3972900390625,-0.544287109375,-0.567861328125,-0.58748046875,0.4217578125,0.604892578125]","[-0.2968994140625,-0.3157177734375,-0.30353515625,-0.3088232421875,-0.30572265625,-0.299697265625,-0.299697265625,-0.3033544921875,-0.308212890625,-0.308212890625]","[1,1,1,1,1,1,1,1,1,1]","[0,0,0,0,0,0,0,0,0,0]","[0,0,0,0,0,0,0,0,0,0]","[7.815540000010515,8.549770000012359,9.099194999987958,13.002475000015693,13.567245000012917,14.152059999993071,14.535464999993565,15.03496499999892,15.902724999992643,16.302785000007134]","[""trial_ahead_box"",""trial_slight_right_box"",""trial_slight_left_box"",""trial_left_box"",""trial_sharp_left_box"",""trial_right_box"",""trial_sharp_right_box""]",0,6,6,88,1,track.jpg,sculpturegarden4.jpg,soccerfield.jpg,sandbox.jpg,,
Image_List_1,,,,,,,,,,,,,,,,44237,2020-11-18_16h44.36.722,lingCatScenes,2020.1.3,MacIntel,60,"[1280,800]",,,"[""trial_left_box"",""trial_sharp_right_box""]",,,,,,,,,,,,weightroom5.jpg,space,6.01953,"[-0.3841015625,0.6128173828125]","[-0.3111865234375,-0.2991650390625]","[1,1]","[0,0]","[0,0]","[3.9134249999769963,5.58118999999715]","[""trial_left_box"",""trial_sharp_right_box""]",0,7,7,98,1,wineVineyard8.jpg,warehouse3.jpg,winebarrel4.jpg,winebarrel2.jpg,,
Image_List_1,,,,,,,,,,,,,,,,44237,2020-11-18_16h44.36.722,lingCatScenes,2020.1.3,MacIntel,60,"[1280,800]",,,"[""trial_ahead_box"",""trial_left_box"",""trial_sharp_right_box""]",,,,,,,,,,,,parkinggarage.jpg,space,111.080335,"[0.005986328125,-0.3966748046875,-0.5650732421875,-0.58359375,-0.4189697265625,-0.4111474609375,-0.6074462890625,-0.6052978515625,0.604638671875]","[-0.294140625,-0.3073193359375,-0.3259912109375,-0.316669921875,-0.307421875,-0.3113037109375,-0.327001953125,-0.305185546875,-0.30337890625]","[1,1,1,1,1,1,1,1,1]","[0,0,0,0,0,0,0,0,0]","[0,0,0,0,0,0,0,0,0]","[68.6938300000038,69.81205999999656,70.49564499998814,70.88050500000827,71.42939500001376,73.16412500001024,73.68017999999574,74.09784500001115,75.19769000000088]","[""trial_ahead_box"",""trial_left_box"",""trial_sharp_left_box"",""trial_left_box"",""trial_left_box"",""trial_sharp_left_box"",""trial_sharp_right_box""]",0,8,8,76,1,playroom4.jpg,parkinggarage3.jpg,park2.jpg,lookout4.jpg,,
Image_List_1,,,,,,,,,,,,,,,,44237,2020-11-18_16h44.36.722,lingCatScenes,2020.1.3,MacIntel,60,"[1280,800]",,,"[""trial_sharp_right_box""]",,,,,,,,,,,,newsstand2.jpg,space,3.03189,"[0.6355419921875,0.5985302734375]","[-0.3329296875,-0.3066357421875]","[1,1]","[0,0]","[0,0]","[2.1967400000139605,2.797035000025062]","[""trial_sharp_right_box""]",0,9,9,74,1,playground10.jpg,observatory4.jpeg,operatingroom1.jpg,lightingstore2.jpg,,
Image_List_1,,,,,,,,,,,,,,,,44237,2020-11-18_16h44.36.722,lingCatScenes,2020.1.3,MacIntel,60,"[1280,800]",,,"[""trial_slight_right_box""]",,,,,,,,,,,,warehouse4.jpg,space,4.013645,"[-0.027568359375,0.1732470703125,0.1996533203125]","[-0.2865771484375,-0.30224609375,-0.3042626953125]","[1,1,1]","[0,0,0]","[0,0,0]","[1.1447700000135228,2.379240000009304,3.029920000000857]","[""trial_slight_right_box""]",0,10,10,96,1,warehouseoutside1.jpg,tenniscourt3.jpg,windmill1.jpg,warehouse1.jpg,,
Image_List_1,,,,,,,,,,,,,,,,44237,2020-11-18_16h44.36.722,lingCatScenes,2020.1.3,MacIntel,60,"[1280,800]",,,"[""trial_ahead_box""]",,,,,,,,,,,,promenadeDeck.jpg,space,1.51465,[-0.0075],[-0.295625],[1],[0],[0],[1.1466550000186544],"[""trial_ahead_box""]",0,11,11,81,1,ruralroad5.jpg,promenadeDeck2.jpg,rainforest5.jpg,pasture8.jpg,,
Image_List_1,,,,,,,,,,,,,,,,44237,2020-11-18_16h44.36.722,lingCatScenes,2020.1.3,MacIntel,60,"[1280,800]",,,"[""trial_sharp_left_box"",""trial_sharp_right_box""]",,,,,,,,,,,,flowershop.jpg,space,3.55284,"[-0.577783203125,0.6387939453125,0.591806640625]","[-0.3152294921875,-0.3023583984375,-0.3007958984375]","[1,1,1]","[0,0,0]","[0,0,0]","[2.0462850000185426,2.847170000022743,3.264374999998836]","[""trial_sharp_left_box"",""trial_sharp_right_box""]",0,12,12,46,1,frontLawn5.jpg,farmersmarket4.jpg,fountain4.jpg,dormroom6.jpg,,
Image_List_1,,,,,,,,,,,,,,,,44237,2020-11-18_16h44.36.722,lingCatScenes,2020.1.3,MacIntel,60,"[1280,800]",,,"[""trial_ahead_box"",""trial_right_box""]",,,,,,,,,,,,tollbooth8.jpg,space,8.9808,"[0.0081884765625,0.4077392578125]","[-0.315302734375,-0.2891357421875]","[1,1]","[0,0]","[0,0]","[5.480060000001686,8.080900000000838]","[""trial_ahead_box"",""trial_right_box""]",0,13,13,93,1,volleyballcourt4.jpg,staircase4.jpg,warehouseoutside2.jpg,tenniscourt.jpg,,
Image_List_1,,,,,,,,,,,,,,,,44237,2020-11-18_16h44.36.722,lingCatScenes,2020.1.3,MacIntel,60,"[1280,800]",,,"[""trial_sharp_left_box"",""trial_sharp_right_box"",""trial_ahead_box""]",,,,,,,,,,,,courthouse1.jpg,space,6.73109,"[-0.619091796875,0.5974267578125,-0.0104345703125]","[-0.301357421875,-0.2896484375,-0.2974755859375]","[1,1,1]","[0,0,0]","[0,0,0]","[4.763510000018869,5.881285000010394,6.547485000017332]","[""trial_sharp_left_box"",""trial_sharp_right_box"",""trial_ahead_box""]",0,14,14,30,1,desertvegetation3.jpg,clothingstore2.jpg,copyroom2.jpg,bus_shelter3.jpg,,
Image_List_1,,,,,,,,,,,,,,,,44237,2020-11-18_16h44.36.722,lingCatScenes,2020.1.3,MacIntel,60,"[1280,800]",,,"[""trial_sharp_left_box"",""trial_sharp_right_box""]",,,,,,,,,,,,gasstation7.jpg,space,9.403355,"[-0.6134423828125,0.619404296875]","[-0.30095703125,-0.3043017578125]","[1,1]","[0,0]","[0,0]","[8.016489999979967,9.18405999999959]","[""trial_sharp_left_box"",""trial_sharp_right_box""]",0,15,15,52,1,hardwarestore1.jpg,frontFoyer6.jpg,highway.jpg,forestpath2.jpg,,
Image_List_1,,,,,,,,,,,,,,,,44237,2020-11-18_16h44.36.722,lingCatScenes,2020.1.3,MacIntel,60,"[1280,800]",,,"[""trial_slight_right_box"",""trial_left_box""]",,,,,,,,,,,,deck4.jpg,space,5.76953,"[0.2153759765625,-0.4035595703125]","[-0.29435546875,-0.2989404296875]","[1,1]","[0,0]","[0,0]","[2.164185000001453,5.533504999999423]","[""trial_slight_right_box"",""trial_left_box""]",0,16,16,34,1,diningroom5.jpg,courthouse4.jpg,diner11.jpg,campusquad1.jpg,,
Image_List_1,,,,,,,,,,,,,,,,44237,2020-11-18_16h44.36.722,lingCatScenes,2020.1.3,MacIntel,60,"[1280,800]",,,"[""trial_slight_right_box""]",,,,,,,,,,,,alley1.jpg,space,4.414905,"[0.0093017578125,0.1776806640625,0.0147607421875]","[-0.275791015625,-0.2983740234375,-0.2964501953125]","[1,1,1]","[0,0,0]","[0,0,0]","[1.362844999996014,2.5210000000079162,3.047450000012759]","[""trial_ahead_box"",""trial_slight_right_box"",""trial_ahead_box""]",0,17,17,2,1,arcade1.jpg,applestore6.jpg,apartmentBuilding4.jpg,airportTerminal6.jpg,,
Image_List_1,,,,,,,,,,,,,,,,44237,2020-11-18_16h44.36.722,lingCatScenes,2020.1.3,MacIntel,60,"[1280,800]",,,"[""trial_left_box""]",,,,,,,,,,,,liquorstore8.jpg,space,7.231625,[-0.3846240234375],[-0.2892724609375],[1],[0],[0],[1.4289500000013504],"[""trial_left_box""]",0,18,18,69,1,parkinglot2.jpg,livingroom.jpg,metroInside1.jpg,icecream2.jpg,,
Image_List_1,,,,,,,,,,,,,,,,44237,2020-11-18_16h44.36.722,lingCatScenes,2020.1.3,MacIntel,60,"[1280,800]",,,"[""trial_ahead_box""]",,,,,,,,,,,,restaurantkitchen2.jpg,space,1.580415,[-0.01140625],[-0.321015625],[1],[0],[0],[1.2291149999946356],"[""trial_ahead_box""]",0,19,19,87,1,theater2.jpg,savanna.jpg,sculpturegarden2.jpg,RVinside2.jpg,,
Image_List_1,,,,,,,,,,,,,,,,44237,2020-11-18_16h44.36.722,lingCatScenes,2020.1.3,MacIntel,60,"[1280,800]",,,"[""trial_left_box""]",,,,,,,,,,,,diner14.jpg,space,4.2131,[-0.4077734375],[-0.3115234375],[1],[0],[0],[1.7788200000068173],"[""trial_left_box""]",0,20,20,36,1,dormroom9.jpg,dining_car3.jpg,doctor1.jpg,checkoutcounter9.jpg,,
Image_List_1,,,,,,,,,,,,,,,,44237,2020-11-18_16h44.36.722,lingCatScenes,2020.1.3,MacIntel,60,"[1280,800]",,,"[""trial_right_box"",""trial_ahead_box""]",,,,,,,,,,,,parkinggarage2.jpg,space,7.68355,"[0.220673828125,0.40025390625,-0.0283154296875,0.0019384765625]","[-0.3268359375,-0.28587890625,-0.282568359375,-0.288857421875]","[1,1,1,1]","[0,0,0,0]","[0,0,0,0]","[5.064989999984391,5.705515000008745,6.798754999996163,7.3814649999840185]","[""trial_right_box"",""trial_ahead_box""]",0,21,21,77,1,playroom6.jpg,pasture9.jpg,park8.jpg,mallindoor6.jpg,,
Image_List_1,,,,,,,,,,,,,,,,44237,2020-11-18_16h44.36.722,lingCatScenes,2020.1.3,MacIntel,60,"[1280,800]",,,"[""trial_sharp_right_box""]",,,,,,,,,,,,bleachers5.jpg,space,7.583415,[0.58181640625],[-0.2961083984375],[1],[0],[0],[2.9311649999872316],"[""trial_sharp_right_box""]",0,22,22,18,1,casino1.jpg,brewery4.jpg,castle2.jpg,basement6.jpg,,
Image_List_1,,,,,,,,,,,,,,,,44237,2020-11-18_16h44.36.722,lingCatScenes,2020.1.3,MacIntel,60,"[1280,800]",,,"[""trial_sharp_left_box""]",,,,,,,,,,,,exerciseequipment3.jpg,space,3.88202,[-0.6091015625],[-0.298681640625],[1],[0],[0],[2.0107499999867287],"[""trial_sharp_left_box""]",0,23,23,42,1,firestation3.jpg,drymountains6.jpg,farm4.jpg,desertvegetation2.jpg,,
Image_List_1,,,,,,,,,,,,,,,,44237,2020-11-18_16h44.36.722,lingCatScenes,2020.1.3,MacIntel,60,"[1280,800]",,,"[""trial_sharp_left_box"",""trial_sharp_right_box""]",,,,,,,,,,,,grocerystore5.jpg,space,2.980445,"[-0.58658203125,0.6082568359375]","[-0.3110205078125,-0.2930419921875]","[1,1]","[0,0]","[0,0]","[1.8808999999891967,2.747000000003027]","[""trial_sharp_left_box"",""trial_sharp_right_box""]",0,24,24,56,1,hut3.jpg,golfcourse10.jpg,hut1.jpg,gasstation2.jpg,,
Image_List_1,,,,,,,,,,,,,,,,44237,2020-11-18_16h44.36.722,lingCatScenes,2020.1.3,MacIntel,60,"[1280,800]",,,"[""trial_ahead_box""]",,,,,,,,,,,,frontDoor2.jpg,space,1.46881,[-0.0010595703125],[-0.3152490234375],[1],[0],[0],[1.246899999998277],"[""trial_ahead_box""]",0,25,25,48,1,golfcourse6.jpg,fittingroom5.jpg,golfcourse7.jpg,fabricstore2.jpg,,
Image_List_1,,,,,,,,,,,,,,,,44237,2020-11-18_16h44.36.722,lingCatScenes,2020.1.3,MacIntel,60,"[1280,800]",,,"[""trial_slight_left_box"",""trial_sharp_right_box""]",,,,,,,,,,,,musicStore3.jpg,space,5.11659,"[-0.2276708984375,-0.2054443359375,0.583310546875]","[-0.3023193359375,-0.3023193359375,-0.3010986328125]","[1,1,1]","[0,0,0]","[0,0,0]","[1.9372399999992922,2.7466499999864027,4.715085000003455]","[""trial_slight_left_box"",""trial_sharp_right_box""]",0,26,26,73,1,photographer_studio2.jpg,nursery.jpg,nursery4.jpg,library_aisle9.jpg,,
Image_List_1,,,,,,,,,,,,,,,,44237,2020-11-18_16h44.36.722,lingCatScenes,2020.1.3,MacIntel,60,"[1280,800]",,,"[""trial_ahead_box"",""trial_slight_left_box""]",,,,,,,,,,,,hotellobby2.jpg,space,7.401975,"[-0.0103076171875,-0.209033203125]","[-0.2952587890625,-0.306328125]","[1,1]","[0,0]","[0,0]","[4.349700000020675,6.267145000019809]","[""trial_ahead_box"",""trial_slight_left_box""]",0,27,27,62,1,minigolf.jpg,horsebarn8.jpg,lab3.jpg,hayfield7.jpg,,
Image_List_1,,,,,,,,,,,,,,,,44237,2020-11-18_16h44.36.722,lingCatScenes,2020.1.3,MacIntel,60,"[1280,800]",,,"[""trial_sharp_right_box""]",,,,,,,,,,,,readingroom1.jpg,space,3.499485,[0.5852392578125],[-0.2824462890625],[1],[0],[0],[3.129220000002533],"[""trial_sharp_right_box""]",0,28,28,83,1,sculpturegarden1.jpg,promenadeDeck6.jpg,restaurant8.jpg,readingroom2.jpg,,
Image_List_1,,,,,,,,,,,,,,,,44237,2020-11-18_16h44.36.722,lingCatScenes,2020.1.3,MacIntel,60,"[1280,800]",,,"[""trial_slight_left_box"",""trial_slight_right_box""]",,,,,,,,,,,,library_aisle10.jpg,space,5.19824,"[-0.2089111328125,0.2005126953125]","[-0.301884765625,-0.285048828125]","[1,1]","[0,0]","[0,0]","[2.8474300000234507,4.06539000000339]","[""trial_slight_left_box"",""trial_slight_right_box""]",0,29,29,66,1,office3.jpg,laundromat3.jpg,liquorstore.jpg,horsebarn9.jpg,,
Image_List_1,,,,,,,,,,,,,,,,44237,2020-11-18_16h44.36.722,lingCatScenes,2020.1.3,MacIntel,60,"[1280,800]",,,"[""trial_slight_right_box""]",,,,,,,,,,,,publicrestroom2.jpg,space,8.15006,"[0.4039794921875,0.1974560546875,0.3993359375,-0.21734375,-0.21734375]","[-0.3131005859375,-0.3198681640625,-0.316396484375,-0.3102587890625,-0.3102587890625]","[1,1,1,1,1]","[0,0,0,0,0]","[0,0,0,0,0]","[2.1118900000001304,3.72954000000027,4.429730000003474,7.115049999993062,7.748314999975264]","[""trial_right_box"",""trial_slight_right_box"",""trial_right_box"",""trial_slight_left_box"",""trial_slight_left_box""]",0,30,30,82,1,sandDunes_desert_outdoor9.jpg,promenadeDeck3.jpg,readingroom4.jpg,postoffice4.jpg,,
Image_List_1,,,,,,,,,,,,,,,,44237,2020-11-18_16h44.36.722,lingCatScenes,2020.1.3,MacIntel,60,"[1280,800]",,,"[""trial_slight_left_box"",""trial_slight_right_box""]",,,,,,,,,,,,backyard2.jpg,space,5.12931,"[-0.188818359375,0.209404296875]","[-0.295068359375,-0.289921875]","[1,1]","[0,0]","[0,0]","[2.848404999997001,3.76512999998522]","[""trial_slight_left_box"",""trial_slight_right_box""]",0,31,31,11,1,basketballcourt4.jpg,bambooforest3.jpg,baywindow5.jpg,backyard1.jpg,,
Image_List_1,,,,,,,,,,,,,,,,44237,2020-11-18_16h44.36.722,lingCatScenes,2020.1.3,MacIntel,60,"[1280,800]",,,"[""trial_sharp_left_box""]",,,,,,,,,,,,recordingstudio4.jpg,space,9.25086,[-0.61830078125],[-0.315244140625],[1],[0],[0],[8.881930000003194],"[""trial_sharp_left_box""]",0,32,32,85,1,sidewalk5.jpg,ruralroad2.jpg,sandDunes_desert_outdoor3.jpg,rooftop3.jpg,,
Image_List_1,,,,,,,,,,,,,,,,44237,2020-11-18_16h44.36.722,lingCatScenes,2020.1.3,MacIntel,60,"[1280,800]",,,"[""trial_right_box""]",,,,,,,,,,,,bowlingalley5.jpg,space,4.517545,"[0.6112548828125,0.428486328125,0.4013916015625,0.604111328125]","[-0.2965625,-0.3094189453125,-0.29546875,-0.2893896484375]","[1,1,1,1]","[0,0,0,0]","[0,0,0,0]","[1.997044999996433,3.215380000008736,3.6664350000210106,4.198774999997113]","[""trial_sharp_right_box"",""trial_right_box"",""trial_sharp_right_box""]",0,33,33,22,1,church6.jpg,cargo5.jpg,cemetery.jpg,bistrooutdoor6.jpg,,
Image_List_1,,,,,,,,,,,,,,,,44237,2020-11-18_16h44.36.722,lingCatScenes,2020.1.3,MacIntel,60,"[1280,800]",,,"[""trial_slight_right_box"",""trial_left_box""]",,,,,,,,,,,,attic3.jpg,space,8.16819,"[0.4090966796875,0.20646484375,0.3867578125,-0.4456884765625,-0.4009814453125]","[-0.3146630859375,-0.297373046875,-0.297373046875,-0.307412109375,-0.3027783203125]","[1,1,1,1,1]","[0,0,0,0,0]","[0,0,0,0,0]","[4.447934999974677,5.580984999978682,6.131209999992279,7.550380000000587,7.966629999980796]","[""trial_right_box"",""trial_slight_right_box"",""trial_right_box"",""trial_left_box""]",0,34,34,8,1,banquetHall6.jpg,balconyIN.jpg,bar.jpg,applestore4.jpg,,
Image_List_1,,,,,,,,,,,,,,,,44237,2020-11-18_16h44.36.722,lingCatScenes,2020.1.3,MacIntel,60,"[1280,800]",,,"[""trial_slight_right_box""]",,,,,,,,,,,,balconyIN2.jpg,space,2.213965,[0.1945068359375],[-0.2942431640625],[1],[0],[0],[1.4798599999921862],"[""trial_slight_right_box""]",0,35,35,13,1,bowlingalley3.jpg,beach2.jpg,boardwalk4.jpg,backyard6.jpg,,
Image_List_1,,,,,,,,,,,,,,,,44237,2020-11-18_16h44.36.722,lingCatScenes,2020.1.3,MacIntel,60,"[1280,800]",,,[],,,,,,,,,,,,HorseRaceTrack.jpg,space,9.200455,[0.4095849609375],[-0.328623046875],[1],[0],[0],[8.249199999991106],[],0,36,36,61,1,metroInside4.jpg,homegarden6.jpg,kindergarten_classroom7.jpg,hayfield6.jpg,,
Image_List_1,,,,,,,,,,,,,,,,44237,2020-11-18_16h44.36.722,lingCatScenes,2020.1.3,MacIntel,60,"[1280,800]",,,"[""trial_ahead_box"",""trial_left_box"",""trial_right_box""]",,,,,,,,,,,,parkinglot3.jpg,space,7.709805,"[0.02451171875,-0.1926806640625,-0.1966650390625,-0.3910595703125,0.42927734375,0.401376953125]","[-0.310927734375,-0.2873046875,-0.318603515625,-0.2974365234375,-0.307529296875,-0.307529296875]","[1,1,1,1,1,1]","[0,0,0,0,0,0]","[0,0,0,0,0,0]","[3.162639999995008,4.079249999980675,5.7968199999886565,6.397399999987101,7.147209999995539,7.496929999993881]","[""trial_ahead_box"",""trial_slight_left_box"",""trial_slight_left_box"",""trial_left_box"",""trial_right_box""]",0,37,37,78,1,poolhall1.jpg,pier5.jpg,pavilion3.jpg,observatory1.jpg,,
Image_List_1,,,,,,,,,,,,,,,,44237,2020-11-18_16h44.36.722,lingCatScenes,2020.1.3,MacIntel,60,"[1280,800]",,,"[""trial_right_box""]",,,,,,,,,,,,ruralroad7.jpg,space,4.71557,[0.4161474609375],[-0.315927734375],[1],[0],[0],[4.062854999996489],"[""trial_right_box""]",0,38,38,89,1,track5.jpg,ShowJumping7.jpg,staircase7.jpg,sculpturegarden3.jpg,,
Image_List_1,,,,,,,,,,,,,,,,44237,2020-11-18_16h44.36.722,lingCatScenes,2020.1.3,MacIntel,60,"[1280,800]",,,"[""trial_left_box""]",,,,,,,,,,,,dugout4.jpg,space,2.78467,"[-0.42966796875,-0.3927294921875]","[-0.289833984375,-0.300126953125]","[1,1]","[0,0]","[0,0]","[1.9632999999739695,2.5641299999842886]","[""trial_left_box""]",0,39,39,41,1,farm3.jpg,drymountains3.jpg,fabricstore1.jpg,dentist2.jpg,,
Image_List_1,,,,,,,,,,,,,,,,44237,2020-11-18_16h44.36.722,lingCatScenes,2020.1.3,MacIntel,60,"[1280,800]",,,"[""trial_ahead_box""]",,,,,,,,,,,,dining_car.jpg,space,1.39677,[0.0238623046875],[-0.301728515625],[1],[0],[0],[1.145764999993844],"[""trial_ahead_box""]",0,40,40,37,1,driveway4.jpg,dinosaur4.jpg,driveway7.jpg,citystreet9.jpg,,
Image_List_1,,,,,,,,,,,,,,,,44237,2020-11-18_16h44.36.722,lingCatScenes,2020.1.3,MacIntel,60,"[1280,800]",,,"[""trial_ahead_box""]",,,,,,,,,,,,apartmentBuilding2.jpg,space,3.78162,[0.0226708984375],[-0.301728515625],[1],[0],[0],[3.4458550000272226],"[""trial_ahead_box""]",0,41,41,3,1,attic1.jpg,aquarium1.jpg,appleorchard2.jpg,alley3.jpg,,
Image_List_1,,,,,,,,,,,,,,,,44237,2020-11-18_16h44.36.722,lingCatScenes,2020.1.3,MacIntel,60,"[1280,800]",,,"[""trial_ahead_box"",""trial_sharp_right_box""]",,,,,,,,,,,,dancestudio6.jpg,space,5.16516,"[0.0077392578125,0.395419921875,0.3996484375,0.4045458984375,0.5980322265625]","[-0.3130908203125,-0.3345068359375,-0.2985888671875,-0.2906005859375,-0.3038427734375]","[1,1,1,1,1]","[0,0,0,0,0]","[0,0,0,0,0]","[1.763085000013234,2.3963450000155717,3.1136899999983143,3.8306549999979325,4.88182500001858]","[""trial_ahead_box"",""trial_right_box"",""trial_right_box"",""trial_sharp_right_box""]",0,42,42,32,1,diner12.jpg,constructionSite2.jpg,dentist4.jpg,cabin4.jpg,,
Image_List_1,,,,,,,,,,,,,,,,44237,2020-11-18_16h44.36.722,lingCatScenes,2020.1.3,MacIntel,60,"[1280,800]",,,"[""trial_slight_left_box"",""trial_sharp_right_box"",""trial_ahead_box""]",,,,,,,,,,,,shoestore2.jpg,space,7.88321,"[-0.2098388671875,0.548037109375,0.6165966796875,0.0217333984375]","[-0.3018603515625,-0.2945751953125,-0.2982275390625,-0.2983349609375]","[1,1,1,1]","[0,0,0,0]","[0,0,0,0]","[1.8113400000147521,3.0634750000026543,4.046419999998761,6.281054999999469]","[""trial_slight_left_box"",""trial_sharp_right_box"",""trial_ahead_box""]",0,43,43,91,1,trainStation5.jpg,skatepark5.jpg,ticket_counter6.jpg,sidewalk3.jpg,,
Image_List_1,,,,,,,,,,,,,,,,44237,2020-11-18_16h44.36.722,lingCatScenes,2020.1.3,MacIntel,60,"[1280,800]",,,"[""trial_left_box""]",,,,,,,,,,,,airportTerminal4.jpg,space,3.49818,[-0.3915576171875],[-0.3242431640625],[1],[0],[0],[1.5774699999892619],"[""trial_left_box""]",0,44,44,1,1,apartmentBuilding1.jpg,applestore1.jpg,airportTerminal3.jpg,airportTerminal2.jpg,,
Image_List_1,,,,,,,,,,,,,,,,44237,2020-11-18_16h44.36.722,lingCatScenes,2020.1.3,MacIntel,60,"[1280,800]",,,"[""trial_slight_right_box"",""trial_slight_left_box""]",,,,,,,,,,,,artStudio3.jpg,space,3.868445,"[0.20509765625,-0.1814453125]","[-0.31671875,-0.3163623046875]","[1,1]","[0,0]","[0,0]","[1.5791550000139978,2.813945000001695]","[""trial_slight_right_box"",""trial_slight_left_box""]",0,45,45,5,1,bambooforest.jpg,auto_showroom4.jpg,attic4.jpg,amusement3.jpg,,
Image_List_1,,,,,,,,,,,,,,,,44237,2020-11-18_16h44.36.722,lingCatScenes,2020.1.3,MacIntel,60,"[1280,800]",,,"[""trial_left_box"",""trial_slight_left_box""]",,,,,,,,,,,,pantry5.jpg,space,4.14768,"[-0.4167333984375,-0.2004345703125]","[-0.3230419921875,-0.315380859375]","[1,1]","[0,0]","[0,0]","[2.6948599999886937,3.77958000000217]","[""trial_left_box"",""trial_slight_left_box""]",0,46,46,75,1,playground6.jpg,operatingroom4.jpg,park.jpg,lockerroom.jpg,,
Image_List_1,,,,,,,,,,,,,,,,44237,2020-11-18_16h44.36.722,lingCatScenes,2020.1.3,MacIntel,60,"[1280,800]",,,"[""trial_sharp_left_box"",""trial_left_box"",""trial_slight_left_box"",""trial_ahead_box"",""trial_slight_right_box"",""trial_right_box"",""trial_sharp_right_box""]",,,,,,,,,,,,greenmountains.jpg,space,12.68749,"[-0.6018017578125,-0.423994140625,-0.14314453125,-0.1832763671875,0.075302734375,-0.013583984375,0.236015625,0.2178515625,0.422119140625,0.5637744140625,0.5947998046875]","[-0.31109375,-0.311982421875,-0.317568359375,-0.3124560546875,-0.3045751953125,-0.306396484375,-0.2978369140625,-0.2978369140625,-0.2978369140625,-0.2950244140625,-0.296826171875]","[1,1,1,1,1,1,1,1,1,1,1]","[0,0,0,0,0,0,0,0,0,0,0]","[0,0,0,0,0,0,0,0,0,0,0]","[7.6652199999953154,8.133364999986952,8.6319749999966,9.000169999984792,9.465120000008028,9.816055000002962,10.566519999993034,10.933969999983674,11.366305000003194,11.766485000000102,12.38362499998766]","[""trial_sharp_left_box"",""trial_left_box"",""trial_slight_left_box"",""trial_ahead_box"",""trial_slight_right_box"",""trial_right_box"",""trial_sharp_right_box""]",0,47,47,55,1,hotelRoom3.jpg,gazebo5.jpg,hotelRoom7.jpg,frontLawn2.jpg,,
Image_List_1,,,,,,,,,,,,,,,,44237,2020-11-18_16h44.36.722,lingCatScenes,2020.1.3,MacIntel,60,"[1280,800]",,,"[""trial_sharp_left_box"",""trial_ahead_box""]",,,,,,,,,,,,campusquad2.jpg,space,7.92052,"[-0.4092333984375,-0.3900927734375,-0.583056640625,-0.014599609375]","[-0.3130419921875,-0.3105029296875,-0.3079833984375,-0.286826171875]","[1,1,1,1]","[0,0,0,0]","[0,0,0,0]","[3.7316950000240467,4.464635000011185,4.881374999997206,7.5495950000185985]","[""trial_left_box"",""trial_left_box"",""trial_sharp_left_box"",""trial_ahead_box""]",0,48,48,26,1,cornfield4.jpg,church4.jpg,churchInside3.jpg,botanicalGarden7.jpg,,
Image_List_1,,,,,,,,,,,,,,,,44237,2020-11-18_16h44.36.722,lingCatScenes,2020.1.3,MacIntel,60,"[1280,800]",,,"[""trial_slight_right_box""]",,,,,,,,,,,,staircase.jpg,space,10.035765,[0.2003076171875],[-0.29177734375],[1],[0],[0],[2.2803600000042934],"[""trial_slight_right_box""]",0,49,49,92,1,volleyballcourt.jpg,skatepark7.jpg,tvstudio2.jpg,soccerfield2.jpg,,
Image_List_1,,,,,,,,,,,,,,,,44237,2020-11-18_16h44.36.722,lingCatScenes,2020.1.3,MacIntel,60,"[1280,800]",,,"[""trial_right_box""]",,,,,,,,,,,,firestation2.jpg,space,3.819485,[0.400234375],[-0.297392578125],[1],[0],[0],[2.362414999981411],"[""trial_right_box""]",0,50,50,44,1,frontFoyer4.jpg,elevatorOutside1.jpg,foodcourt6.jpg,dock2.jpg,,
Image_List_1,,,,,,,,,,,,,,,,44237,2020-11-18_16h44.36.722,lingCatScenes,2020.1.3,MacIntel,60,"[1280,800]",,,"[""trial_ahead_box"",""trial_sharp_left_box"",""trial_sharp_right_box""]",,,,,,,,,,,,pavilion2.jpg,space,4.10031,"[-0.0367333984375,0.0041552734375,-0.58244140625,0.609658203125]","[-0.3026806640625,-0.3026806640625,-0.3028955078125,-0.2911083984375]","[1,1,1,1]","[0,0,0,0]","[0,0,0,0]","[1.3139699999883305,1.6977449999831151,2.9469199999875855,3.8991949999763165]","[""trial_ahead_box"",""trial_sharp_left_box"",""trial_sharp_right_box""]",0,51,51,80,1,racecarcourse2.jpg,porch.jpg,poolhall5.jpg,parkinggarage4.jpg,,
Image_List_1,,,,,,,,,,,,,,,,44237,2020-11-18_16h44.36.722,lingCatScenes,2020.1.3,MacIntel,60,"[1280,800]",,,"[""trial_ahead_box""]",,,,,,,,,,,,frontDoor.jpg,space,1.33013,[-0.01451171875],[-0.315478515625],[1],[0],[0],[1.145360000024084],"[""trial_ahead_box""]",0,52,52,47,1,gasstation8.jpg,firestation4.jpg,fountain7.jpg,elevatorOutside2.jpg,,
Image_List_1,,,,,,,,,,,,,,,,44237,2020-11-18_16h44.36.722,lingCatScenes,2020.1.3,MacIntel,60,"[1280,800]",,,"[""trial_ahead_box""]",,,,,,,,,,,,bus_shelter.jpg,space,3.64546,[-0.0027001953125],[-0.29248046875],[1],[0],[0],[3.311184999998659],"[""trial_ahead_box""]",0,53,53,23,1,church8.jpg,carmechanic4.jpeg,cemetery3.jpg,bleachers6.jpg,,
Image_List_1,,,,,,,,,,,,,,,,44237,2020-11-18_16h44.36.722,lingCatScenes,2020.1.3,MacIntel,60,"[1280,800]",,,[],,,,,,,,,,,,churchInside1.jpg,space,0.881015,[],[],[],[],[],[],[],0,54,54,28,1,dancestudio5.jpg,citystreet10.jpg,clothingstore5.jpg,bridalboutique2.jpg,,
Image_List_1,,,,,,,,,,,,,,,,44237,2020-11-18_16h44.36.722,lingCatScenes,2020.1.3,MacIntel,60,"[1280,800]",,,"[""trial_right_box""]",,,,,,,,,,,,driveway6.jpg,space,2.59807,[0.396171875],[-0.3203369140625],[1],[0],[0],[2.2787649999954738],"[""trial_right_box""]",0,55,55,39,1,eyeglassstore9.jpg,drycleaners6.jpg,drymountains5.jpg,cliff5.jpg,,
Image_List_1,,,,,,,,,,,,,,,,44237,2020-11-18_16h44.36.722,lingCatScenes,2020.1.3,MacIntel,60,"[1280,800]",,,"[""trial_ahead_box""]",,,,,,,,,,,,greenhouse2.jpg,space,2.014945,"[0.0403759765625,0.006123046875]","[-0.3108984375,-0.29623046875]","[1,1]","[0,0]","[0,0]","[1.3766800000157673,1.8110150000138674]","[""trial_ahead_box""]",0,56,56,54,1,horsebarn11.jpg,gazebo2.jpg,homegarage4.jpg,frontFoyer.jpg,,
Image_List_1,,,,,,,,,,,,,,,,44237,2020-11-18_16h44.36.722,lingCatScenes,2020.1.3,MacIntel,60,"[1280,800]",,,"[""trial_sharp_left_box"",""trial_left_box"",""trial_slight_left_box"",""trial_ahead_box"",""trial_slight_right_box"",""trial_right_box"",""trial_sharp_right_box""]",,,,,,,,,,,,ballroom1.jpg,space,6.236115,"[-0.5602197265625,-0.5754541015625,-0.403642578125,-0.1658447265625,-0.199814453125,0.0183544921875,0.1983837890625,0.3811279296875,0.580078125]","[-0.29333984375,-0.29333984375,-0.29333984375,-0.293974609375,-0.29275390625,-0.298125,-0.3038232421875,-0.3038232421875,-0.30431640625]","[1,1,1,1,1,1,1,1,1]","[0,0,0,0,0,0,0,0,0]","[0,0,0,0,0,0,0,0,0]","[1.6966949999914505,2.0799499999848194,2.4795699999958742,2.9137149999733083,3.313414999982342,3.7645249999768566,5.0317249999789055,5.465635000000475,5.964574999990873]","[""trial_sharp_left_box"",""trial_left_box"",""trial_slight_left_box"",""trial_ahead_box"",""trial_slight_right_box"",""trial_right_box"",""trial_sharp_right_box""]",0,57,57,14,1,breakroom5.jpg,bistrooutdoor5.jpg,botanicalGarden5.jpg,ballroom3.jpg,,
Image_List_1,,,,,,,,,,,,,,,,44237,2020-11-18_16h44.36.722,lingCatScenes,2020.1.3,MacIntel,60,"[1280,800]",,,"[""trial_sharp_left_box""]",,,,,,,,,,,,ATM1.jpg,space,2.234395,[-0.578955078125],[-0.2952978515625],[1],[0],[0],[1.7958449999860022],"[""trial_sharp_left_box""]",0,58,58,6,1,banquetHall2.jpg,auto_showroom5.jpg,baggageClaim1.jpg,apartmentBuilding3.jpg,,
Image_List_1,,,,,,,,,,,,,,,,44237,2020-11-18_16h44.36.722,lingCatScenes,2020.1.3,MacIntel,60,"[1280,800]",,,"[""trial_sharp_left_box""]",,,,,,,,,,,,restaurant14.jpg,space,3.882,[-0.580732421875],[-0.314482421875],[1],[0],[0],[2.664084999996703],"[""trial_sharp_left_box""]",0,59,59,86,1,stripmall.jpg,ruralroad3.jpg,sandDunes_desert_outdoor8.jpg,rooftop4.jpg,,
Image_List_1,,,,,,,,,,,,,,,,44237,2020-11-18_16h44.36.722,lingCatScenes,2020.1.3,MacIntel,60,"[1280,800]",,,[],,,,,,,,,,,,homegarden7.jpg,space,1.927525,[],[],[],[],[],[],[],0,60,60,59,1,library_aisle8.jpg,highway4.jpg,kindergarten_classroom5.jpg,grocerystore3.jpg,,
Image_List_1,,,,,,,,,,,,,,,,44237,2020-11-18_16h44.36.722,lingCatScenes,2020.1.3,MacIntel,60,"[1280,800]",,,"[""trial_ahead_box""]",,,,,,,,,,,,airplanecabin1.jpg,space,1.49821,[-0.022197265625],[-0.3209326171875],[1],[0],[0],[1.2454750000033528],"[""trial_ahead_box""]",0,61,61,0,1,alley2.jpg,appleorchard4.jpg,airplanecabin5.jpg,airplanecabin3.jpg,,
Image_List_1,,,,,,,,,,,,,,,,44237,2020-11-18_16h44.36.722,lingCatScenes,2020.1.3,MacIntel,60,"[1280,800]",,,"[""trial_sharp_left_box""]",,,,,,,,,,,,boardwalk2.jpg,space,2.44982,[-0.6000341796875],[-0.3168212890625],[1],[0],[0],[2.228414999990491],"[""trial_sharp_left_box""]",0,62,62,19,1,casino3.jpg,cafeteria1.jpg,castle4.jpg,basketballcourt.jpg,,
Image_List_1,,,,,,,,,,,,,,,,44237,2020-11-18_16h44.36.722,lingCatScenes,2020.1.3,MacIntel,60,"[1280,800]",,,"[""trial_left_box""]",,,,,,,,,,,,baggageClaim4.jpg,space,2.682945,[-0.400517578125],[-0.3104296875],[1],[0],[0],[2.4972149999812245],"[""trial_left_box""]",0,63,63,12,1,bedroom6.jpg,bambooforest5.jpg,bleachers7.jpg,backyard5.jpg,,
Image_List_1,,,,,,,,,,,,,,,,44237,2020-11-18_16h44.36.722,lingCatScenes,2020.1.3,MacIntel,60,"[1280,800]",,,"[""trial_ahead_box"",""trial_slight_right_box""]",,,,,,,,,,,,fittingroom2.jpg,space,2.43117,"[0.003720703125,0.223359375]","[-0.306376953125,-0.301669921875]","[1,1]","[0,0]","[0,0]","[1.2799700000032317,2.0462750000006054]","[""trial_ahead_box"",""trial_slight_right_box""]",0,64,64,45,1,frontFoyer7.jpg,factory1.jpg,forestpath4.jpg,dock4.jpg,,
Image_List_1,,,,,,,,,,,,,,,,44237,2020-11-18_16h44.36.722,lingCatScenes,2020.1.3,MacIntel,60,"[1280,800]",,,"[""trial_ahead_box""]",,,,,,,,,,,,gazebo3.jpg,space,1.59726,[-0.020888671875],[-0.3033349609375],[1],[0],[0],[1.1641250000102445],"[""trial_ahead_box""]",0,65,65,53,1,homeoffice.jpg,frontLawn3.jpg,homegarage3.jpg,fountain.jpg,,
Image_List_1,,,,,,,,,,,,,,,,44237,2020-11-18_16h44.36.722,lingCatScenes,2020.1.3,MacIntel,60,"[1280,800]",,,"[""trial_ahead_box""]",,,,,,,,,,,,bambooforest4.jpg,space,1.262755,[-0.020888671875],[-0.3033349609375],[1],[0],[0],[1.0111550000146963],"[""trial_ahead_box""]",0,66,66,15,1,cafeteria5.jpg,bleachers8.jpg,cabinIndoors.jpg,bar8.jpg,,
Image_List_1,,,,,,,,,,,,,,,,44237,2020-11-18_16h44.36.722,lingCatScenes,2020.1.3,MacIntel,60,"[1280,800]",,,"[""trial_ahead_box""]",,,,,,,,,,,,igloo5.jpg,space,1.21757,[-0.020888671875],[-0.3033349609375],[1],[0],[0],[0.98071499998332],"[""trial_ahead_box""]",0,67,67,65,1,newsstand7.jpg,laundromat2.jpeg,labClass7.jpg,homeoffice8.jpg,,
Image_List_1,,,,,,,,,,,,,,,,44237,2020-11-18_16h44.36.722,lingCatScenes,2020.1.3,MacIntel,60,"[1280,800]",,,"[""trial_right_box"",""trial_slight_left_box""]",,,,,,,,,,,,highway7.jpg,space,125.25585,"[0.3969775390625,-0.21939453125]","[-0.3145458984375,-0.30421875]","[1,1]","[0,0]","[0,0]","[2.1624599999922793,3.612744999991264]","[""trial_right_box"",""trial_slight_left_box""]",0,68,68,58,1,lab1.jpg,hedgemaze1.jpg,igloo4.jpg,grocerystore2.jpg,,
Image_List_1,,,,,,,,,,,,,,,,44237,2020-11-18_16h44.36.722,lingCatScenes,2020.1.3,MacIntel,60,"[1280,800]",,,"[""trial_ahead_box""]",,,,,,,,,,,,wineVineyard9.jpg,space,8.783755,[-0.0111767578125],[-0.278349609375],[1],[0],[0],[3.2294650000112597],"[""trial_ahead_box""]",0,69,69,99,1,yogastudio4.jpg,windmill2.jpg,wrestlingring7.jpg,yogastudio1.jpg,,
Image_List_1,,,,,,,,,,,,,,,,44237,2020-11-18_16h44.36.722,lingCatScenes,2020.1.3,MacIntel,60,"[1280,800]",,,"[""trial_right_box""]",,,,,,,,,,,,metroInside2.jpg,space,1.79821,[0.3996875],[-0.316259765625],[1],[0],[0],[1.4797300000209361],"[""trial_right_box""]",0,70,70,71,1,pavilion5.jpg,metroInside3.jpg,museum3.jpg,jewelrystore.jpg,,
Image_List_1,,,,,,,,,,,,,,,,44237,2020-11-18_16h44.36.722,lingCatScenes,2020.1.3,MacIntel,60,"[1280,800]",,,"[""trial_sharp_right_box""]",,,,,,,,,,,,dining_car2.jpg,space,7.931935,"[0.62521484375,0.5804150390625]","[-0.2899755859375,-0.3035986328125]","[1,1]","[0,0]","[0,0]","[7.048399999999674,7.647759999992559]","[""trial_sharp_right_box""]",0,71,71,38,1,elevatorOutside4.jpg,dock1.jpg,driveway8.jpg,classroom1.jpg,,
Image_List_1,,,,,,,,,,,,,,,,44237,2020-11-18_16h44.36.722,lingCatScenes,2020.1.3,MacIntel,60,"[1280,800]",,,"[""trial_ahead_box"",""trial_left_box""]",,,,,,,,,,,,deck1.jpg,space,7.70118,"[-0.014287109375,-0.4148486328125]","[-0.3163134765625,-0.30349609375]","[1,1]","[0,0]","[0,0]","[1.7957049999968149,7.231904999993276]","[""trial_ahead_box"",""trial_left_box""]",0,72,72,33,1,diningroom1.jpg,courthouse2.jpg,diner10.jpg,cabinIndoors5.jpg,,
Image_List_1,,,,,,,,,,,,,,,,44237,2020-11-18_16h44.36.722,lingCatScenes,2020.1.3,MacIntel,60,"[1280,800]",,,"[""trial_slight_left_box""]",,,,,,,,,,,,warehouseoutside4.jpg,space,3.296445,[-0.21298828125],[-0.2955859375],[1],[0],[0],[1.5453200000047218],"[""trial_slight_left_box""]",0,73,73,97,1,wineVineyard2.jpg,waitingroom4.jpg,winebarrel3.jpg,warehouseoutside3.jpg,,
Image_List_1,,,,,,,,,,,,,,,,44237,2020-11-18_16h44.36.722,lingCatScenes,2020.1.3,MacIntel,60,"[1280,800]",,,[],,,,,,,,,,,,artStudio1.jpg,space,1.56639,[],[],[],[],[],[],[],0,74,74,4,1,baggageClaim2.jpg,auto_showroom1.jpg,appleorchard3.jpg,alley4.jpg,,
Image_List_1,,,,,,,,,,,,,,,,44237,2020-11-18_16h44.36.722,lingCatScenes,2020.1.3,MacIntel,60,"[1280,800]",,,"[""trial_slight_right_box""]",,,,,,,,,,,,exerciseequipment5.jpg,space,4.669635,"[0.4048779296875,0.1617431640625,0.2144970703125]","[-0.332646484375,-0.2992431640625,-0.2992431640625]","[1,1,1]","[0,0,0]","[0,0,0]","[3.2155750000092667,3.9659849999879953,4.332059999986086]","[""trial_slight_right_box""]",0,75,75,43,1,forestpath10.jpg,dugout2.jpg,foodcourt.jpg,diningroom3.jpg,,
Image_List_1,,,,,,,,,,,,,,,,44237,2020-11-18_16h44.36.722,lingCatScenes,2020.1.3,MacIntel,60,"[1280,800]",,,"[""trial_slight_right_box""]",,,,,,,,,,,,deck5.jpg,space,6.51739,[0.1854248046875],[-0.300986328125],[1],[0],[0],[5.648170000000391],"[""trial_slight_right_box""]",0,76,76,35,1,dock3.jpg,cubicle7.jpg,dining_car6.jpg,carmechanic2.jpg,,
Image_List_1,,,,,,,,,,,,,,,,44237,2020-11-18_16h44.36.722,lingCatScenes,2020.1.3,MacIntel,60,"[1280,800]",,,"[""trial_ahead_box"",""trial_slight_right_box""]",,,,,,,,,,,,basement.jpg,space,6.301515,"[0.01392578125,0.1811083984375]","[-0.299248046875,-0.31525390625]","[1,1]","[0,0]","[0,0]","[2.5638249999901745,6.06300499997451]","[""trial_ahead_box"",""trial_slight_right_box""]",0,77,77,16,1,cafeteria6.jpg,breakroom2.jpg,campusquad4.jpg,barbershop2.jpg,,
Image_List_1,,,,,,,,,,,,,,,,44237,2020-11-18_16h44.36.722,lingCatScenes,2020.1.3,MacIntel,60,"[1280,800]",,,"[""trial_slight_right_box""]",,,,,,,,,,,,campsite.jpg,space,3.56464,[0.2011328125],[-0.2961328125],[1],[0],[0],[2.7302849999978207],"[""trial_slight_right_box""]",0,78,78,24,1,cliff3.jpg,cave6.jpg,cemetery5.jpg,boardwalk.jpg,,
Image_List_1,,,,,,,,,,,,,,,,44237,2020-11-18_16h44.36.722,lingCatScenes,2020.1.3,MacIntel,60,"[1280,800]",,,"[""trial_ahead_box""]",,,,,,,,,,,,gasstation6.jpg,space,2.048775,[-0.0077099609375],[-0.289443359375],[1],[0],[0],[1.7137299999885727],"[""trial_ahead_box""]",0,79,79,51,1,hallway5.jpg,frontDoor5.jpg,hayfield4.jpg,firestation5.jpg,,
Image_List_1,,,,,,,,,,,,,,,,44237,2020-11-18_16h44.36.722,lingCatScenes,2020.1.3,MacIntel,60,"[1280,800]",,,"[""trial_left_box""]",,,,,,,,,,,,liquorstore7.jpg,space,3.164445,[-0.397529296875],[-0.30630859375],[1],[0],[0],[2.896745000005467],"[""trial_left_box""]",0,80,80,68,1,parkinglot.jpg,lightingstore4.jpg,lockerroom2.jpg,hospitalroom3.jpg,,
Image_List_1,,,,,,,,,,,,,,,,44237,2020-11-18_16h44.36.722,lingCatScenes,2020.1.3,MacIntel,60,"[1280,800]",,,"[""trial_ahead_box"",""trial_slight_right_box""]",,,,,,,,,,,,cornfield2.jpg,space,3.9519,"[0.0012890625,0.2075927734375]","[-0.277138671875,-0.290185546875]","[1,1]","[0,0]","[0,0]","[1.613855000003241,2.9477250000054482]","[""trial_ahead_box"",""trial_slight_right_box""]",0,81,81,29,1,deck2.jpg,cliff2.jpg,constructionSite4.jpg,bridalboutique3.jpg,,
Image_List_1,,,,,,,,,,,,,,,,44237,2020-11-18_16h44.36.722,lingCatScenes,2020.1.3,MacIntel,60,"[1280,800]",,,"[""trial_ahead_box""]",,,,,,,,,,,,frontDoor3.jpg,space,2.565355,"[0.03265625,0.0055224609375]","[-0.2856201171875,-0.2853125]","[1,1]","[0,0]","[0,0]","[1.8143249999848194,2.280979999981355]","[""trial_ahead_box""]",0,82,82,49,1,greenhouse5.jpg,flowershop3.jpg,greenhouse.jpg,farm2.jpg,,
Image_List_1,,,,,,,,,,,,,,,,44237,2020-11-18_16h44.36.722,lingCatScenes,2020.1.3,MacIntel,60,"[1280,800]",,,"[""trial_left_box""]",,,,,,,,,,,,cubicle4.jpg,space,3.516455,[-0.4039404296875],[-0.3087744140625],[1],[0],[0],[2.162804999999935],"[""trial_left_box""]",0,83,83,31,1,desertvegetation6.jpg,conference4.jpg,courtroom2.jpg,cabin3.jpg,,
Image_List_1,,,,,,,,,,,,,,,,44237,2020-11-18_16h44.36.722,lingCatScenes,2020.1.3,MacIntel,60,"[1280,800]",,,"[""trial_left_box"",""trial_right_box""]",,,,,,,,,,,,igloo2.jpg,space,6.784135,"[-0.406259765625,0.3925244140625]","[-0.3069140625,-0.2823876953125]","[1,1]","[0,0]","[0,0]","[3.963705000001937,6.482344999996712]","[""trial_left_box"",""trial_right_box""]",0,84,84,64,1,newsstand5.jpg,jewelrystore8.jpg,lab5.jpg,homegarage2.jpg,,
Image_List_1,,,,,,,,,,,,,,,,44237,2020-11-18_16h44.36.722,lingCatScenes,2020.1.3,MacIntel,60,"[1280,800]",,,[],,,,,,,,,,,,library_aisle3.jpg,space,2.631565,[-0.027724609375],[-0.3097705078125],[1],[0],[0],[2.1961999999766704],[],0,85,85,67,1,park7.jpg,laundromat4.jpg,liquorstore2.jpg,hospitalroom2.jpg,,
Image_List_1,,,,,,,,,,,,,,,,44237,2020-11-18_16h44.36.722,lingCatScenes,2020.1.3,MacIntel,60,"[1280,800]",,,"[""trial_slight_right_box"",""trial_right_box""]",,,,,,,,,,,,auto_showroom3.jpg,space,6.966755,"[0.1876904296875,0.405673828125]","[-0.317138671875,-0.3161328125]","[1,1]","[0,0]","[0,0]","[1.995775000017602,2.480520000011893]","[""trial_slight_right_box"",""trial_right_box""]",0,86,86,9,1,bar2.jpg,ballroom2.jpg,basement5.jpg,arcade2.jpg,,
Image_List_1,,,,,,,,,,,,,,,,44237,2020-11-18_16h44.36.722,lingCatScenes,2020.1.3,MacIntel,60,"[1280,800]",,,"[""trial_ahead_box""]",,,,,,,,,,,,waitingroom2.jpg,space,2.64746,[-0.0068017578125],[-0.286552734375],[1],[0],[0],[1.695240000000922],"[""trial_ahead_box""]",0,87,87,95,1,warehouse2.jpg,stripmall6.jpg,weightroom4.jpg,tvstudio3.jpg,,
Image_List_1,,,,,,,,,,,,,,,,44237,2020-11-18_16h44.36.722,lingCatScenes,2020.1.3,MacIntel,60,"[1280,800]",,,"[""trial_slight_right_box""]",,,,,,,,,,,,lockerroom4.jpg,space,3.562755,[0.205927734375],[-0.2938623046875],[1],[0],[0],[1.3955600000044797],"[""trial_slight_right_box""]",0,88,88,70,1,pavilion.jpg,lockerroom3.jpg,minigolf8.jpg,igloo.jpg,,
Image_List_1,,,,,,,,,,,,,,,,44237,2020-11-18_16h44.36.722,lingCatScenes,2020.1.3,MacIntel,60,"[1280,800]",,,"[""trial_slight_right_box"",""trial_slight_left_box""]",,,,,,,,,,,,hut2.jpg,space,5.33522,"[0.2227978515625,-0.21490234375,-0.2105615234375]","[-0.3062890625,-0.3272021484375,-0.3022021484375]","[1,1,1]","[0,0,0]","[0,0,0]","[2.7303350000001956,4.281344999995781,4.865174999984447]","[""trial_slight_right_box"",""trial_slight_left_box""]",0,89,89,63,1,museum6.jpg,hotelRoom2.jpg,lab4.jpg,highway2.jpg,,
Image_List_1,,,,,,,,,,,,,,,,44237,2020-11-18_16h44.36.722,lingCatScenes,2020.1.3,MacIntel,60,"[1280,800]",,,"[""trial_slight_left_box""]",,,,,,,,,,,,drycleaners4.jpg,space,2.48193,[-0.201083984375],[-0.2827099609375],[1],[0],[0],[1.647079999995185],"[""trial_slight_left_box""]",0,90,90,40,1,farm1.jpg,drymountains.jpg,dugout1.jpg,clothingstore3.jpg,,
Image_List_1,,,,,,,,,,,,,,,,44237,2020-11-18_16h44.36.722,lingCatScenes,2020.1.3,MacIntel,60,"[1280,800]",,,"[""trial_left_box"",""trial_ahead_box"",""trial_sharp_right_box"",""trial_sharp_left_box"",""trial_right_box"",""trial_slight_right_box"",""trial_slight_left_box""]",,,,,,,,,,,,savanna5.jpg,space,16.455715,"[-0.379931640625,-0.00087890625,0.5801123046875,-0.5877734375,0.3782958984375,0.2092822265625,-0.2049951171875]","[-0.32376953125,-0.31076171875,-0.304013671875,-0.3126025390625,-0.2829638671875,-0.2955322265625,-0.297412109375]","[1,1,1,1,1,1,1]","[0,0,0,0,0,0,0]","[0,0,0,0,0,0,0]","[10.201789999991888,11.85015499999281,12.735140000004321,13.967715000006137,14.802464999986114,15.653699999995297,16.2045999999973]","[""trial_left_box"",""trial_ahead_box"",""trial_sharp_right_box"",""trial_sharp_left_box"",""trial_right_box"",""trial_slight_right_box"",""trial_slight_left_box""]",0,91,91,90,1,trainStation1.jpg,sidewalk1.jpg,stripmall3.jpg,shoestore4.jpg,,
Image_List_1,,,,,,,,,,,,,,,,44237,2020-11-18_16h44.36.722,lingCatScenes,2020.1.3,MacIntel,60,"[1280,800]",,,"[""trial_slight_right_box"",""trial_ahead_box"",""trial_slight_left_box"",""trial_right_box""]",,,,,,,,,,,,boardwalk6.jpg,space,6.716345,"[0.1764404296875,0.012724609375,-0.1852978515625,0.5837109375,0.46853515625,0.412255859375]","[-0.3064453125,-0.30044921875,-0.3131103515625,-0.2628466796875,-0.2911474609375,-0.295673828125]","[1,1,1,1,1,1]","[0,0,0,0,0,0]","[0,0,0,0,0,0]","[1.495519999996759,2.3128799999831244,3.7131200000003446,4.780429999984335,5.930259999993723,6.313694999989821]","[""trial_slight_right_box"",""trial_ahead_box"",""trial_slight_left_box"",""trial_right_box""]",0,92,92,20,1,cave.jpg,campsite3.jpg,cave4.jpg,basketballcourt7.jpg,,
Image_List_1,,,,,,,,,,,,,,,,44237,2020-11-18_16h44.36.722,lingCatScenes,2020.1.3,MacIntel,60,"[1280,800]",,,"[""trial_slight_right_box"",""trial_slight_left_box""]",,,,,,,,,,,,museum5.jpg,space,5.464045,"[0.178720703125,-0.1998876953125]","[-0.300517578125,-0.3025341796875]","[1,1]","[0,0]","[0,0]","[4.164634999993723,4.965339999995194]","[""trial_slight_right_box"",""trial_slight_left_box""]",0,93,93,72,1,pharmacy4.jpg,musicStore1.jpg,museum4.jpg,kindergarten_classroom.jpg,,
Image_List_1,,,,,,,,,,,,,,,,44237,2020-11-18_16h44.36.722,lingCatScenes,2020.1.3,MacIntel,60,"[1280,800]",,,"[""trial_slight_left_box""]",,,,,,,,,,,,hometheater2.jpg,space,3.215155,[-0.18064453125],[-0.286953125],[1],[0],[0],[2.9649999999965075],"[""trial_slight_left_box""]",0,94,94,60,1,lightingstore3.jpg,homegarage.jpg,kindergarten_classroom6.jpg,hallway.jpg,,
Image_List_1,,,,,,,,,,,,,,,,44237,2020-11-18_16h44.36.722,lingCatScenes,2020.1.3,MacIntel,60,"[1280,800]",,,"[""trial_slight_left_box""]",,,,,,,,,,,,castle3.jpg,space,3.00029,[-0.1888818359375],[-0.3025927734375],[1],[0],[0],[2.497475000011036],"[""trial_slight_left_box""]",0,95,95,27,1,courtroom3.jpg,churchInside4.jpg,closet.jpg,brewery2.jpg,,
Image_List_1,,,,,,,,,,,,,,,,44237,2020-11-18_16h44.36.722,lingCatScenes,2020.1.3,MacIntel,60,"[1280,800]",,,"[""trial_ahead_box""]",,,,,,,,,,,,frontLawn4.jpg,space,2.114345,[-0.0243115234375],[-0.3218701171875],[1],[0],[0],[1.6792799999821],"[""trial_ahead_box""]",0,96,96,50,1,grocerystore6.jpg,forestpath6.jpg,hallway2.jpg,fireplace4.jpg,,
Image_List_1,,,,,,,,,,,,,,,,44237,2020-11-18_16h44.36.722,lingCatScenes,2020.1.3,MacIntel,60,"[1280,800]",,,"[""trial_slight_right_box""]",,,,,,,,,,,,readingroom5.jpg,space,1.93983,[0.18984375],[-0.2928662109375],[1],[0],[0],[1.7102350000059232],"[""trial_slight_right_box""]",0,97,97,84,1,sidewalk2.jpg,restaurant13.jpg,sandDunes_desert_outdoor.jpg,rooftop2.jpg,,
Image_List_1,,,,,,,,,,,,,,,,44237,2020-11-18_16h44.36.722,lingCatScenes,2020.1.3,MacIntel,60,"[1280,800]",,,"[""trial_ahead_box""]",,,,,,,,,,,,attic2.jpg,space,1.513415,[-0.0001123046875],[-0.29537109375],[1],[0],[0],[1.3286000000080094],"[""trial_ahead_box""]",0,98,98,7,1,banquetHall4.jpg,backstage1.jpg,baggageClaim3.jpg,applestore2.jpg,,
Image_List_1,,,,,,,,,,,,,,,,44237,2020-11-18_16h44.36.722,lingCatScenes,2020.1.3,MacIntel,60,"[1280,800]",,,"[""trial_right_box""]",,,,,,,,,,,,pasture.jpg,space,1.767815,[0.398505859375],[-0.3127685546875],[1],[0],[0],[1.528954999987036],"[""trial_right_box""]",0,99,99,79,1,poolhall2.jpeg,playground9.jpg,pier2.jpg,observatory2.jpg,,
Image_List_1,,,,,,,,,,,,,,,,44237,2020-11-18_16h44.36.722,lingCatScenes,2020.1.3,MacIntel,60,,,,,,,,,,,,,,,,,,,,,,,,,,,,,,,,,,,space,19.03593
