image_list,key_resp_intructions.keys,key_resp_intructions.rt,key_resp_intructions_3.keys,key_resp_intructions_3.rt,PracticeComplete_2.keys,PracticeComplete_2.rt,PracticeComplete_3.keys,PracticeComplete_3.rt,demo_trials.thisRepN,demo_trials.thisTrialN,demo_trials.thisN,demo_trials.thisIndex,demo_trials.ran,demo_images,path_images,participant,date,expName,psychopyVersion,OS,frameRate,windowSize,drawing,numDrawings,drawingSizes,practice_complete.keys,practice_complete.rt,PracticeComplete.keys,PracticeComplete.rt,practice_trials.thisRepN,practice_trials.thisTrialN,practice_trials.thisN,practice_trials.thisIndex,practice_trials.ran,practice_images,feedback_images,key_resp_intructions_2.keys,key_resp_intructions_2.rt,Image_List_2,trial_complete.keys,trial_complete.rt,trials.thisRepN,trials.thisTrialN,trials.thisN,trials.thisIndex,trials.ran,Image_List_1,Image_List_3,Image_List_4,Image_List_5,key_resp.keys,key_resp.rt
Image_List_2,space,8.26788,space,7.655975,space,14.66897,space,2.935875,0,0,0,3,1,ahead_right_left.jpg,ahead_right_left_path.jpg,44239,2020-11-25_10h31.45.576,analogCatScenes,2020.1.3,MacIntel,60,,,,,,,,,,,,,,,,,,,,,,,,,,,,,,,
Image_List_2,,,,,space,3.72725,space,3.01251,0,1,1,4,1,left.jpg,left_path.jpg,44239,2020-11-25_10h31.45.576,analogCatScenes,2020.1.3,MacIntel,60,,,,,,,,,,,,,,,,,,,,,,,,,,,,,,,
Image_List_2,,,,,space,1.622335,space,1.011015,0,2,2,0,1,ahead.jpg,ahead_path.jpg,44239,2020-11-25_10h31.45.576,analogCatScenes,2020.1.3,MacIntel,60,,,,,,,,,,,,,,,,,,,,,,,,,,,,,,,
Image_List_2,,,,,space,1.724825,space,0.89135,0,3,3,1,1,ahead_left.jpg,ahead_left_path.jpg,44239,2020-11-25_10h31.45.576,analogCatScenes,2020.1.3,MacIntel,60,,,,,,,,,,,,,,,,,,,,,,,,,,,,,,,
Image_List_2,,,,,space,1.08081,space,1.872495,0,4,4,2,1,ahead_right.jpg,ahead_right_path.jpg,44239,2020-11-25_10h31.45.576,analogCatScenes,2020.1.3,MacIntel,60,,,,,,,,,,,,,,,,,,,,,,,,,,,,,,,
Image_List_2,,,,,space,0.81339,space,0.847045,0,5,5,5,1,right.jpg,right_path.jpg,44239,2020-11-25_10h31.45.576,analogCatScenes,2020.1.3,MacIntel,60,,,,,,,,,,,,,,,,,,,,,,,,,,,,,,,
Image_List_2,,,,,space,0.965915,space,0.771195,0,6,6,6,1,right_left.jpg,right_left_path.jpg,44239,2020-11-25_10h31.45.576,analogCatScenes,2020.1.3,MacIntel,60,,,,,,,,,,,,,,,,,,,,,,,,,,,,,,,
Image_List_2,,,,,,,,,,,,,,,,44239,2020-11-25_10h31.45.576,analogCatScenes,2020.1.3,MacIntel,60,"[1280,800]",[],0,[],space,0.879255,space,1.77401,0,0,0,2,1,ahead_right_2.jpg,ahead_right_2_path.jpg,,,,,,,,,,,,,,,,
Image_List_2,,,,,,,,,,,,,,,,44239,2020-11-25_10h31.45.576,analogCatScenes,2020.1.3,MacIntel,60,"[1280,800]",[],0,[],space,0.992495,space,0.816785,0,1,1,4,1,left_2.jpg,left_2_path.jpg,,,,,,,,,,,,,,,,
Image_List_2,,,,,,,,,,,,,,,,44239,2020-11-25_10h31.45.576,analogCatScenes,2020.1.3,MacIntel,60,"[1280,800]",[],0,[],space,0.706265,space,1.04053,0,2,2,0,1,ahead_2.jpg,ahead_2_path.jpg,,,,,,,,,,,,,,,,
Image_List_2,,,,,,,,,,,,,,,,44239,2020-11-25_10h31.45.576,analogCatScenes,2020.1.3,MacIntel,60,"[1280,800]",[],0,[],space,1.4107,space,0.779245,0,3,3,1,1,ahead_left_2.jpg,ahead_left_2_path.jpg,,,,,,,,,,,,,,,,
Image_List_2,,,,,,,,,,,,,,,,44239,2020-11-25_10h31.45.576,analogCatScenes,2020.1.3,MacIntel,60,"[1280,800]",[],0,[],space,2.664985,space,6.451385,0,4,4,3,1,ahead_right_left_2.jpg,ahead_right_left_2_path.jpg,,,,,,,,,,,,,,,,
Image_List_2,,,,,,,,,,,,,,,,44239,2020-11-25_10h31.45.576,analogCatScenes,2020.1.3,MacIntel,60,"[1280,800]",[],0,[],space,0.77973,space,0.55576,0,5,5,6,1,right_left_2.jpg,right_left_2_path.jpg,,,,,,,,,,,,,,,,
Image_List_2,,,,,,,,,,,,,,,,44239,2020-11-25_10h31.45.576,analogCatScenes,2020.1.3,MacIntel,60,"[1280,800]",[],0,[],space,0.824245,space,0.490055,0,6,6,5,1,right_2.jpg,right_2_path.jpg,,,,,,,,,,,,,,,,
Image_List_2,,,,,,,,,,,,,,,,44239,2020-11-25_10h31.45.576,analogCatScenes,2020.1.3,MacIntel,60,"[1280,800]","[[[-0.009208984375,-0.1971240234375],[-0.009208984375,-0.1971240234375],[-0.009208984375,-0.1971240234375],[-0.009208984375,-0.1971240234375],[-0.009208984375,-0.1971240234375],[-0.009208984375,-0.1971240234375],[-0.009208984375,-0.1971240234375],[-0.009208984375,-0.1971240234375],[-0.009208984375,-0.1971240234375],[-0.009208984375,-0.1971240234375],[-0.009208984375,-0.1971240234375],[-0.009208984375,-0.1971240234375],[-0.009208984375,-0.1971240234375],[-0.009208984375,-0.1971240234375],[-0.009208984375,-0.1971240234375],[-0.009208984375,-0.1971240234375],[-0.009208984375,-0.196259765625],[-0.009208984375,-0.1949560546875],[-0.01181640625,-0.1923486328125],[-0.013115234375,-0.1884423828125],[-0.01572265625,-0.187138671875],[-0.0170263671875,-0.183232421875],[-0.01962890625,-0.180625],[-0.0209326171875,-0.178017578125],[-0.022236328125,-0.174111328125],[-0.02484375,-0.17150390625],[-0.0265771484375,-0.1680322265625],[-0.027880859375,-0.1654248046875],[-0.0291845703125,-0.162822265625],[-0.03048828125,-0.16021484375],[-0.03048828125,-0.16021484375],[-0.0317919921875,-0.1589111328125],[-0.0317919921875,-0.1576123046875],[-0.03439453125,-0.153701171875],[-0.03439453125,-0.153701171875],[-0.0356982421875,-0.153701171875],[-0.0365673828125,-0.1519677734375],[-0.03787109375,-0.1519677734375],[-0.039169921875,-0.1506640625],[-0.0404736328125,-0.1493603515625],[-0.0404736328125,-0.148056640625],[-0.0430810546875,-0.148056640625],[-0.044384765625,-0.1454541015625],[-0.04568359375,-0.144150390625],[-0.0469873046875,-0.1428466796875],[-0.0504638671875,-0.140673828125],[-0.0504638671875,-0.140673828125],[-0.0517626953125,-0.139375],[-0.05306640625,-0.1380712890625],[-0.0543701171875,-0.136767578125],[-0.0543701171875,-0.1354638671875],[-0.055673828125,-0.13416015625],[-0.0569775390625,-0.132861328125],[-0.057841796875,-0.131123046875],[-0.057841796875,-0.1298193359375],[-0.0591455078125,-0.127216796875],[-0.0617529296875,-0.1259130859375],[-0.0617529296875,-0.124609375],[-0.06435546875,-0.122001953125],[-0.06435546875,-0.120703125],[-0.066962890625,-0.1193994140625],[-0.0682666015625,-0.1193994140625],[-0.070869140625,-0.1167919921875],[-0.072607421875,-0.1159228515625],[-0.07521484375,-0.1146240234375],[-0.076513671875,-0.1133203125],[-0.07912109375,-0.1120166015625],[-0.0804248046875,-0.110712890625],[-0.081728515625,-0.1094091796875],[-0.08302734375,-0.1081103515625],[-0.0843310546875,-0.106806640625],[-0.0860693359375,-0.1059375],[-0.0860693359375,-0.1059375],[-0.0869384765625,-0.105068359375],[-0.0882421875,-0.1037646484375],[-0.089541015625,-0.1024609375],[-0.0908447265625,-0.101162109375],[-0.0921484375,-0.0998583984375],[-0.0947509765625,-0.0972509765625],[-0.0973583984375,-0.0946484375],[-0.0999658203125,-0.092041015625],[-0.102568359375,-0.0894384765625],[-0.10517578125,-0.0868310546875],[-0.1077783203125,-0.0842236328125],[-0.1103857421875,-0.08162109375],[-0.1129931640625,-0.079013671875],[-0.1168994140625,-0.0764111328125],[-0.1195068359375,-0.0738037109375],[-0.122109375,-0.0711962890625],[-0.124716796875,-0.06859375],[-0.1273193359375,-0.0646826171875],[-0.1299267578125,-0.062080078125],[-0.132529296875,-0.058173828125],[-0.13513671875,-0.05556640625],[-0.1364404296875,-0.052958984375],[-0.13904296875,-0.0503564453125],[-0.141650390625,-0.0477490234375],[-0.143388671875,-0.0460107421875],[-0.1459912109375,-0.0447119140625],[-0.147294921875,-0.043408203125],[-0.14990234375,-0.0421044921875],[-0.1512060546875,-0.04080078125],[-0.1525048828125,-0.04080078125],[-0.15380859375,-0.0394970703125],[-0.1551123046875,-0.0394970703125],[-0.1559814453125,-0.0386328125],[-0.1568505859375,-0.0386328125],[-0.1568505859375,-0.0386328125],[-0.1581494140625,-0.0386328125],[-0.1590185546875,-0.037763671875],[-0.1598876953125,-0.037763671875],[-0.16119140625,-0.037763671875],[-0.1624951171875,-0.037763671875],[-0.163798828125,-0.0364599609375],[-0.1664013671875,-0.0364599609375],[-0.167705078125,-0.0364599609375],[-0.1690087890625,-0.03515625],[-0.1703076171875,-0.03515625],[-0.1720458984375,-0.03515625],[-0.173349609375,-0.03515625],[-0.173349609375,-0.03515625],[-0.1746533203125,-0.03515625],[-0.17595703125,-0.03515625],[-0.177255859375,-0.03515625],[-0.178505859375,-0.03515625],[-0.178505859375,-0.03515625],[-0.178505859375,-0.03515625],[-0.178505859375,-0.03515625],[-0.178505859375,-0.03515625],[-0.178505859375,-0.03515625],[-0.178505859375,-0.03515625],[-0.178505859375,-0.03515625],[-0.178505859375,-0.03515625],[-0.178505859375,-0.03515625],[-0.178505859375,-0.03515625],[-0.178505859375,-0.03515625],[-0.178505859375,-0.03515625],[-0.178505859375,-0.03515625],[-0.178505859375,-0.03515625],[-0.178505859375,-0.03515625],[-0.178505859375,-0.03515625],[-0.178505859375,-0.03515625],[-0.178505859375,-0.03515625],[-0.178505859375,-0.03515625],[-0.178505859375,-0.03515625],[-0.178505859375,-0.03515625],[-0.178505859375,-0.03515625],[-0.178505859375,-0.03515625],[-0.178505859375,-0.03515625],[-0.178505859375,-0.03515625],[-0.178505859375,-0.03515625],[-0.178505859375,-0.03515625],[-0.178505859375,-0.03515625],[-0.178505859375,-0.03515625],[-0.178505859375,-0.03515625],[-0.178505859375,-0.03515625],[-0.178505859375,-0.03515625],[-0.178505859375,-0.03515625],[-0.178505859375,-0.03515625],[-0.178505859375,-0.03515625],[-0.178505859375,-0.03515625],[-0.178505859375,-0.03515625],[-0.178505859375,-0.03515625],[-0.178505859375,-0.03515625],[-0.178505859375,-0.03515625],[-0.178505859375,-0.03515625],[-0.178505859375,-0.03515625],[-0.178505859375,-0.03515625],[-0.178505859375,-0.03515625],[-0.178505859375,-0.03515625],[-0.178505859375,-0.03515625],[-0.178505859375,-0.03515625],[-0.178505859375,-0.03515625],[-0.178505859375,-0.03515625],[-0.178505859375,-0.03515625],[-0.178505859375,-0.03515625],[-0.178505859375,-0.03515625],[-0.178505859375,-0.03515625],[-0.178505859375,-0.03515625],[-0.178505859375,-0.03515625],[-0.178505859375,-0.03515625],[-0.178505859375,-0.03515625],[-0.178505859375,-0.03515625],[-0.178505859375,-0.03515625],[-0.178505859375,-0.03515625],[-0.178505859375,-0.03515625],[-0.178505859375,-0.03515625],[-0.178505859375,-0.03515625],[-0.178505859375,-0.03515625],[-0.178505859375,-0.03515625],[-0.178505859375,-0.03515625],[-0.178505859375,-0.03515625],[-0.178505859375,-0.03515625],[-0.178505859375,-0.03515625],[-0.178505859375,-0.03515625],[-0.178505859375,-0.03515625],[-0.178505859375,-0.03515625],[-0.178505859375,-0.03515625],[-0.178505859375,-0.03515625],[-0.178505859375,-0.03515625],[-0.178505859375,-0.03515625]]]",1,[201],,,,,,,,,,,,space,3.92505,wineVineyard2.jpg,space,26.44532,0,0,0,97,1,warehouseoutside4.jpg,waitingroom4.jpg,winebarrel3.jpg,warehouseoutside3.jpg,,
Image_List_2,,,,,,,,,,,,,,,,44239,2020-11-25_10h31.45.576,analogCatScenes,2020.1.3,MacIntel,60,"[1280,800]","[[[0.0059130859375,-0.1994140625],[0.0059130859375,-0.1994140625],[0.0059130859375,-0.1994140625],[0.0059130859375,-0.1994140625],[0.0059130859375,-0.1994140625],[0.0059130859375,-0.1994140625],[0.0059130859375,-0.1994140625],[0.0059130859375,-0.1994140625],[0.0059130859375,-0.1994140625],[0.0059130859375,-0.1994140625],[0.0059130859375,-0.1994140625],[0.0059130859375,-0.1994140625],[0.0059130859375,-0.1994140625],[0.0059130859375,-0.1994140625],[0.0059130859375,-0.1994140625],[0.0059130859375,-0.1994140625],[0.0059130859375,-0.1994140625],[0.0059130859375,-0.1994140625],[0.0059130859375,-0.1994140625],[0.0059130859375,-0.1994140625],[0.0059130859375,-0.1994140625],[0.0059130859375,-0.1994140625],[0.0059130859375,-0.1994140625],[0.0059130859375,-0.1994140625],[0.0059130859375,-0.1994140625],[0.0059130859375,-0.1994140625],[0.0059130859375,-0.1994140625],[0.0059130859375,-0.1994140625],[0.0059130859375,-0.1994140625],[0.0059130859375,-0.1994140625],[0.0059130859375,-0.1994140625],[0.0059130859375,-0.1994140625],[0.0059130859375,-0.1994140625],[0.0059130859375,-0.1994140625],[0.0059130859375,-0.1994140625],[0.0059130859375,-0.1994140625],[0.0059130859375,-0.1994140625],[0.0059130859375,-0.1994140625],[0.0059130859375,-0.1994140625],[0.0059130859375,-0.1994140625],[0.0059130859375,-0.1994140625],[0.0059130859375,-0.1994140625],[0.0059130859375,-0.1994140625],[0.0059130859375,-0.1994140625],[0.0059130859375,-0.1994140625],[0.0059130859375,-0.1994140625],[0.0059130859375,-0.1994140625],[0.0059130859375,-0.1994140625],[0.0059130859375,-0.1994140625],[0.0059130859375,-0.1994140625],[0.0059130859375,-0.1994140625],[0.0059130859375,-0.1994140625],[0.0059130859375,-0.1994140625],[0.0059130859375,-0.1994140625],[0.0059130859375,-0.1994140625],[0.0059130859375,-0.1994140625],[0.0059130859375,-0.1994140625],[0.0059130859375,-0.1994140625],[0.0059130859375,-0.1994140625],[0.0059130859375,-0.1994140625],[0.0059130859375,-0.1994140625],[0.0059130859375,-0.1994140625],[0.0059130859375,-0.1994140625],[0.0059130859375,-0.1994140625],[0.0059130859375,-0.1994140625],[0.0059130859375,-0.1994140625],[0.0059130859375,-0.1994140625],[0.0059130859375,-0.1994140625],[0.0059130859375,-0.1994140625],[0.0059130859375,-0.1994140625],[0.0059130859375,-0.1994140625],[0.0059130859375,-0.1994140625],[0.0059130859375,-0.1994140625],[0.0059130859375,-0.1994140625],[0.0059130859375,-0.1994140625],[0.0059130859375,-0.1994140625],[0.0059130859375,-0.1994140625],[0.0059130859375,-0.1994140625],[0.0059130859375,-0.1994140625],[0.0059130859375,-0.1994140625],[0.0059130859375,-0.1994140625],[0.0059130859375,-0.1994140625],[0.0059130859375,-0.1994140625],[0.0059130859375,-0.1994140625],[0.0059130859375,-0.1994140625],[0.0059130859375,-0.1994140625],[0.0059130859375,-0.1994140625],[0.0059130859375,-0.1994140625],[0.0059130859375,-0.1994140625],[0.0059130859375,-0.1994140625],[0.0059130859375,-0.1994140625],[0.0059130859375,-0.1994140625],[0.0059130859375,-0.1994140625],[0.0059130859375,-0.1994140625],[0.0059130859375,-0.1994140625],[0.0059130859375,-0.1994140625],[0.0059130859375,-0.1994140625],[0.0059130859375,-0.1994140625],[0.0059130859375,-0.1994140625],[0.0059130859375,-0.1994140625],[0.0059130859375,-0.1994140625],[0.0059130859375,-0.1994140625],[0.0059130859375,-0.1994140625],[0.0059130859375,-0.1994140625],[0.0059130859375,-0.1994140625],[0.0059130859375,-0.1994140625],[0.0059130859375,-0.1994140625],[0.0059130859375,-0.1994140625],[0.0059130859375,-0.1994140625],[0.0059130859375,-0.1994140625],[0.0059130859375,-0.1994140625],[0.0059130859375,-0.1994140625],[0.0059130859375,-0.1994140625],[0.0059130859375,-0.1994140625],[0.0059130859375,-0.1994140625],[0.0059130859375,-0.1994140625],[0.0059130859375,-0.1994140625],[0.0059130859375,-0.1994140625],[0.0059130859375,-0.1994140625],[0.0059130859375,-0.1994140625],[0.0059130859375,-0.1994140625],[0.0059130859375,-0.1994140625],[0.0059130859375,-0.1994140625],[0.0059130859375,-0.1994140625],[0.0059130859375,-0.1994140625],[0.0059130859375,-0.1994140625],[0.0059130859375,-0.1994140625],[0.0059130859375,-0.1994140625],[0.0059130859375,-0.1994140625],[0.0059130859375,-0.1994140625],[0.0059130859375,-0.1994140625],[0.0059130859375,-0.1994140625],[0.0059130859375,-0.1994140625],[0.0059130859375,-0.1994140625],[0.0059130859375,-0.1994140625],[0.0059130859375,-0.1994140625],[0.0059130859375,-0.1994140625],[0.0059130859375,-0.1994140625],[0.0059130859375,-0.1994140625],[0.0059130859375,-0.1994140625],[0.0059130859375,-0.1994140625],[0.0059130859375,-0.1994140625],[0.0059130859375,-0.1994140625],[0.0059130859375,-0.1994140625],[0.0059130859375,-0.1994140625],[0.0059130859375,-0.1994140625],[0.0059130859375,-0.1994140625],[0.0059130859375,-0.1994140625],[0.0059130859375,-0.1994140625],[0.0059130859375,-0.1994140625],[0.0059130859375,-0.1994140625],[0.0059130859375,-0.1994140625],[0.0059130859375,-0.1994140625],[0.0059130859375,-0.1994140625],[0.0059130859375,-0.1994140625],[0.0059130859375,-0.1994140625],[0.0059130859375,-0.1994140625],[0.0059130859375,-0.1994140625],[0.0059130859375,-0.1994140625],[0.0059130859375,-0.1994140625],[0.0059130859375,-0.1994140625],[0.0059130859375,-0.1994140625],[0.0059130859375,-0.1994140625],[0.0059130859375,-0.1994140625],[0.0059130859375,-0.1994140625],[0.0059130859375,-0.1994140625],[0.0059130859375,-0.1994140625],[0.0059130859375,-0.1994140625],[0.0059130859375,-0.1994140625],[0.0059130859375,-0.1994140625],[0.0059130859375,-0.1994140625],[0.0059130859375,-0.1994140625],[0.0059130859375,-0.1994140625],[0.0059130859375,-0.1994140625],[0.0059130859375,-0.1994140625],[0.0059130859375,-0.1981640625],[0.0059130859375,-0.1968603515625],[0.0059130859375,-0.1942578125],[0.0059130859375,-0.1929541015625],[0.0059130859375,-0.191650390625],[0.0059130859375,-0.1903515625],[0.0059130859375,-0.1890478515625],[0.0059130859375,-0.1881787109375],[0.0059130859375,-0.186875],[0.0059130859375,-0.1855712890625],[0.0059130859375,-0.184267578125],[0.0059130859375,-0.18296875],[0.0059130859375,-0.180361328125],[0.0059130859375,-0.1790576171875],[0.0059130859375,-0.1777587890625],[0.0059130859375,-0.1760205078125],[0.0059130859375,-0.1760205078125],[0.0059130859375,-0.1751513671875],[0.0059130859375,-0.17384765625],[0.0059130859375,-0.1725439453125],[0.0059130859375,-0.1712451171875],[0.004609375,-0.1686376953125],[0.004609375,-0.1660302734375],[0.004609375,-0.163427734375],[0.004609375,-0.1595166015625],[0.004609375,-0.1569140625],[0.004609375,-0.15126953125],[0.004609375,-0.148662109375],[0.004609375,-0.148662109375],[0.004609375,-0.144755859375],[0.0033056640625,-0.1408447265625],[0.0033056640625,-0.135634765625],[0.0033056640625,-0.131728515625],[0.002001953125,-0.1265185546875],[0.002001953125,-0.122607421875],[0.002001953125,-0.1191357421875],[0.002001953125,-0.1165283203125],[0.002001953125,-0.11392578125],[0.002001953125,-0.111318359375],[0.002001953125,-0.1100146484375],[0.002001953125,-0.107412109375],[0.002001953125,-0.1061083984375],[0.002001953125,-0.1035009765625],[0.002001953125,-0.1008984375],[0.002001953125,-0.098291015625],[0.002001953125,-0.0956884765625],[0.002001953125,-0.0939501953125],[0.002001953125,-0.092646484375],[0.002001953125,-0.0900390625],[0.002001953125,-0.088740234375],[0.002001953125,-0.0874365234375],[0.002001953125,-0.0848291015625],[0.002001953125,-0.083525390625],[0.002001953125,-0.0809228515625],[0.002001953125,-0.0791845703125],[0.002001953125,-0.077880859375],[0.002001953125,-0.07658203125],[0.002001953125,-0.0726708984375],[0.002001953125,-0.070068359375],[0.002001953125,-0.064853515625],[0.002001953125,-0.0622509765625],[0.002001953125,-0.0596435546875],[0.002001953125,-0.0596435546875],[0.002001953125,-0.05833984375],[0.002001953125,-0.057041015625],[0.002001953125,-0.057041015625],[0.002001953125,-0.057041015625],[0.002001953125,-0.057041015625],[0.002001953125,-0.057041015625],[0.002001953125,-0.057041015625],[0.002001953125,-0.057041015625],[0.002001953125,-0.057041015625],[0.002001953125,-0.057041015625],[0.002001953125,-0.057041015625],[0.002001953125,-0.057041015625],[0.002001953125,-0.057041015625],[0.002001953125,-0.057041015625],[0.002001953125,-0.057041015625],[0.002001953125,-0.057041015625],[0.002001953125,-0.057041015625],[0.002001953125,-0.057041015625],[0.002001953125,-0.057041015625],[0.002001953125,-0.057041015625],[0.002001953125,-0.057041015625],[0.002001953125,-0.057041015625],[0.002001953125,-0.057041015625],[0.002001953125,-0.057041015625],[0.002001953125,-0.057041015625],[0.002001953125,-0.057041015625],[0.002001953125,-0.057041015625],[0.002001953125,-0.057041015625],[0.002001953125,-0.057041015625],[0.002001953125,-0.057041015625],[0.002001953125,-0.056171875],[0.002001953125,-0.053564453125],[0.0006982421875,-0.0509619140625],[0.0006982421875,-0.0483544921875],[0.0006982421875,-0.045751953125],[0.0006982421875,-0.04314453125],[-0.0006005859375,-0.0418408203125],[-0.0006005859375,-0.0409716796875],[-0.0006005859375,-0.03966796875],[-0.0006005859375,-0.038369140625],[-0.0006005859375,-0.0370654296875],[-0.001904296875,-0.0344580078125],[-0.001904296875,-0.03185546875],[-0.001904296875,-0.0305517578125],[-0.001904296875,-0.0288134765625],[-0.001904296875,-0.027509765625],[-0.001904296875,-0.0262109375],[-0.001904296875,-0.0249072265625],[-0.001904296875,-0.023603515625],[-0.001904296875,-0.0222998046875],[-0.001904296875,-0.0214306640625],[-0.001904296875,-0.0214306640625],[-0.001904296875,-0.02056640625],[-0.001904296875,-0.0192626953125],[-0.001904296875,-0.0183935546875],[-0.001904296875,-0.01708984375],[-0.001904296875,-0.0157861328125],[-0.001904296875,-0.01318359375],[-0.001904296875,-0.0118798828125],[-0.001904296875,-0.0092724609375],[-0.001904296875,-0.0079736328125],[-0.001904296875,-0.0053662109375],[-0.001904296875,-0.0044970703125],[-0.001904296875,-0.003193359375],[-0.001904296875,-0.0018896484375],[-0.001904296875,-0.0018896484375],[-0.001904296875,-0.0005908203125],[-0.001904296875,0.000712890625],[-0.001904296875,0.0033203125],[-0.001904296875,0.0059228515625],[-0.001904296875,0.0076611328125],[-0.001904296875,0.0102685546875],[-0.0006005859375,0.0115673828125],[-0.0006005859375,0.01287109375],[0.0006982421875,0.0141748046875],[0.0006982421875,0.0167822265625],[0.002001953125,0.0180810546875],[0.002001953125,0.0206884765625],[0.0033056640625,0.0232958984375],[0.0033056640625,0.0258984375],[0.004609375,0.028505859375],[0.004609375,0.0311083984375],[0.0059130859375,0.032412109375],[0.0059130859375,0.0337158203125],[0.0059130859375,0.036318359375],[0.0059130859375,0.0376220703125],[0.0059130859375,0.0402294921875],[0.0059130859375,0.041533203125],[0.0059130859375,0.0432666015625],[0.0059130859375,0.0458740234375],[0.0059130859375,0.047177734375],[0.0059130859375,0.0497802734375],[0.0059130859375,0.0523876953125],[0.0059130859375,0.054990234375],[0.0059130859375,0.0562939453125],[0.0059130859375,0.060205078125],[0.0059130859375,0.0628076171875],[0.0059130859375,0.0654150390625],[0.0059130859375,0.0671533203125],[0.0059130859375,0.069755859375],[0.0059130859375,0.07236328125],[0.0059130859375,0.0749658203125],[0.0059130859375,0.0775732421875],[0.0059130859375,0.0814794921875],[0.0059130859375,0.0840869140625],[0.0059130859375,0.0879931640625],[0.0059130859375,0.0906005859375],[0.0059130859375,0.093203125],[0.0059130859375,0.095810546875],[0.0059130859375,0.0971142578125],[0.0059130859375,0.1010205078125],[0.0059130859375,0.1036279296875],[0.0059130859375,0.108837890625],[0.0059130859375,0.1114404296875],[0.0050439453125,0.1149169921875],[0.0050439453125,0.1188232421875],[0.0050439453125,0.1214306640625],[0.0050439453125,0.124033203125],[0.0050439453125,0.1253369140625],[0.0050439453125,0.1253369140625],[0.0050439453125,0.1253369140625],[0.0050439453125,0.1253369140625],[0.0050439453125,0.1253369140625],[0.0050439453125,0.1253369140625],[0.0050439453125,0.1253369140625],[0.0050439453125,0.1253369140625],[0.0050439453125,0.1253369140625],[0.0050439453125,0.1253369140625],[0.0050439453125,0.1253369140625],[0.0050439453125,0.1253369140625],[0.0050439453125,0.1253369140625],[0.0050439453125,0.1253369140625]],[[-0.003759765625,-0.1912841796875],[-0.003759765625,-0.1912841796875],[-0.003759765625,-0.1912841796875],[-0.003759765625,-0.1912841796875],[-0.003759765625,-0.1912841796875],[-0.003759765625,-0.1912841796875],[-0.003759765625,-0.1912841796875],[-0.003759765625,-0.1912841796875],[-0.003759765625,-0.1912841796875],[-0.003759765625,-0.1912841796875],[-0.003759765625,-0.1912841796875],[-0.003759765625,-0.1912841796875],[-0.003759765625,-0.1912841796875],[-0.003759765625,-0.1912841796875],[-0.003759765625,-0.1912841796875],[-0.003759765625,-0.1912841796875],[-0.003759765625,-0.1912841796875],[-0.003759765625,-0.1912841796875],[-0.003759765625,-0.1912841796875],[-0.003759765625,-0.1912841796875],[-0.003759765625,-0.1912841796875],[-0.003759765625,-0.1912841796875],[-0.003759765625,-0.1912841796875],[-0.003759765625,-0.1912841796875],[-0.003759765625,-0.1912841796875],[-0.003759765625,-0.1912841796875],[-0.003759765625,-0.1912841796875],[-0.003759765625,-0.1900341796875],[-0.003759765625,-0.186123046875],[-0.0050634765625,-0.182216796875],[-0.0050634765625,-0.182216796875],[-0.0063671875,-0.179609375],[-0.0063671875,-0.175703125],[-0.007666015625,-0.173095703125],[-0.0089697265625,-0.171796875],[-0.0107080078125,-0.169189453125],[-0.01201171875,-0.1678857421875],[-0.0133154296875,-0.165283203125],[-0.0146142578125,-0.1639794921875],[-0.0146142578125,-0.1613720703125],[-0.01591796875,-0.1600732421875],[-0.0172216796875,-0.15876953125],[-0.018525390625,-0.156162109375],[-0.0211279296875,-0.1548583984375],[-0.022431640625,-0.152255859375],[-0.0250390625,-0.1483447265625],[-0.0285107421875,-0.1405322265625],[-0.029814453125,-0.1340185546875],[-0.032421875,-0.1275048828125],[-0.033720703125,-0.122294921875],[-0.0350244140625,-0.1183837890625],[-0.036328125,-0.11578125],[-0.0376318359375,-0.113173828125],[-0.040234375,-0.11056640625],[-0.04197265625,-0.1079638671875],[-0.044580078125,-0.104052734375],[-0.0471826171875,-0.1014501953125],[-0.0497900390625,-0.0975390625],[-0.052392578125,-0.0936328125],[-0.055,-0.0910302734375],[-0.057607421875,-0.0884228515625],[-0.0602099609375,-0.087119140625],[-0.0641162109375,-0.0819091796875],[-0.06802734375,-0.0793017578125],[-0.0732373046875,-0.074091796875],[-0.077578125,-0.0680126953125],[-0.080185546875,-0.0641064453125],[-0.08279296875,-0.0601953125],[-0.0853955078125,-0.0562890625],[-0.08669921875,-0.053681640625],[-0.0893017578125,-0.0510791015625],[-0.09060546875,-0.0484716796875],[-0.0919091796875,-0.0445654296875],[-0.093212890625,-0.04326171875],[-0.09408203125,-0.0415234375],[-0.0953857421875,-0.040224609375],[-0.0966845703125,-0.0389208984375],[-0.0992919921875,-0.0363134765625],[-0.100595703125,-0.035009765625],[-0.1031982421875,-0.0324072265625],[-0.1058056640625,-0.0297998046875],[-0.108408203125,-0.027197265625],[-0.1123193359375,-0.0258935546875],[-0.115791015625,-0.0232861328125],[-0.1183984375,-0.02068359375],[-0.1223046875,-0.018076171875],[-0.124912109375,-0.0167724609375],[-0.1275146484375,-0.014169921875],[-0.1301220703125,-0.0115625],[-0.13142578125,-0.0102587890625],[-0.1327294921875,-0.0089599609375],[-0.1327294921875,-0.0089599609375],[-0.1327294921875,-0.0089599609375],[-0.1327294921875,-0.0089599609375],[-0.1327294921875,-0.0089599609375],[-0.1327294921875,-0.0089599609375],[-0.1327294921875,-0.0089599609375],[-0.1327294921875,-0.0089599609375],[-0.1327294921875,-0.0089599609375],[-0.1327294921875,-0.0089599609375],[-0.1327294921875,-0.0089599609375],[-0.1327294921875,-0.0089599609375],[-0.1327294921875,-0.0089599609375],[-0.1327294921875,-0.0089599609375],[-0.1327294921875,-0.0089599609375],[-0.1327294921875,-0.0089599609375],[-0.1327294921875,-0.0089599609375],[-0.1327294921875,-0.0089599609375],[-0.1327294921875,-0.0089599609375],[-0.1327294921875,-0.0089599609375],[-0.1327294921875,-0.0089599609375],[-0.1327294921875,-0.0089599609375],[-0.1327294921875,-0.0089599609375],[-0.1327294921875,-0.0089599609375],[-0.1327294921875,-0.0089599609375],[-0.1327294921875,-0.0089599609375],[-0.1327294921875,-0.0089599609375],[-0.1327294921875,-0.0089599609375],[-0.1327294921875,-0.0089599609375],[-0.1327294921875,-0.0089599609375],[-0.1327294921875,-0.0089599609375],[-0.1327294921875,-0.0089599609375],[-0.1327294921875,-0.0089599609375],[-0.1327294921875,-0.00765625],[-0.1340283203125,-0.0063525390625],[-0.13533203125,-0.005048828125],[-0.1366357421875,-0.0024462890625],[-0.1392431640625,0.0001611328125],[-0.141845703125,0.0027685546875],[-0.144453125,0.00537109375],[-0.1470556640625,0.0066748046875],[-0.148359375,0.007978515625],[-0.15009765625,0.00884765625],[-0.1527001953125,0.010146484375],[-0.1553076171875,0.0114501953125],[-0.1579150390625,0.01275390625],[-0.160517578125,0.015361328125],[-0.1644287109375,0.0179638671875],[-0.1683349609375,0.0205712890625],[-0.1722412109375,0.023173828125],[-0.17615234375,0.0270849609375],[-0.18005859375,0.028388671875],[-0.182666015625,0.0309912109375],[-0.18396484375,0.0309912109375],[-0.186572265625,0.0335986328125],[-0.190478515625,0.0348974609375],[-0.1969921875,0.0375048828125],[-0.2009033203125,0.03880859375],[-0.2074169921875,0.0414111328125],[-0.2139306640625,0.0440185546875],[-0.219140625,0.045322265625],[-0.2226123046875,0.047060546875],[-0.2252197265625,0.048359375],[-0.227822265625,0.050966796875],[-0.2304296875,0.0522705078125],[-0.2317333984375,0.0535693359375],[-0.2343359375,0.054873046875],[-0.2356396484375,0.054873046875],[-0.236943359375,0.0561767578125],[-0.2382470703125,0.0561767578125],[-0.2399853515625,0.0570458984375],[-0.2412841796875,0.058349609375],[-0.242587890625,0.058349609375],[-0.2438916015625,0.0596533203125],[-0.2451953125,0.0596533203125],[-0.246064453125,0.060517578125],[-0.246064453125,0.060517578125],[-0.246064453125,0.060517578125],[-0.247314453125,0.060517578125],[-0.247314453125,0.060517578125],[-0.247314453125,0.061767578125],[-0.24861328125,0.061767578125],[-0.24861328125,0.061767578125],[-0.24986328125,0.061767578125],[-0.24986328125,0.061767578125],[-0.24986328125,0.061767578125],[-0.25111328125,0.061767578125],[-0.25111328125,0.0630712890625],[-0.251982421875,0.0630712890625],[-0.251982421875,0.0643212890625],[-0.251982421875,0.0643212890625],[-0.251982421875,0.0643212890625],[-0.253232421875,0.0643212890625],[-0.253232421875,0.0643212890625],[-0.253232421875,0.0643212890625],[-0.253232421875,0.0643212890625],[-0.253232421875,0.0643212890625],[-0.253232421875,0.0643212890625],[-0.253232421875,0.0643212890625],[-0.253232421875,0.0643212890625],[-0.253232421875,0.0643212890625],[-0.253232421875,0.0643212890625],[-0.253232421875,0.0643212890625],[-0.253232421875,0.0643212890625],[-0.253232421875,0.0643212890625],[-0.253232421875,0.0643212890625],[-0.253232421875,0.0643212890625],[-0.253232421875,0.0643212890625],[-0.253232421875,0.0643212890625],[-0.253232421875,0.0643212890625],[-0.253232421875,0.0643212890625]],[[0.01203125,-0.201044921875],[0.01203125,-0.201044921875],[0.01203125,-0.201044921875],[0.01203125,-0.201044921875],[0.01203125,-0.201044921875],[0.01203125,-0.201044921875],[0.01203125,-0.201044921875],[0.01203125,-0.201044921875],[0.01203125,-0.201044921875],[0.01203125,-0.201044921875],[0.01203125,-0.201044921875],[0.01203125,-0.201044921875],[0.01203125,-0.201044921875],[0.01203125,-0.201044921875],[0.01203125,-0.201044921875],[0.01203125,-0.201044921875],[0.01203125,-0.201044921875],[0.01203125,-0.201044921875],[0.01203125,-0.201044921875],[0.01203125,-0.201044921875],[0.01203125,-0.201044921875],[0.01203125,-0.201044921875],[0.01203125,-0.201044921875],[0.01203125,-0.201044921875],[0.01203125,-0.201044921875],[0.01203125,-0.201044921875],[0.01203125,-0.201044921875],[0.01203125,-0.201044921875],[0.01203125,-0.201044921875],[0.01203125,-0.201044921875],[0.01203125,-0.201044921875],[0.01203125,-0.201044921875],[0.01203125,-0.201044921875],[0.01203125,-0.201044921875],[0.01203125,-0.201044921875],[0.01203125,-0.201044921875],[0.01203125,-0.201044921875],[0.01203125,-0.201044921875],[0.01203125,-0.201044921875],[0.01203125,-0.201044921875],[0.01203125,-0.201044921875],[0.01203125,-0.201044921875],[0.01203125,-0.201044921875],[0.01203125,-0.199794921875],[0.01203125,-0.19849609375],[0.0133349609375,-0.1971923828125],[0.0133349609375,-0.195888671875],[0.0146337890625,-0.195888671875],[0.0159375,-0.19328125],[0.0172412109375,-0.19328125],[0.018544921875,-0.191982421875],[0.0194140625,-0.190244140625],[0.020712890625,-0.1889404296875],[0.020712890625,-0.1889404296875],[0.0220166015625,-0.18763671875],[0.0233203125,-0.186337890625],[0.0246240234375,-0.1850341796875],[0.025927734375,-0.18373046875],[0.0272265625,-0.1824267578125],[0.0285302734375,-0.181123046875],[0.0293994140625,-0.1802587890625],[0.0293994140625,-0.178955078125],[0.030703125,-0.178955078125],[0.0320068359375,-0.1776513671875],[0.0333056640625,-0.17634765625],[0.034609375,-0.17634765625],[0.0359130859375,-0.1750439453125],[0.037216796875,-0.1737451171875],[0.0385205078125,-0.1737451171875],[0.0398193359375,-0.17244140625],[0.0415576171875,-0.171572265625],[0.042861328125,-0.1702685546875],[0.0441650390625,-0.16896484375],[0.04546875,-0.167666015625],[0.046767578125,-0.1663623046875],[0.0480712890625,-0.16505859375],[0.049375,-0.1637548828125],[0.0519775390625,-0.162451171875],[0.0537158203125,-0.1615869140625],[0.0537158203125,-0.160283203125],[0.0549658203125,-0.160283203125],[0.0549658203125,-0.160283203125],[0.0549658203125,-0.160283203125],[0.0549658203125,-0.160283203125],[0.0549658203125,-0.160283203125],[0.0549658203125,-0.160283203125],[0.0549658203125,-0.160283203125],[0.0549658203125,-0.160283203125],[0.0549658203125,-0.160283203125],[0.0549658203125,-0.160283203125],[0.0549658203125,-0.160283203125],[0.0549658203125,-0.160283203125],[0.0549658203125,-0.160283203125],[0.0549658203125,-0.160283203125],[0.0549658203125,-0.160283203125],[0.0549658203125,-0.160283203125],[0.0549658203125,-0.160283203125],[0.0549658203125,-0.160283203125],[0.0549658203125,-0.160283203125],[0.0549658203125,-0.160283203125],[0.0549658203125,-0.160283203125],[0.0549658203125,-0.1589794921875],[0.0549658203125,-0.1550732421875],[0.058876953125,-0.1498583984375],[0.062783203125,-0.1446484375],[0.065390625,-0.1394384765625],[0.069296875,-0.1329248046875],[0.073203125,-0.12771484375],[0.0771142578125,-0.12380859375],[0.079716796875,-0.1198974609375],[0.08232421875,-0.1159912109375],[0.0857958984375,-0.1133837890625],[0.087099609375,-0.11078125],[0.08970703125,-0.108173828125],[0.0923095703125,-0.10556640625],[0.09361328125,-0.1029638671875],[0.096220703125,-0.1003564453125],[0.100126953125,-0.09775390625],[0.102734375,-0.095146484375],[0.1062060546875,-0.0925439453125],[0.1101123046875,-0.0899365234375],[0.1140234375,-0.0873291015625],[0.1179296875,-0.0834228515625],[0.1231396484375,-0.0795166015625],[0.12705078125,-0.0769091796875],[0.13095703125,-0.0730029296875],[0.13486328125,-0.0703955078125],[0.1366015625,-0.0686572265625],[0.139208984375,-0.0660546875],[0.140458984375,-0.0660546875],[0.140458984375,-0.0660546875],[0.140458984375,-0.0660546875],[0.140458984375,-0.0660546875],[0.140458984375,-0.0660546875],[0.140458984375,-0.0660546875],[0.140458984375,-0.0660546875],[0.140458984375,-0.0660546875],[0.140458984375,-0.0660546875],[0.140458984375,-0.0660546875],[0.140458984375,-0.0660546875],[0.140458984375,-0.0660546875],[0.140458984375,-0.0660546875],[0.140458984375,-0.0660546875],[0.140458984375,-0.0660546875],[0.140458984375,-0.0660546875],[0.140458984375,-0.0648046875],[0.1456689453125,-0.0608935546875],[0.1521826171875,-0.05568359375],[0.157392578125,-0.05177734375],[0.16390625,-0.0465673828125],[0.1678125,-0.0439599609375],[0.17302734375,-0.03875],[0.17693359375,-0.0348388671875],[0.18083984375,-0.032236328125],[0.18431640625,-0.028759765625],[0.1895263671875,-0.0235498046875],[0.1934326171875,-0.0196435546875],[0.1999462890625,-0.01443359375],[0.207763671875,-0.0092236328125],[0.2129736328125,-0.0040087890625],[0.220791015625,-0.0001025390625],[0.2273046875,0.005107421875],[0.2312109375,0.0064111328125],[0.2337109375,0.0076611328125],[0.2337109375,0.0076611328125],[0.2337109375,0.0076611328125],[0.2337109375,0.0076611328125],[0.2337109375,0.0076611328125],[0.2337109375,0.0076611328125],[0.2337109375,0.0076611328125],[0.2337109375,0.0076611328125],[0.2337109375,0.0076611328125],[0.2337109375,0.0076611328125],[0.2337109375,0.0076611328125],[0.2337109375,0.0076611328125],[0.2337109375,0.0076611328125],[0.2337109375,0.0076611328125],[0.2337109375,0.0076611328125],[0.2337109375,0.0076611328125],[0.2337109375,0.0076611328125],[0.2337109375,0.0076611328125],[0.2337109375,0.0076611328125],[0.2350146484375,0.0076611328125],[0.23892578125,0.0102685546875],[0.24283203125,0.0115673828125],[0.2441357421875,0.01287109375],[0.245439453125,0.01287109375],[0.24673828125,0.0141748046875],[0.249345703125,0.015478515625],[0.2519482421875,0.0180810546875],[0.2545556640625,0.0206884765625],[0.2580322265625,0.02416015625],[0.2619384765625,0.026767578125],[0.2632421875,0.0280712890625],[0.2658447265625,0.029375],[0.2684521484375,0.030673828125],[0.269755859375,0.0319775390625],[0.2710546875,0.03328125],[0.2723583984375,0.03328125],[0.2749658203125,0.0345849609375],[0.2758349609375,0.0354541015625],[0.2758349609375,0.0367529296875],[0.2771337890625,0.0367529296875],[0.2784375,0.038056640625],[0.2797412109375,0.0393603515625],[0.281044921875,0.0419677734375],[0.2836474609375,0.0445703125],[0.2845166015625,0.045439453125],[0.2845166015625,0.045439453125],[0.2845166015625,0.045439453125],[0.2845166015625,0.045439453125],[0.2845166015625,0.045439453125],[0.2845166015625,0.045439453125],[0.2845166015625,0.045439453125],[0.2845166015625,0.045439453125],[0.2845166015625,0.045439453125],[0.2845166015625,0.045439453125],[0.2845166015625,0.045439453125]]]",3,"[370,201,218]",,,,,,,,,,,,,,golfcourse6.jpg,space,22.592645,0,1,1,48,1,frontDoor2.jpg,fittingroom5.jpg,golfcourse7.jpg,fabricstore2.jpg,,
Image_List_2,,,,,,,,,,,,,,,,44239,2020-11-25_10h31.45.576,analogCatScenes,2020.1.3,MacIntel,60,"[1280,800]","[[[0.001396484375,-0.204521484375],[0.001396484375,-0.204521484375],[0.001396484375,-0.204521484375],[0.001396484375,-0.204521484375],[0.001396484375,-0.204521484375],[0.001396484375,-0.204521484375],[0.001396484375,-0.204521484375],[0.001396484375,-0.204521484375],[0.001396484375,-0.204521484375],[0.001396484375,-0.204521484375],[0.001396484375,-0.204521484375],[0.001396484375,-0.204521484375],[0.001396484375,-0.204521484375],[0.001396484375,-0.204521484375],[0.001396484375,-0.204521484375],[0.001396484375,-0.204521484375],[0.001396484375,-0.204521484375],[0.001396484375,-0.204521484375],[0.001396484375,-0.204521484375],[0.001396484375,-0.204521484375],[0.001396484375,-0.204521484375],[0.001396484375,-0.204521484375],[0.001396484375,-0.204521484375],[0.001396484375,-0.204521484375],[0.001396484375,-0.204521484375],[0.001396484375,-0.204521484375],[0.001396484375,-0.204521484375],[0.001396484375,-0.203271484375],[0.001396484375,-0.199365234375],[0.001396484375,-0.1967578125],[0.001396484375,-0.194150390625],[0.001396484375,-0.1928515625],[0.001396484375,-0.190244140625],[0.001396484375,-0.18763671875],[0.001396484375,-0.1850341796875],[0.001396484375,-0.1824267578125],[0.001396484375,-0.180693359375],[0.001396484375,-0.1780859375],[0.001396484375,-0.1767822265625],[0.001396484375,-0.175478515625],[0.001396484375,-0.1741796875],[0.001396484375,-0.171572265625],[0.001396484375,-0.1702685546875],[0.001396484375,-0.16896484375],[0.001396484375,-0.1681005859375],[0.001396484375,-0.1654931640625],[0.001396484375,-0.1654931640625],[0.001396484375,-0.164189453125],[0.001396484375,-0.1615869140625],[0.001396484375,-0.1589794921875],[0.001396484375,-0.15376953125],[0.001396484375,-0.1498583984375],[0.0027001953125,-0.1446484375],[0.0035693359375,-0.1403076171875],[0.004873046875,-0.1377001953125],[0.004873046875,-0.13509765625],[0.004873046875,-0.132490234375],[0.004873046875,-0.1298876953125],[0.004873046875,-0.128583984375],[0.004873046875,-0.1259765625],[0.004873046875,-0.1233740234375],[0.004873046875,-0.1207666015625],[0.004873046875,-0.1181591796875],[0.004873046875,-0.1142529296875],[0.004873046875,-0.1103466796875],[0.004873046875,-0.1077392578125],[0.004873046875,-0.1038330078125],[0.004873046875,-0.098623046875],[0.0061767578125,-0.0947119140625],[0.0061767578125,-0.089501953125],[0.0061767578125,-0.0860302734375],[0.0074755859375,-0.0834228515625],[0.0074755859375,-0.0808154296875],[0.0074755859375,-0.078212890625],[0.0074755859375,-0.07560546875],[0.0074755859375,-0.0730029296875],[0.0074755859375,-0.069091796875],[0.0074755859375,-0.0664892578125],[0.0074755859375,-0.0638818359375],[0.0074755859375,-0.0612744140625],[0.0074755859375,-0.0599755859375],[0.0074755859375,-0.058671875],[0.0074755859375,-0.0573681640625],[0.0074755859375,-0.054765625],[0.0074755859375,-0.0534619140625],[0.0074755859375,-0.0517236328125],[0.0074755859375,-0.0491162109375],[0.0074755859375,-0.046513671875],[0.0074755859375,-0.04390625],[0.0074755859375,-0.0413037109375],[0.0074755859375,-0.0413037109375],[0.0074755859375,-0.0386962890625],[0.0074755859375,-0.0360888671875],[0.0074755859375,-0.03435546875],[0.0074755859375,-0.031748046875],[0.0074755859375,-0.0304443359375],[0.0074755859375,-0.027841796875],[0.0074755859375,-0.025234375],[0.0074755859375,-0.0239306640625],[0.0074755859375,-0.0226318359375],[0.0074755859375,-0.0200244140625],[0.0074755859375,-0.018720703125],[0.0074755859375,-0.0161181640625],[0.0074755859375,-0.0135107421875],[0.008779296875,-0.0109033203125],[0.008779296875,-0.005693359375],[0.008779296875,-0.00439453125],[0.008779296875,-0.00439453125],[0.008779296875,-0.0030908203125],[0.008779296875,-0.0022216796875],[0.0100830078125,-0.0022216796875],[0.0100830078125,-0.0009716796875],[0.0100830078125,-0.0009716796875],[0.0100830078125,-0.0009716796875],[0.0100830078125,-0.0009716796875],[0.0100830078125,-0.0009716796875],[0.0100830078125,-0.0009716796875],[0.0100830078125,-0.0009716796875],[0.0100830078125,-0.0009716796875],[0.0100830078125,-0.0009716796875],[0.0100830078125,-0.0009716796875],[0.0100830078125,-0.0009716796875],[0.0100830078125,-0.0009716796875],[0.0100830078125,-0.0009716796875],[0.0100830078125,-0.0009716796875],[0.0100830078125,-0.0009716796875],[0.0100830078125,-0.0009716796875],[0.0100830078125,-0.0009716796875],[0.0100830078125,-0.0009716796875],[0.0100830078125,-0.0009716796875],[0.0100830078125,-0.0009716796875],[0.0100830078125,-0.0009716796875],[0.0100830078125,-0.0009716796875],[0.0100830078125,-0.0009716796875],[0.0100830078125,-0.0009716796875],[0.0100830078125,-0.0009716796875],[0.0100830078125,-0.0009716796875],[0.0100830078125,-0.0009716796875],[0.0100830078125,-0.0009716796875],[0.0100830078125,-0.0009716796875],[0.0100830078125,-0.0009716796875],[0.0100830078125,-0.0009716796875],[0.0100830078125,-0.0009716796875],[0.0100830078125,-0.0009716796875],[0.0100830078125,-0.0009716796875],[0.0100830078125,-0.0009716796875],[0.0100830078125,-0.0009716796875],[0.0100830078125,-0.0009716796875],[0.0100830078125,-0.0001025390625],[0.0100830078125,0.0025048828125],[0.0100830078125,0.0064111328125],[0.0100830078125,0.0090185546875],[0.0100830078125,0.01162109375],[0.0100830078125,0.014228515625],[0.0100830078125,0.0168310546875],[0.0100830078125,0.0194384765625],[0.0100830078125,0.022041015625],[0.0100830078125,0.023779296875],[0.0100830078125,0.02638671875],[0.0100830078125,0.0289892578125],[0.0100830078125,0.03029296875],[0.0100830078125,0.03029296875],[0.0100830078125,0.03154296875],[0.0100830078125,0.03154296875],[0.0100830078125,0.032412109375],[0.0100830078125,0.03501953125],[0.0100830078125,0.0376220703125],[0.0100830078125,0.0376220703125],[0.0100830078125,0.0376220703125],[0.0100830078125,0.0376220703125],[0.0100830078125,0.0376220703125],[0.0100830078125,0.0376220703125],[0.0100830078125,0.0376220703125],[0.0100830078125,0.0376220703125],[0.0100830078125,0.0376220703125],[0.0100830078125,0.0376220703125],[0.0100830078125,0.0376220703125],[0.0100830078125,0.0376220703125],[0.0100830078125,0.0376220703125],[0.0100830078125,0.0376220703125],[0.0100830078125,0.0376220703125],[0.0100830078125,0.0376220703125],[0.0100830078125,0.0376220703125],[0.0100830078125,0.0376220703125],[0.0100830078125,0.0376220703125],[0.0100830078125,0.0376220703125],[0.0100830078125,0.0376220703125]]]",1,[187],,,,,,,,,,,,,,wineVineyard8.jpg,space,6.14906,0,2,2,98,1,weightroom5.jpg,warehouse3.jpg,winebarrel4.jpg,winebarrel2.jpg,,
Image_List_2,,,,,,,,,,,,,,,,44239,2020-11-25_10h31.45.576,analogCatScenes,2020.1.3,MacIntel,60,"[1280,800]","[[[-0.0024560546875,-0.2005078125],[-0.0024560546875,-0.2005078125],[-0.0024560546875,-0.2005078125],[-0.0024560546875,-0.2005078125],[-0.0024560546875,-0.2005078125],[-0.0024560546875,-0.2005078125],[-0.0024560546875,-0.2005078125],[-0.0024560546875,-0.2005078125],[-0.0024560546875,-0.2005078125],[-0.0024560546875,-0.2005078125],[-0.0024560546875,-0.2005078125],[-0.0024560546875,-0.2005078125],[-0.0024560546875,-0.2005078125],[-0.0024560546875,-0.2005078125],[-0.0024560546875,-0.2005078125],[-0.0024560546875,-0.2005078125],[-0.0024560546875,-0.2005078125],[-0.0024560546875,-0.2005078125],[-0.0024560546875,-0.2005078125],[-0.0024560546875,-0.1967578125],[-0.0011572265625,-0.1928515625],[0.0014501953125,-0.186337890625],[0.0040576171875,-0.181123046875],[0.00666015625,-0.1759130859375],[0.009267578125,-0.1720068359375],[0.0118701171875,-0.1681005859375],[0.0144775390625,-0.1654931640625],[0.01794921875,-0.1620166015625],[0.0192529296875,-0.1594140625],[0.0218603515625,-0.156806640625],[0.0257666015625,-0.152900390625],[0.0283740234375,-0.148994140625],[0.0309765625,-0.1450830078125],[0.033583984375,-0.14248046875],[0.0370556640625,-0.138134765625],[0.038359375,-0.1355322265625],[0.040966796875,-0.13162109375],[0.0435693359375,-0.125107421875],[0.0435693359375,-0.125107421875],[0.0461767578125,-0.1198974609375],[0.0500830078125,-0.1146875],[0.0518212890625,-0.1094775390625],[0.0544287109375,-0.1068701171875],[0.05703125,-0.10166015625],[0.059638671875,-0.09775390625],[0.0622412109375,-0.0938427734375],[0.0648486328125,-0.0899365234375],[0.0674560546875,-0.0847265625],[0.07005859375,-0.0795166015625],[0.0739697265625,-0.0730029296875],[0.0778759765625,-0.0664892578125],[0.0804833984375,-0.0621435546875],[0.0830859375,-0.05693359375],[0.0869921875,-0.05302734375],[0.089599609375,-0.0491162109375],[0.093505859375,-0.0452099609375],[0.0974169921875,-0.0413037109375],[0.1013232421875,-0.03609375],[0.1039306640625,-0.0321826171875],[0.106533203125,-0.0287109375],[0.109140625,-0.026103515625],[0.113046875,-0.0235009765625],[0.1143505859375,-0.022197265625],[0.1169580078125,-0.01958984375],[0.119560546875,-0.0182861328125],[0.12216796875,-0.01568359375],[0.1247705078125,-0.013076171875],[0.1273779296875,-0.0104736328125],[0.1299853515625,-0.0078662109375],[0.1338916015625,-0.0052587890625],[0.1391015625,-0.0013525390625],[0.1443115234375,0.003857421875],[0.14822265625,0.00646484375],[0.1534326171875,0.0116748046875],[0.158642578125,0.0155810546875],[0.162548828125,0.020791015625],[0.1664599609375,0.0233984375],[0.1703662109375,0.0273046875],[0.1729736328125,0.0312158203125],[0.1768798828125,0.033818359375],[0.180791015625,0.0377294921875],[0.1860009765625,0.0420703125],[0.1912109375,0.0459765625],[0.193818359375,0.048583984375],[0.193818359375,0.048583984375],[0.197724609375,0.05119140625],[0.1990283203125,0.052490234375],[0.201630859375,0.0537939453125],[0.201630859375,0.0564013671875],[0.2025,0.0572705078125],[0.2025,0.0572705078125],[0.2025,0.0572705078125],[0.2025,0.0572705078125],[0.2025,0.0572705078125],[0.2025,0.0572705078125]]]",1,[95],,,,,,,,,,,,,,hardwarestore1.jpg,space,4.4802,0,3,3,52,1,gasstation7.jpg,frontFoyer6.jpg,highway.jpg,forestpath2.jpg,,
Image_List_2,,,,,,,,,,,,,,,,44239,2020-11-25_10h31.45.576,analogCatScenes,2020.1.3,MacIntel,60,"[1280,800]","[[[-0.0016552734375,-0.20490234375],[-0.0016552734375,-0.20490234375],[-0.0016552734375,-0.20490234375],[-0.0016552734375,-0.20490234375],[-0.0016552734375,-0.20490234375],[-0.0016552734375,-0.20490234375],[-0.0016552734375,-0.20490234375],[-0.0016552734375,-0.20490234375],[-0.0016552734375,-0.20490234375],[-0.0016552734375,-0.20490234375],[-0.0016552734375,-0.20490234375],[-0.0016552734375,-0.20490234375],[-0.0016552734375,-0.20490234375],[-0.0016552734375,-0.20490234375],[-0.0016552734375,-0.20490234375],[-0.0016552734375,-0.20490234375],[-0.0016552734375,-0.20490234375],[-0.0016552734375,-0.20490234375],[-0.0016552734375,-0.20490234375],[-0.0016552734375,-0.20490234375],[-0.0016552734375,-0.20490234375],[-0.0016552734375,-0.20490234375],[-0.0016552734375,-0.20490234375],[-0.0016552734375,-0.20490234375],[-0.0016552734375,-0.20490234375],[-0.0016552734375,-0.20240234375],[-0.0016552734375,-0.199794921875],[-0.0003515625,-0.1932861328125],[0.002255859375,-0.18546875],[0.006162109375,-0.1776513671875],[0.006162109375,-0.1776513671875],[0.010068359375,-0.1685302734375],[0.01267578125,-0.1594140625],[0.015283203125,-0.152900390625],[0.019189453125,-0.14248046875],[0.0217919921875,-0.1346630859375],[0.0243994140625,-0.129453125],[0.0270068359375,-0.122939453125],[0.0309130859375,-0.11642578125],[0.0335205078125,-0.1112158203125],[0.0374267578125,-0.1060009765625],[0.0413330078125,-0.0994873046875],[0.0465478515625,-0.0929736328125],[0.0504541015625,-0.0864599609375],[0.05392578125,-0.080380859375],[0.056533203125,-0.0738720703125],[0.060439453125,-0.0686572265625],[0.0643505859375,-0.0647509765625],[0.066953125,-0.0608447265625],[0.069560546875,-0.05693359375],[0.073466796875,-0.05302734375],[0.0773779296875,-0.0491162109375],[0.07998046875,-0.0452099609375],[0.0838916015625,-0.0426025390625],[0.08736328125,-0.03826171875],[0.09126953125,-0.0356591796875],[0.093876953125,-0.0330517578125],[0.096484375,-0.0304443359375],[0.100390625,-0.0265380859375],[0.102998046875,-0.0239306640625],[0.106904296875,-0.021328125],[0.10951171875,-0.018720703125],[0.11341796875,-0.014814453125],[0.1168896484375,-0.011337890625],[0.12080078125,-0.0087353515625],[0.1260107421875,-0.003525390625],[0.1299169921875,0.0003857421875],[0.135126953125,0.0042919921875],[0.1390380859375,0.0081982421875],[0.1429443359375,0.012109375],[0.148154296875,0.016015625],[0.153369140625,0.020361328125],[0.1585791015625,0.024267578125],[0.1637890625,0.0294775390625],[0.1689990234375,0.0333837890625],[0.1729052734375,0.037294921875],[0.17681640625,0.0398974609375],[0.18072265625,0.0425048828125],[0.183330078125,0.0451123046875],[0.1859326171875,0.046845703125],[0.187236328125,0.049453125],[0.18984375,0.0520556640625],[0.19375,0.055966796875],[0.196357421875,0.059873046875],[0.1989599609375,0.0637841796875],[0.2002099609375,0.0650341796875],[0.2002099609375,0.0650341796875],[0.2002099609375,0.0650341796875],[0.2002099609375,0.0650341796875],[0.2002099609375,0.0650341796875],[0.2002099609375,0.0650341796875],[0.2002099609375,0.0650341796875],[0.2002099609375,0.0650341796875]]]",1,[93],,,,,,,,,,,,,,homeoffice.jpg,space,6.635915,0,4,4,53,1,gazebo3.jpg,frontLawn3.jpg,homegarage3.jpg,fountain.jpg,,
Image_List_2,,,,,,,,,,,,,,,,44239,2020-11-25_10h31.45.576,analogCatScenes,2020.1.3,MacIntel,60,"[1280,800]","[[[-0.000732421875,-0.2040869140625],[-0.000732421875,-0.2040869140625],[-0.000732421875,-0.2040869140625],[-0.000732421875,-0.2040869140625],[-0.000732421875,-0.2040869140625],[-0.000732421875,-0.2040869140625],[-0.000732421875,-0.2040869140625],[-0.000732421875,-0.2040869140625],[-0.000732421875,-0.2040869140625],[-0.000732421875,-0.2040869140625],[-0.000732421875,-0.2040869140625],[-0.000732421875,-0.2040869140625],[-0.000732421875,-0.2040869140625],[-0.000732421875,-0.2040869140625],[-0.000732421875,-0.2040869140625],[-0.000732421875,-0.2040869140625],[-0.000732421875,-0.2040869140625],[-0.000732421875,-0.2040869140625],[-0.000732421875,-0.2040869140625],[-0.000732421875,-0.2040869140625],[-0.000732421875,-0.2040869140625],[-0.000732421875,-0.2040869140625],[-0.000732421875,-0.2040869140625],[-0.000732421875,-0.2040869140625],[-0.000732421875,-0.2040869140625],[-0.000732421875,-0.2040869140625],[-0.000732421875,-0.2040869140625],[-0.000732421875,-0.2040869140625],[-0.000732421875,-0.2040869140625],[-0.000732421875,-0.2040869140625],[-0.000732421875,-0.2040869140625],[-0.000732421875,-0.2040869140625],[-0.000732421875,-0.2040869140625],[-0.000732421875,-0.2028369140625],[-0.000732421875,-0.1963232421875],[-0.000732421875,-0.188505859375],[-0.000732421875,-0.1780859375],[-0.000732421875,-0.1702685546875],[-0.000732421875,-0.162451171875],[-0.000732421875,-0.154638671875],[-0.000732421875,-0.148125],[-0.000732421875,-0.141611328125],[-0.000732421875,-0.132490234375],[-0.000732421875,-0.1259765625],[-0.000732421875,-0.1190283203125],[-0.000732421875,-0.1125146484375],[-0.000732421875,-0.1060009765625],[-0.000732421875,-0.100791015625],[-0.000732421875,-0.096884765625],[-0.000732421875,-0.0916748046875],[-0.000732421875,-0.0916748046875],[-0.000732421875,-0.0890673828125],[-0.0020361328125,-0.083857421875],[-0.0029052734375,-0.0786474609375],[-0.0029052734375,-0.0734375],[-0.0029052734375,-0.066923828125],[-0.0029052734375,-0.0630126953125],[-0.0029052734375,-0.0591064453125],[-0.0029052734375,-0.0551953125],[-0.0029052734375,-0.0499853515625],[-0.004208984375,-0.0434716796875],[-0.0055078125,-0.0369580078125],[-0.006376953125,-0.03087890625],[-0.0076806640625,-0.024365234375],[-0.0076806640625,-0.0178515625],[-0.0076806640625,-0.0126416015625],[-0.008984375,-0.0061279296875],[-0.0102880859375,0.0003857421875],[-0.0115869140625,0.0081982421875],[-0.0115869140625,0.0173193359375],[-0.0141943359375,0.0277392578125],[-0.0168017578125,0.0381640625],[-0.017666015625,0.0459765625],[-0.0189697265625,0.05119140625],[-0.0189697265625,0.0564013671875],[-0.0202734375,0.0603076171875],[-0.0202734375,0.06421875],[-0.0202734375,0.068125],[-0.0202734375,0.07203125],[-0.0202734375,0.0759423828125],[-0.0202734375,0.080283203125],[-0.0202734375,0.084189453125],[-0.0202734375,0.0881005859375],[-0.0202734375,0.0920068359375],[-0.0189697265625,0.09591796875],[-0.0189697265625,0.097216796875],[-0.0189697265625,0.0985205078125],[-0.0189697265625,0.0985205078125],[-0.0189697265625,0.0985205078125],[-0.0189697265625,0.0985205078125],[-0.0189697265625,0.0985205078125],[-0.0189697265625,0.0985205078125],[-0.0189697265625,0.0985205078125],[-0.0189697265625,0.0985205078125],[-0.0189697265625,0.0985205078125]]]",1,[95],,,,,,,,,,,,,,cornfield4.jpg,space,3.96144,0,5,5,26,1,campusquad2.jpg,church4.jpg,churchInside3.jpg,botanicalGarden7.jpg,,
Image_List_2,,,,,,,,,,,,,,,,44239,2020-11-25_10h31.45.576,analogCatScenes,2020.1.3,MacIntel,60,"[1280,800]","[[[-0.0011669921875,-0.202294921875],[-0.0011669921875,-0.202294921875],[-0.0011669921875,-0.202294921875],[-0.0011669921875,-0.202294921875],[-0.0011669921875,-0.202294921875],[-0.0011669921875,-0.202294921875],[-0.0011669921875,-0.202294921875],[-0.0011669921875,-0.202294921875],[-0.0011669921875,-0.202294921875],[-0.0011669921875,-0.202294921875],[-0.0011669921875,-0.202294921875],[-0.0011669921875,-0.202294921875],[-0.0011669921875,-0.202294921875],[-0.0011669921875,-0.202294921875],[-0.0011669921875,-0.202294921875],[-0.0011669921875,-0.202294921875],[-0.0011669921875,-0.202294921875],[-0.0011669921875,-0.202294921875],[-0.0011669921875,-0.202294921875],[-0.0011669921875,-0.202294921875],[-0.0011669921875,-0.202294921875],[-0.0011669921875,-0.202294921875],[-0.0011669921875,-0.202294921875],[-0.0011669921875,-0.202294921875],[-0.0011669921875,-0.202294921875],[-0.0011669921875,-0.202294921875],[-0.0011669921875,-0.202294921875],[-0.0011669921875,-0.202294921875],[-0.0011669921875,-0.202294921875],[-0.0011669921875,-0.202294921875],[-0.0011669921875,-0.202294921875],[-0.0011669921875,-0.202294921875],[-0.0011669921875,-0.202294921875],[-0.0011669921875,-0.202294921875],[-0.0011669921875,-0.202294921875],[-0.0011669921875,-0.202294921875],[-0.0011669921875,-0.202294921875],[-0.0011669921875,-0.202294921875],[-0.0011669921875,-0.202294921875],[-0.0011669921875,-0.202294921875],[-0.0011669921875,-0.202294921875],[-0.0011669921875,-0.202294921875],[-0.0011669921875,-0.202294921875],[-0.0011669921875,-0.202294921875],[-0.0011669921875,-0.202294921875],[-0.0011669921875,-0.202294921875],[-0.0011669921875,-0.202294921875],[-0.0011669921875,-0.202294921875],[-0.0011669921875,-0.202294921875],[-0.0011669921875,-0.202294921875],[-0.0011669921875,-0.202294921875],[-0.0011669921875,-0.202294921875],[-0.0011669921875,-0.202294921875],[-0.0011669921875,-0.202294921875],[-0.0011669921875,-0.202294921875],[-0.0011669921875,-0.202294921875],[-0.0011669921875,-0.202294921875],[-0.0011669921875,-0.202294921875],[-0.0011669921875,-0.202294921875],[-0.0011669921875,-0.202294921875],[-0.0011669921875,-0.202294921875],[-0.0011669921875,-0.202294921875],[-0.0011669921875,-0.202294921875],[-0.0011669921875,-0.202294921875],[-0.0011669921875,-0.202294921875],[-0.0011669921875,-0.202294921875],[-0.0011669921875,-0.202294921875],[-0.0011669921875,-0.202294921875],[-0.0011669921875,-0.202294921875],[-0.0011669921875,-0.202294921875],[-0.0011669921875,-0.202294921875],[-0.0011669921875,-0.202294921875],[-0.0011669921875,-0.202294921875],[-0.0011669921875,-0.202294921875],[-0.0011669921875,-0.202294921875],[-0.0011669921875,-0.202294921875],[-0.0011669921875,-0.202294921875],[-0.0011669921875,-0.202294921875],[-0.0011669921875,-0.202294921875],[-0.0011669921875,-0.202294921875],[-0.0011669921875,-0.202294921875],[-0.0011669921875,-0.202294921875],[-0.0011669921875,-0.202294921875],[-0.0011669921875,-0.202294921875],[-0.0011669921875,-0.202294921875],[0.0000830078125,-0.202294921875],[0.0000830078125,-0.202294921875],[0.0000830078125,-0.202294921875],[0.0000830078125,-0.202294921875],[0.0000830078125,-0.202294921875],[0.0000830078125,-0.202294921875],[0.0000830078125,-0.202294921875],[0.0000830078125,-0.202294921875],[0.0000830078125,-0.202294921875],[0.0000830078125,-0.202294921875],[0.0000830078125,-0.202294921875],[0.0000830078125,-0.202294921875],[0.0000830078125,-0.202294921875],[0.0000830078125,-0.202294921875],[0.0000830078125,-0.202294921875],[0.0000830078125,-0.202294921875],[0.0000830078125,-0.202294921875],[0.0000830078125,-0.202294921875],[0.0000830078125,-0.202294921875],[0.0000830078125,-0.202294921875],[0.0000830078125,-0.202294921875],[0.0000830078125,-0.202294921875],[0.0000830078125,-0.202294921875],[0.0000830078125,-0.202294921875],[0.0000830078125,-0.202294921875],[0.0000830078125,-0.202294921875],[0.0000830078125,-0.202294921875],[0.0000830078125,-0.202294921875],[0.0000830078125,-0.202294921875],[0.0000830078125,-0.202294921875],[0.0000830078125,-0.202294921875],[0.0000830078125,-0.202294921875],[0.0000830078125,-0.202294921875],[0.0000830078125,-0.202294921875],[0.0000830078125,-0.202294921875],[0.0000830078125,-0.202294921875],[0.0000830078125,-0.202294921875],[0.0000830078125,-0.202294921875],[0.0000830078125,-0.202294921875],[0.0000830078125,-0.202294921875],[0.0000830078125,-0.202294921875],[0.0000830078125,-0.202294921875],[0.0000830078125,-0.202294921875],[0.0000830078125,-0.202294921875],[0.0000830078125,-0.202294921875],[0.0000830078125,-0.202294921875],[0.0000830078125,-0.202294921875],[0.0000830078125,-0.202294921875],[0.0000830078125,-0.202294921875],[0.0000830078125,-0.202294921875],[0.0000830078125,-0.202294921875],[0.0000830078125,-0.202294921875],[0.0000830078125,-0.202294921875],[0.0000830078125,-0.202294921875],[0.0000830078125,-0.202294921875],[0.0000830078125,-0.202294921875],[0.0000830078125,-0.202294921875],[0.0000830078125,-0.202294921875],[0.0000830078125,-0.202294921875],[0.0000830078125,-0.202294921875],[0.0000830078125,-0.202294921875],[0.0000830078125,-0.202294921875],[0.0000830078125,-0.202294921875],[0.0000830078125,-0.202294921875],[0.0000830078125,-0.202294921875],[0.0000830078125,-0.202294921875],[0.0000830078125,-0.202294921875],[0.0000830078125,-0.202294921875],[0.0000830078125,-0.202294921875],[0.0000830078125,-0.202294921875],[0.0000830078125,-0.202294921875],[0.0000830078125,-0.202294921875],[0.0000830078125,-0.202294921875],[0.0000830078125,-0.202294921875],[0.0000830078125,-0.202294921875],[0.0000830078125,-0.202294921875],[0.0000830078125,-0.202294921875],[0.0000830078125,-0.202294921875],[0.0000830078125,-0.202294921875],[0.0000830078125,-0.202294921875],[0.0000830078125,-0.202294921875],[0.0000830078125,-0.202294921875],[0.0000830078125,-0.202294921875],[0.0000830078125,-0.202294921875],[0.0000830078125,-0.202294921875],[0.0000830078125,-0.202294921875],[0.0000830078125,-0.202294921875],[0.0000830078125,-0.202294921875],[0.0000830078125,-0.202294921875],[0.0000830078125,-0.202294921875],[0.0000830078125,-0.202294921875],[0.0000830078125,-0.202294921875],[0.0000830078125,-0.202294921875],[0.0000830078125,-0.202294921875],[0.0000830078125,-0.202294921875],[0.0000830078125,-0.202294921875],[0.0000830078125,-0.202294921875],[0.0000830078125,-0.202294921875],[0.0000830078125,-0.202294921875],[0.0000830078125,-0.202294921875],[0.0000830078125,-0.202294921875],[0.0000830078125,-0.202294921875],[0.0000830078125,-0.202294921875],[0.0000830078125,-0.202294921875],[0.0000830078125,-0.202294921875],[0.0000830078125,-0.202294921875],[0.0000830078125,-0.202294921875],[0.0000830078125,-0.202294921875],[0.0000830078125,-0.202294921875],[0.0000830078125,-0.202294921875],[0.0000830078125,-0.202294921875],[0.0000830078125,-0.202294921875],[0.0000830078125,-0.202294921875],[0.0000830078125,-0.202294921875],[0.0000830078125,-0.202294921875],[0.0000830078125,-0.202294921875],[0.0000830078125,-0.202294921875],[0.0000830078125,-0.201044921875],[0.0000830078125,-0.19974609375],[0.0000830078125,-0.1984423828125],[0.0000830078125,-0.1984423828125],[0.0000830078125,-0.1975732421875],[0.0000830078125,-0.19626953125],[0.0000830078125,-0.1949658203125],[0.0000830078125,-0.1941015625],[0.0000830078125,-0.1927978515625],[0.0000830078125,-0.1919287109375],[0.0000830078125,-0.1919287109375],[0.0000830078125,-0.1910595703125],[0.0000830078125,-0.189755859375],[0.0000830078125,-0.1884521484375],[0.0000830078125,-0.1871533203125],[0.0000830078125,-0.1862841796875],[0.0000830078125,-0.18498046875],[0.0000830078125,-0.1836767578125],[0.0000830078125,-0.182373046875],[0.0000830078125,-0.1797705078125],[0.0000830078125,-0.178466796875],[0.0000830078125,-0.175859375],[0.0000830078125,-0.1741259765625],[0.0000830078125,-0.172822265625],[0.0000830078125,-0.17021484375],[0.0000830078125,-0.168916015625],[0.0000830078125,-0.1676123046875],[0.0000830078125,-0.16630859375],[0.0000830078125,-0.163701171875],[0.0000830078125,-0.16240234375],[0.0000830078125,-0.1606640625],[0.0000830078125,-0.1606640625],[0.0000830078125,-0.158056640625],[0.0000830078125,-0.1567578125],[0.0000830078125,-0.1554541015625],[0.0000830078125,-0.1528466796875],[0.0000830078125,-0.15154296875],[0.0000830078125,-0.150244140625],[0.0000830078125,-0.14763671875],[0.0000830078125,-0.1463330078125],[0.0000830078125,-0.1445947265625],[0.00138671875,-0.1419921875],[0.00138671875,-0.1406884765625],[0.00138671875,-0.139384765625],[0.0026904296875,-0.1367822265625],[0.0026904296875,-0.1341748046875],[0.0026904296875,-0.131572265625],[0.0039892578125,-0.12896484375],[0.0039892578125,-0.1276611328125],[0.0039892578125,-0.12505859375],[0.00529296875,-0.1237548828125],[0.00529296875,-0.1211474609375],[0.00529296875,-0.11984375],[0.00529296875,-0.1172412109375],[0.00529296875,-0.1159375],[0.00529296875,-0.113330078125],[0.00529296875,-0.1124658203125],[0.00529296875,-0.1098583984375],[0.00529296875,-0.1072509765625],[0.0065966796875,-0.1059521484375],[0.0065966796875,-0.1046484375],[0.0065966796875,-0.102041015625],[0.0065966796875,-0.1007373046875],[0.0065966796875,-0.099873046875],[0.007900390625,-0.0985693359375],[0.007900390625,-0.097265625],[0.00919921875,-0.0959619140625],[0.00919921875,-0.0959619140625],[0.00919921875,-0.0959619140625],[0.00919921875,-0.0959619140625],[0.00919921875,-0.0959619140625],[0.00919921875,-0.0959619140625],[0.00919921875,-0.0959619140625],[0.00919921875,-0.0959619140625],[0.00919921875,-0.0959619140625],[0.00919921875,-0.0959619140625],[0.00919921875,-0.0959619140625],[0.00919921875,-0.0959619140625],[0.00919921875,-0.0959619140625],[0.00919921875,-0.0959619140625],[0.00919921875,-0.0959619140625],[0.00919921875,-0.0959619140625],[0.00919921875,-0.0959619140625],[0.00919921875,-0.0959619140625],[0.00919921875,-0.0959619140625],[0.00919921875,-0.0959619140625],[0.00919921875,-0.0959619140625],[0.00919921875,-0.0959619140625],[0.00919921875,-0.0959619140625],[0.00919921875,-0.0959619140625],[0.00919921875,-0.0959619140625],[0.00919921875,-0.0959619140625],[0.00919921875,-0.0959619140625],[0.00919921875,-0.0959619140625],[0.00919921875,-0.0959619140625],[0.00919921875,-0.0959619140625],[0.00919921875,-0.0959619140625],[0.00919921875,-0.0959619140625],[0.00919921875,-0.0959619140625],[0.00919921875,-0.0959619140625],[0.00919921875,-0.0959619140625],[0.00919921875,-0.0959619140625],[0.00919921875,-0.0959619140625],[0.00919921875,-0.0959619140625],[0.00919921875,-0.0959619140625],[0.00919921875,-0.0959619140625],[0.00919921875,-0.0959619140625],[0.00919921875,-0.0959619140625],[0.00919921875,-0.0959619140625],[0.00919921875,-0.0959619140625],[0.00919921875,-0.0959619140625],[0.00919921875,-0.0959619140625],[0.00919921875,-0.0959619140625],[0.00919921875,-0.0950927734375],[0.00919921875,-0.0937939453125],[0.00919921875,-0.0937939453125],[0.00919921875,-0.0925439453125],[0.00919921875,-0.0925439453125],[0.00919921875,-0.0925439453125],[0.00919921875,-0.0912939453125],[0.00919921875,-0.0912939453125],[0.00919921875,-0.0912939453125],[0.00919921875,-0.0900439453125],[0.00919921875,-0.0900439453125],[0.00919921875,-0.0891748046875],[0.00919921875,-0.08787109375],[0.00919921875,-0.0865673828125],[0.00919921875,-0.085263671875],[0.00919921875,-0.0826611328125],[0.00919921875,-0.081357421875],[0.00919921875,-0.07875],[0.00919921875,-0.0761474609375],[0.00919921875,-0.0735400390625],[0.00919921875,-0.0696337890625],[0.0105029296875,-0.0670263671875],[0.0105029296875,-0.0631201171875],[0.011806640625,-0.0605126953125],[0.011806640625,-0.05791015625],[0.0131103515625,-0.0539990234375],[0.0144140625,-0.0500927734375],[0.015283203125,-0.0466162109375],[0.01658203125,-0.04140625],[0.0178857421875,-0.0361962890625],[0.019189453125,-0.030986328125],[0.0204931640625,-0.0257763671875],[0.023095703125,-0.021865234375],[0.0243994140625,-0.0153515625],[0.0270068359375,-0.0101416015625],[0.029609375,-0.003193359375],[0.032216796875,0.000712890625],[0.0374267578125,0.0072265625],[0.0413330078125,0.013740234375],[0.0439404296875,0.0215576171875],[0.0465478515625,0.026767578125],[0.0504541015625,0.0358837890625],[0.0543603515625,0.043701171875],[0.0608740234375,0.0515185546875],[0.067822265625,0.060205078125],[0.067822265625,0.060205078125],[0.0756396484375,0.068017578125],[0.0821533203125,0.0758349609375],[0.089970703125,0.0823486328125],[0.093876953125,0.0862548828125],[0.0990869140625,0.0914697265625],[0.104296875,0.0966796875],[0.10951171875,0.1018896484375],[0.1138525390625,0.107099609375],[0.1177587890625,0.111005859375],[0.12296875,0.1149169921875],[0.1268798828125,0.11751953125],[0.1307861328125,0.1214306640625],[0.134697265625,0.124033203125],[0.1372998046875,0.1253369140625],[0.1399072265625,0.1279443359375],[0.141640625,0.1296826171875],[0.1429443359375,0.1296826171875],[0.144248046875,0.1309814453125],[0.1451171875,0.1318505859375],[0.1451171875,0.1318505859375],[0.1463671875,0.1331005859375],[0.1463671875,0.1331005859375],[0.1463671875,0.1339697265625],[0.1476708984375,0.1339697265625],[0.1476708984375,0.1339697265625],[0.1489208984375,0.1352197265625],[0.1489208984375,0.1352197265625],[0.1501708984375,0.1352197265625],[0.1501708984375,0.1352197265625],[0.1501708984375,0.1352197265625],[0.1501708984375,0.1352197265625],[0.1501708984375,0.1352197265625],[0.1501708984375,0.1352197265625],[0.1501708984375,0.1352197265625],[0.1501708984375,0.1352197265625],[0.1501708984375,0.1352197265625],[0.1501708984375,0.1352197265625],[0.1501708984375,0.1352197265625],[0.1501708984375,0.1352197265625],[0.1501708984375,0.1352197265625]],[[-0.0079443359375,-0.1967578125],[-0.0079443359375,-0.1967578125],[-0.0079443359375,-0.1967578125],[-0.0079443359375,-0.1967578125],[-0.0079443359375,-0.1967578125],[-0.0079443359375,-0.1967578125],[-0.0079443359375,-0.1967578125],[-0.0079443359375,-0.1967578125],[-0.0079443359375,-0.1967578125],[-0.0079443359375,-0.1967578125],[-0.0079443359375,-0.1967578125],[-0.0079443359375,-0.1967578125],[-0.0079443359375,-0.1967578125],[-0.0079443359375,-0.1967578125],[-0.0079443359375,-0.1967578125],[-0.0079443359375,-0.1967578125],[-0.0079443359375,-0.1967578125],[-0.0079443359375,-0.1967578125],[-0.0079443359375,-0.1967578125],[-0.0079443359375,-0.1967578125],[-0.0079443359375,-0.1942578125],[-0.0079443359375,-0.1903515625],[-0.0079443359375,-0.1864404296875],[-0.0079443359375,-0.1825341796875],[-0.0079443359375,-0.174716796875],[-0.009248046875,-0.1668994140625],[-0.009248046875,-0.161689453125],[-0.0105517578125,-0.15517578125],[-0.01228515625,-0.1482275390625],[-0.0135888671875,-0.1417138671875],[-0.0174951171875,-0.13259765625],[-0.0201025390625,-0.1234765625],[-0.0240087890625,-0.116962890625],[-0.0266162109375,-0.11044921875],[-0.0292236328125,-0.103935546875],[-0.0305224609375,-0.0987255859375],[-0.031826171875,-0.0922119140625],[-0.03443359375,-0.085263671875],[-0.0370361328125,-0.0800537109375],[-0.040947265625,-0.0709375],[-0.0435498046875,-0.06572265625],[-0.0474609375,-0.05791015625],[-0.0513671875,-0.051396484375],[-0.0565771484375,-0.0435791015625],[-0.0630908203125,-0.03185546875],[-0.070908203125,-0.0175244140625],[-0.0787255859375,-0.0044970703125],[-0.083935546875,0.0072265625],[-0.087841796875,0.013740234375],[-0.0930517578125,0.0215576171875],[-0.0982666015625,0.030673828125],[-0.104345703125,0.0367529296875],[-0.1095556640625,0.0432666015625],[-0.114765625,0.0458740234375],[-0.1199755859375,0.051083984375],[-0.12388671875,0.054990234375],[-0.12388671875,0.054990234375],[-0.12388671875,0.054990234375],[-0.12388671875,0.054990234375],[-0.12388671875,0.054990234375],[-0.12388671875,0.054990234375],[-0.12388671875,0.054990234375],[-0.12388671875,0.054990234375],[-0.12388671875,0.054990234375],[-0.12388671875,0.054990234375],[-0.12388671875,0.054990234375],[-0.12388671875,0.054990234375],[-0.12388671875,0.054990234375],[-0.12388671875,0.054990234375],[-0.12388671875,0.054990234375],[-0.12388671875,0.054990234375],[-0.12513671875,0.054990234375],[-0.12513671875,0.054990234375],[-0.126435546875,0.0562939453125],[-0.12904296875,0.060205078125],[-0.13294921875,0.0654150390625],[-0.1368603515625,0.070625],[-0.1407666015625,0.07453125],[-0.1472802734375,0.0823486328125],[-0.1472802734375,0.0823486328125],[-0.1498876953125,0.0862548828125],[-0.15509765625,0.0914697265625],[-0.1594384765625,0.09494140625],[-0.1646484375,0.1001513671875],[-0.1685595703125,0.1027587890625],[-0.171162109375,0.1040625],[-0.17376953125,0.105361328125],[-0.1750732421875,0.1066650390625],[-0.17767578125,0.1092724609375],[-0.1815869140625,0.1131787109375],[-0.186796875,0.118388671875],[-0.1920068359375,0.1235986328125],[-0.197216796875,0.1288134765625],[-0.2011279296875,0.131416015625],[-0.20373046875,0.1353271484375],[-0.206337890625,0.1366259765625],[-0.206337890625,0.1366259765625],[-0.206337890625,0.1366259765625],[-0.206337890625,0.1366259765625],[-0.206337890625,0.1366259765625],[-0.206337890625,0.1366259765625]]]",2,"[401,101]",,,,,,,,,,,,,,volleyballcourt.jpg,space,12.76816,0,6,6,92,1,staircase.jpg,skatepark7.jpg,tvstudio2.jpg,soccerfield2.jpg,,
Image_List_2,,,,,,,,,,,,,,,,44239,2020-11-25_10h31.45.576,analogCatScenes,2020.1.3,MacIntel,60,"[1280,800]","[[[0.000029296875,-0.19849609375],[0.000029296875,-0.19849609375],[0.000029296875,-0.19849609375],[0.000029296875,-0.19849609375],[0.000029296875,-0.19849609375],[0.000029296875,-0.19849609375],[0.000029296875,-0.19849609375],[0.000029296875,-0.19849609375],[0.000029296875,-0.19849609375],[0.000029296875,-0.19849609375],[0.000029296875,-0.19849609375],[0.000029296875,-0.19849609375],[0.000029296875,-0.19849609375],[0.000029296875,-0.19849609375],[0.000029296875,-0.19849609375],[0.000029296875,-0.19849609375],[0.000029296875,-0.19849609375],[0.000029296875,-0.19849609375],[0.000029296875,-0.19849609375],[0.000029296875,-0.19849609375],[0.000029296875,-0.19849609375],[0.000029296875,-0.19849609375],[0.000029296875,-0.19849609375],[0.000029296875,-0.19849609375],[0.000029296875,-0.19849609375],[0.000029296875,-0.1920361328125],[0.000029296875,-0.1920361328125],[0.000029296875,-0.1894287109375],[0.000029296875,-0.1868212890625],[0.000029296875,-0.1829150390625],[0.000029296875,-0.1790087890625],[0.000029296875,-0.1764013671875],[0.000029296875,-0.1724951171875],[0.000029296875,-0.17119140625],[0.000029296875,-0.168583984375],[0.000029296875,-0.1659814453125],[0.0013330078125,-0.1620703125],[0.0013330078125,-0.1581640625],[0.00263671875,-0.1529541015625],[0.00263671875,-0.147744140625],[0.0039404296875,-0.1438330078125],[0.0039404296875,-0.138623046875],[0.0052392578125,-0.1334130859375],[0.0052392578125,-0.125595703125],[0.00654296875,-0.11908203125],[0.0078466796875,-0.112568359375],[0.009150390625,-0.1060546875],[0.01044921875,-0.1008447265625],[0.0117529296875,-0.0943310546875],[0.013056640625,-0.086513671875],[0.0143603515625,-0.0813037109375],[0.0143603515625,-0.0747900390625],[0.0143603515625,-0.069580078125],[0.0143603515625,-0.06306640625],[0.0143603515625,-0.05916015625],[0.0143603515625,-0.0539453125],[0.0143603515625,-0.0487353515625],[0.0156640625,-0.043525390625],[0.0165283203125,-0.0383154296875],[0.01783203125,-0.0318017578125],[0.01783203125,-0.0252880859375],[0.01783203125,-0.017470703125],[0.01783203125,-0.0122607421875],[0.01783203125,-0.0122607421875],[0.0191357421875,-0.0057470703125],[0.0191357421875,-0.000537109375],[0.020439453125,0.0020703125],[0.020439453125,0.0046728515625],[0.020439453125,0.0059765625],[0.020439453125,0.006845703125],[0.020439453125,0.0081494140625],[0.020439453125,0.0081494140625],[0.020439453125,0.0090185546875],[0.020439453125,0.0090185546875],[0.020439453125,0.0090185546875],[0.020439453125,0.0090185546875]]]",1,[76],,,,,,,,,,,,,,playground6.jpg,space,4.14329,0,7,7,75,1,pantry5.jpg,operatingroom4.jpg,park.jpg,lockerroom.jpg,,
Image_List_2,,,,,,,,,,,,,,,,44239,2020-11-25_10h31.45.576,analogCatScenes,2020.1.3,MacIntel,60,"[1280,800]","[[[0.000517578125,-0.1962158203125],[0.000517578125,-0.1962158203125],[0.000517578125,-0.1962158203125],[0.000517578125,-0.1962158203125],[0.000517578125,-0.1962158203125],[0.000517578125,-0.1962158203125],[0.000517578125,-0.1962158203125],[0.000517578125,-0.1962158203125],[0.000517578125,-0.1962158203125],[0.000517578125,-0.1962158203125],[0.000517578125,-0.1962158203125],[0.000517578125,-0.1962158203125],[0.000517578125,-0.1962158203125],[0.000517578125,-0.1962158203125],[0.000517578125,-0.1962158203125],[0.000517578125,-0.1962158203125],[0.000517578125,-0.1962158203125],[0.000517578125,-0.1962158203125],[0.000517578125,-0.1962158203125],[0.000517578125,-0.1962158203125],[0.000517578125,-0.1962158203125],[0.000517578125,-0.1962158203125],[0.000517578125,-0.1962158203125],[0.000517578125,-0.1962158203125],[0.000517578125,-0.1962158203125],[0.000517578125,-0.1962158203125],[0.000517578125,-0.1949658203125],[0.000517578125,-0.1936669921875],[0.000517578125,-0.19236328125],[0.000517578125,-0.1910595703125],[0.0018212890625,-0.189755859375],[0.0018212890625,-0.1884521484375],[0.0031201171875,-0.1871533203125],[0.004423828125,-0.185849609375],[0.0057275390625,-0.1845458984375],[0.0083349609375,-0.181943359375],[0.0122412109375,-0.1780322265625],[0.0161474609375,-0.1754296875],[0.0187548828125,-0.1715185546875],[0.02396484375,-0.16630859375],[0.0291748046875,-0.159794921875],[0.0330859375,-0.1545849609375],[0.0382958984375,-0.150673828125],[0.0422021484375,-0.1454638671875],[0.0456787109375,-0.141123046875],[0.04828125,-0.138515625],[0.0521923828125,-0.1333056640625],[0.0521923828125,-0.1333056640625],[0.05740234375,-0.128095703125],[0.06130859375,-0.124189453125],[0.0691259765625,-0.11767578125],[0.0743359375,-0.1124658203125],[0.0886669921875,-0.1033447265625],[0.0886669921875,-0.1033447265625],[0.09474609375,-0.09900390625],[0.101259765625,-0.0937939453125],[0.1064697265625,-0.0898828125],[0.1116796875,-0.0846728515625],[0.12470703125,-0.0742529296875],[0.12470703125,-0.0742529296875],[0.131220703125,-0.070341796875],[0.144248046875,-0.063828125],[0.15076171875,-0.0612255859375],[0.1594482421875,-0.056015625],[0.1659619140625,-0.0521044921875],[0.172470703125,-0.049501953125],[0.1802880859375,-0.0455908203125],[0.1868017578125,-0.04298828125],[0.194619140625,-0.040380859375],[0.1998291015625,-0.0390771484375],[0.205908203125,-0.0382080078125],[0.2098193359375,-0.0369091796875],[0.215029296875,-0.0343017578125],[0.2202392578125,-0.0303955078125],[0.222841796875,-0.029091796875],[0.2241455078125,-0.0277880859375],[0.22544921875,-0.0277880859375],[0.226318359375,-0.0277880859375],[0.226318359375,-0.0277880859375],[0.226318359375,-0.0277880859375],[0.226318359375,-0.0277880859375],[0.226318359375,-0.0277880859375],[0.226318359375,-0.026484375],[0.226318359375,-0.026484375],[0.226318359375,-0.026484375],[0.226318359375,-0.026484375],[0.226318359375,-0.026484375],[0.226318359375,-0.026484375],[0.226318359375,-0.026484375],[0.226318359375,-0.026484375],[0.226318359375,-0.026484375],[0.226318359375,-0.026484375],[0.226318359375,-0.026484375]],[[-0.0075244140625,-0.191494140625],[-0.0075244140625,-0.191494140625],[-0.0075244140625,-0.191494140625],[-0.0075244140625,-0.191494140625],[-0.0075244140625,-0.191494140625],[-0.0075244140625,-0.191494140625],[-0.0075244140625,-0.191494140625],[-0.0075244140625,-0.191494140625],[-0.0075244140625,-0.191494140625],[-0.0075244140625,-0.191494140625],[-0.0075244140625,-0.191494140625],[-0.0075244140625,-0.191494140625],[-0.0075244140625,-0.191494140625],[-0.0075244140625,-0.191494140625],[-0.0075244140625,-0.191494140625],[-0.0075244140625,-0.191494140625],[-0.0075244140625,-0.191494140625],[-0.0075244140625,-0.191494140625],[-0.0075244140625,-0.191494140625],[-0.0075244140625,-0.191494140625],[-0.0075244140625,-0.191494140625],[-0.0075244140625,-0.191494140625],[-0.0075244140625,-0.191494140625],[-0.0075244140625,-0.191494140625],[-0.0075244140625,-0.191494140625],[-0.0075244140625,-0.191494140625],[-0.0075244140625,-0.191494140625],[-0.0075244140625,-0.191494140625],[-0.0075244140625,-0.191494140625],[-0.0075244140625,-0.191494140625],[-0.0075244140625,-0.191494140625],[-0.0075244140625,-0.191494140625],[-0.0075244140625,-0.191494140625],[-0.0075244140625,-0.191494140625],[-0.0075244140625,-0.191494140625],[-0.0075244140625,-0.191494140625],[-0.0075244140625,-0.191494140625],[-0.0075244140625,-0.191494140625],[-0.0075244140625,-0.191494140625],[-0.0075244140625,-0.191494140625],[-0.0075244140625,-0.191494140625],[-0.0075244140625,-0.191494140625],[-0.0075244140625,-0.191494140625],[-0.0075244140625,-0.191494140625],[-0.0075244140625,-0.191494140625],[-0.0075244140625,-0.191494140625],[-0.0075244140625,-0.191494140625],[-0.0075244140625,-0.191494140625],[-0.0075244140625,-0.191494140625],[-0.0075244140625,-0.191494140625],[-0.0075244140625,-0.191494140625],[-0.0075244140625,-0.190625],[-0.0088232421875,-0.1893212890625],[-0.0088232421875,-0.18671875],[-0.0114306640625,-0.1854150390625],[-0.0140380859375,-0.1828076171875],[-0.016640625,-0.180205078125],[-0.019248046875,-0.1762939453125],[-0.023154296875,-0.1723876953125],[-0.026630859375,-0.168916015625],[-0.0292333984375,-0.16630859375],[-0.030537109375,-0.163701171875],[-0.03314453125,-0.1610986328125],[-0.03705078125,-0.159794921875],[-0.039658203125,-0.1571875],[-0.0422607421875,-0.1545849609375],[-0.046171875,-0.1519775390625],[-0.0496435546875,-0.149375],[-0.0522509765625,-0.146767578125],[-0.0561572265625,-0.1441650390625],[-0.0600634765625,-0.14025390625],[-0.0652783203125,-0.13634765625],[-0.0652783203125,-0.13634765625],[-0.071787109375,-0.1324365234375],[-0.0796044921875,-0.1272265625],[-0.0839501953125,-0.1237548828125],[-0.08916015625,-0.11984375],[-0.0943701171875,-0.1159375],[-0.099580078125,-0.11203125],[-0.1047900390625,-0.1081201171875],[-0.11,-0.105517578125],[-0.11521484375,-0.1016064453125],[-0.121728515625,-0.0977001953125],[-0.1282421875,-0.0937939453125],[-0.1399658203125,-0.0872802734375],[-0.1399658203125,-0.0872802734375],[-0.1469140625,-0.0829345703125],[-0.1547265625,-0.0790283203125],[-0.1599365234375,-0.0764208984375],[-0.1664501953125,-0.0725146484375],[-0.1716650390625,-0.0699072265625],[-0.1755712890625,-0.0673046875],[-0.1794775390625,-0.0660009765625],[-0.1846923828125,-0.0633935546875],[-0.18990234375,-0.0620947265625],[-0.19380859375,-0.0594873046875],[-0.1990185546875,-0.0568798828125],[-0.204228515625,-0.0555810546875],[-0.2081396484375,-0.0529736328125],[-0.2120458984375,-0.051669921875],[-0.2146533203125,-0.0490673828125],[-0.21595703125,-0.0490673828125],[-0.21595703125,-0.047763671875],[-0.21595703125,-0.047763671875],[-0.21595703125,-0.047763671875],[-0.21595703125,-0.047763671875],[-0.21595703125,-0.047763671875],[-0.21595703125,-0.047763671875],[-0.21595703125,-0.047763671875],[-0.21595703125,-0.047763671875],[-0.21595703125,-0.047763671875],[-0.21595703125,-0.047763671875],[-0.21595703125,-0.047763671875],[-0.21595703125,-0.047763671875],[-0.21595703125,-0.047763671875],[-0.21595703125,-0.047763671875],[-0.21595703125,-0.047763671875],[-0.21595703125,-0.047763671875],[-0.21595703125,-0.047763671875],[-0.21595703125,-0.047763671875],[-0.21595703125,-0.047763671875],[-0.21595703125,-0.047763671875],[-0.21595703125,-0.047763671875]],[[-0.004365234375,-0.1956787109375],[-0.004365234375,-0.1956787109375],[-0.004365234375,-0.1956787109375],[-0.004365234375,-0.1956787109375],[-0.004365234375,-0.1956787109375],[-0.004365234375,-0.1956787109375],[-0.004365234375,-0.1956787109375],[-0.004365234375,-0.1956787109375],[-0.004365234375,-0.1956787109375],[-0.004365234375,-0.1956787109375],[-0.004365234375,-0.1956787109375],[-0.004365234375,-0.1956787109375],[-0.004365234375,-0.1956787109375],[-0.004365234375,-0.1956787109375],[-0.004365234375,-0.1956787109375],[-0.004365234375,-0.1956787109375],[-0.004365234375,-0.1956787109375],[-0.004365234375,-0.1956787109375],[-0.004365234375,-0.1956787109375],[-0.004365234375,-0.1956787109375],[-0.004365234375,-0.1956787109375],[-0.004365234375,-0.1956787109375],[-0.004365234375,-0.1956787109375],[-0.004365234375,-0.1956787109375],[-0.004365234375,-0.1931787109375],[-0.004365234375,-0.1892724609375],[-0.004365234375,-0.185361328125],[-0.0030615234375,-0.1801513671875],[-0.0030615234375,-0.17494140625],[-0.0030615234375,-0.1697314453125],[-0.0017578125,-0.1632177734375],[-0.0017578125,-0.1580078125],[-0.0008935546875,-0.1510595703125],[-0.0008935546875,-0.1432421875],[-0.0008935546875,-0.1380322265625],[-0.0008935546875,-0.1315185546875],[-0.0008935546875,-0.12630859375],[-0.0008935546875,-0.12109375],[-0.0008935546875,-0.1158837890625],[-0.0008935546875,-0.110673828125],[0.00041015625,-0.106767578125],[0.00041015625,-0.106767578125],[0.0017138671875,-0.101552734375],[0.0025830078125,-0.0963427734375],[0.00388671875,-0.0924365234375],[0.0064892578125,-0.084619140625],[0.00779296875,-0.0768017578125],[0.010400390625,-0.067685546875],[0.01169921875,-0.0624755859375],[0.014306640625,-0.058564453125],[0.018212890625,-0.050751953125],[0.0208203125,-0.047275390625],[0.0208203125,-0.047275390625],[0.0221240234375,-0.043369140625],[0.0260302734375,-0.0394580078125],[0.027333984375,-0.0355517578125],[0.031240234375,-0.030341796875],[0.0325439453125,-0.0264306640625],[0.0351513671875,-0.0199169921875],[0.036455078125,-0.0160107421875],[0.03775390625,-0.01080078125],[0.0390576171875,-0.00689453125],[0.040361328125,-0.0029833984375],[0.04123046875,0.001357421875],[0.04123046875,0.0065673828125],[0.0425341796875,0.014384765625],[0.04513671875,0.023505859375],[0.0490478515625,0.03392578125],[0.0503466796875,0.0417431640625],[0.0529541015625,0.046953125],[0.0542578125,0.053466796875],[0.0568603515625,0.0586767578125],[0.0581640625,0.06388671875],[0.05990234375,0.068232421875],[0.05990234375,0.0708349609375],[0.0612060546875,0.0734423828125],[0.0612060546875,0.0747412109375],[0.0612060546875,0.076044921875],[0.0612060546875,0.0773486328125],[0.0612060546875,0.07865234375],[0.0612060546875,0.07865234375],[0.0624560546875,0.07865234375],[0.0624560546875,0.07865234375],[0.0624560546875,0.07865234375],[0.0624560546875,0.07865234375],[0.0624560546875,0.07865234375],[0.0624560546875,0.07865234375],[0.0624560546875,0.07865234375]]]",3,"[93,123,88]",,,,,,,,,,,,,,banquetHall6.jpg,space,12.604715,0,8,8,8,1,attic3.jpg,balconyIN.jpg,bar.jpg,applestore4.jpg,,
Image_List_2,,,,,,,,,,,,,,,,44239,2020-11-25_10h31.45.576,analogCatScenes,2020.1.3,MacIntel,60,"[1280,800]","[[[0.00041015625,-0.1999658203125],[0.00041015625,-0.1999658203125],[0.00041015625,-0.1999658203125],[0.00041015625,-0.1999658203125],[0.00041015625,-0.1999658203125],[0.00041015625,-0.1999658203125],[0.00041015625,-0.1999658203125],[0.00041015625,-0.1999658203125],[0.00041015625,-0.1999658203125],[0.00041015625,-0.1999658203125],[0.00041015625,-0.1999658203125],[0.00041015625,-0.1999658203125],[0.00041015625,-0.1974658203125],[0.00041015625,-0.1909521484375],[0.00041015625,-0.1909521484375],[0.00041015625,-0.1818359375],[0.00041015625,-0.1740185546875],[0.003017578125,-0.166201171875],[0.006923828125,-0.153173828125],[0.0108349609375,-0.1414501953125],[0.0147412109375,-0.1310302734375],[0.019951171875,-0.1206103515625],[0.023427734375,-0.11279296875],[0.027333984375,-0.106279296875],[0.031240234375,-0.099765625],[0.03775390625,-0.09064453125],[0.040361328125,-0.08673828125],[0.0455712890625,-0.0815283203125],[0.05078125,-0.0737109375],[0.0559912109375,-0.067197265625],[0.0612060546875,-0.06068359375],[0.065546875,-0.0528662109375],[0.0707568359375,-0.0450537109375],[0.075966796875,-0.037236328125],[0.07857421875,-0.033330078125],[0.085087890625,-0.0255126953125],[0.088994140625,-0.020302734375],[0.0929052734375,-0.015087890625],[0.0955078125,-0.0098779296875],[0.0994140625,-0.0033642578125],[0.102021484375,0.000107421875],[0.1033251953125,0.0040185546875],[0.105927734375,0.0079248046875],[0.1098388671875,0.01052734375],[0.11244140625,0.0144384765625],[0.1163525390625,0.0183447265625],[0.118955078125,0.022255859375],[0.1228662109375,0.026162109375],[0.124169921875,0.030068359375],[0.1259033203125,0.03267578125],[0.1259033203125,0.03267578125],[0.1259033203125,0.033544921875],[0.1259033203125,0.0344140625],[0.1259033203125,0.0344140625],[0.1259033203125,0.0344140625],[0.1259033203125,0.0344140625],[0.1259033203125,0.0344140625],[0.1259033203125,0.0344140625],[0.1259033203125,0.0344140625],[0.1259033203125,0.0344140625]],[[-0.0021533203125,-0.20134765625],[-0.0021533203125,-0.20134765625],[-0.0021533203125,-0.20134765625],[-0.0021533203125,-0.20134765625],[-0.0021533203125,-0.20134765625],[-0.0021533203125,-0.20134765625],[-0.0021533203125,-0.20134765625],[-0.0021533203125,-0.20134765625],[-0.0021533203125,-0.20134765625],[-0.0021533203125,-0.20134765625],[-0.0021533203125,-0.20134765625],[-0.0021533203125,-0.20134765625],[-0.0021533203125,-0.20134765625],[-0.0021533203125,-0.20134765625],[-0.0021533203125,-0.20134765625],[-0.0021533203125,-0.20134765625],[-0.0021533203125,-0.20134765625],[-0.0021533203125,-0.20134765625],[-0.0021533203125,-0.20134765625],[-0.0021533203125,-0.20134765625],[-0.0021533203125,-0.20134765625],[-0.0021533203125,-0.20134765625],[-0.0021533203125,-0.20134765625],[-0.0021533203125,-0.20134765625],[-0.0021533203125,-0.20134765625],[-0.0021533203125,-0.20134765625],[-0.0021533203125,-0.20134765625],[-0.0034033203125,-0.20134765625],[-0.0034033203125,-0.20134765625],[-0.0060107421875,-0.20134765625],[-0.0099169921875,-0.20134765625],[-0.0125244140625,-0.1987451171875],[-0.0164306640625,-0.19744140625],[-0.0203369140625,-0.194833984375],[-0.0229443359375,-0.1935302734375],[-0.0268505859375,-0.1922314453125],[-0.03076171875,-0.1922314453125],[-0.0342333984375,-0.1913623046875],[-0.0407470703125,-0.1913623046875],[-0.0472607421875,-0.1887548828125],[-0.0537744140625,-0.18615234375],[-0.0628955078125,-0.183544921875],[-0.0707080078125,-0.179638671875],[-0.0772216796875,-0.179638671875],[-0.0850390625,-0.17703125],[-0.0902490234375,-0.17703125],[-0.096328125,-0.17703125],[-0.1041455078125,-0.17703125],[-0.10935546875,-0.1757275390625],[-0.115869140625,-0.1757275390625],[-0.1223828125,-0.1757275390625],[-0.128896484375,-0.1757275390625],[-0.1341064453125,-0.174423828125],[-0.1393212890625,-0.174423828125],[-0.141923828125,-0.174423828125],[-0.145400390625,-0.174423828125],[-0.1506103515625,-0.174423828125],[-0.1545166015625,-0.174423828125],[-0.1597265625,-0.174423828125],[-0.1649365234375,-0.1757275390625],[-0.1714501953125,-0.17703125],[-0.1766650390625,-0.1783349609375],[-0.1831787109375,-0.179638671875],[-0.1870849609375,-0.1809375],[-0.192294921875,-0.1822412109375],[-0.195771484375,-0.1822412109375],[-0.199677734375,-0.1822412109375],[-0.2009814453125,-0.1822412109375],[-0.203583984375,-0.1822412109375],[-0.2048876953125,-0.1822412109375],[-0.20619140625,-0.1822412109375],[-0.2087939453125,-0.1822412109375],[-0.21009765625,-0.1822412109375],[-0.2118359375,-0.1822412109375],[-0.2131396484375,-0.183544921875],[-0.214443359375,-0.183544921875],[-0.2157421875,-0.183544921875],[-0.2157421875,-0.1848486328125],[-0.2170458984375,-0.1848486328125],[-0.2170458984375,-0.1848486328125],[-0.2170458984375,-0.1848486328125],[-0.2170458984375,-0.1848486328125],[-0.2170458984375,-0.1848486328125],[-0.2170458984375,-0.1848486328125],[-0.2170458984375,-0.1848486328125],[-0.2170458984375,-0.1848486328125],[-0.2170458984375,-0.1848486328125],[-0.2170458984375,-0.1848486328125]],[[-0.0047607421875,-0.19494140625],[-0.0047607421875,-0.19494140625],[-0.0047607421875,-0.19494140625],[-0.0047607421875,-0.19494140625],[-0.0047607421875,-0.19494140625],[-0.0047607421875,-0.19494140625],[-0.0047607421875,-0.19494140625],[-0.0047607421875,-0.19494140625],[-0.0047607421875,-0.19494140625],[-0.0047607421875,-0.19494140625],[-0.0047607421875,-0.19494140625],[-0.0047607421875,-0.19494140625],[-0.0047607421875,-0.19494140625],[-0.0047607421875,-0.19494140625],[-0.0047607421875,-0.19494140625],[-0.0047607421875,-0.19494140625],[-0.0047607421875,-0.19494140625],[-0.0047607421875,-0.19494140625],[-0.0047607421875,-0.19494140625],[-0.0047607421875,-0.19494140625],[-0.0047607421875,-0.19494140625],[-0.0047607421875,-0.19494140625],[-0.0047607421875,-0.19494140625],[-0.0047607421875,-0.19494140625],[-0.0047607421875,-0.19494140625],[-0.0047607421875,-0.19494140625],[-0.0047607421875,-0.19494140625],[-0.0047607421875,-0.19494140625],[-0.0047607421875,-0.19494140625],[-0.0047607421875,-0.19494140625],[-0.0047607421875,-0.19494140625],[-0.0047607421875,-0.19494140625],[-0.0047607421875,-0.19494140625],[-0.0047607421875,-0.19494140625],[-0.0047607421875,-0.19494140625],[-0.0047607421875,-0.19494140625],[-0.0047607421875,-0.19494140625],[-0.0047607421875,-0.19494140625],[-0.0047607421875,-0.19494140625],[-0.0047607421875,-0.19494140625],[-0.0047607421875,-0.19494140625],[-0.0047607421875,-0.19494140625],[-0.0047607421875,-0.19494140625],[-0.0047607421875,-0.19494140625],[-0.0047607421875,-0.19494140625],[-0.0047607421875,-0.19369140625],[-0.0047607421875,-0.19369140625],[-0.0047607421875,-0.19369140625],[-0.0047607421875,-0.19369140625],[-0.0047607421875,-0.19369140625],[-0.0047607421875,-0.19369140625],[-0.0047607421875,-0.19369140625],[-0.0047607421875,-0.19369140625],[-0.0047607421875,-0.19369140625],[-0.0047607421875,-0.19369140625],[-0.0047607421875,-0.19369140625],[-0.0047607421875,-0.19369140625],[-0.0047607421875,-0.19369140625],[-0.0047607421875,-0.19369140625],[-0.0047607421875,-0.19369140625],[-0.0047607421875,-0.19369140625],[-0.0047607421875,-0.19369140625],[-0.0047607421875,-0.19369140625],[-0.0047607421875,-0.19244140625],[-0.0047607421875,-0.19244140625],[-0.0047607421875,-0.191572265625],[-0.0047607421875,-0.1902685546875],[-0.0047607421875,-0.18896484375],[-0.0047607421875,-0.187666015625],[-0.0047607421875,-0.1863623046875],[-0.0047607421875,-0.18505859375],[-0.006064453125,-0.182451171875],[-0.0069287109375,-0.1798486328125],[-0.008232421875,-0.1759375],[-0.0095361328125,-0.1733349609375],[-0.01083984375,-0.1707275390625],[-0.0134423828125,-0.1668212890625],[-0.01474609375,-0.1629150390625],[-0.017353515625,-0.15900390625],[-0.0199560546875,-0.15509765625],[-0.0225634765625,-0.1498876953125],[-0.0243017578125,-0.1455419921875],[-0.0256005859375,-0.1416357421875],[-0.026904296875,-0.1390283203125],[-0.026904296875,-0.1390283203125],[-0.0282080078125,-0.133818359375],[-0.0308154296875,-0.129912109375],[-0.0347216796875,-0.1181884765625],[-0.0347216796875,-0.1181884765625],[-0.0373291015625,-0.1129736328125],[-0.039931640625,-0.107763671875],[-0.0412353515625,-0.103857421875],[-0.0438427734375,-0.099951171875],[-0.0451416015625,-0.0960400390625],[-0.0477490234375,-0.0934375],[-0.049052734375,-0.090830078125],[-0.0503515625,-0.0895263671875],[-0.052958984375,-0.086923828125],[-0.054697265625,-0.083447265625],[-0.0560009765625,-0.0808447265625],[-0.058603515625,-0.07693359375],[-0.0599072265625,-0.07302734375],[-0.0625146484375,-0.070419921875],[-0.0638134765625,-0.0678173828125],[-0.0651171875,-0.0652099609375],[-0.0664208984375,-0.06390625],[-0.0672900390625,-0.063037109375],[-0.0672900390625,-0.0621728515625],[-0.06859375,-0.060869140625],[-0.06859375,-0.060869140625],[-0.069892578125,-0.060869140625],[-0.069892578125,-0.0595654296875],[-0.0711962890625,-0.0595654296875],[-0.0725,-0.05826171875],[-0.07375,-0.05826171875],[-0.0750537109375,-0.0569580078125],[-0.076357421875,-0.0569580078125],[-0.07765625,-0.0556591796875],[-0.0789599609375,-0.0530517578125],[-0.080263671875,-0.0504443359375],[-0.0815673828125,-0.0491455078125],[-0.0815673828125,-0.0465380859375],[-0.0815673828125,-0.0465380859375],[-0.0815673828125,-0.0465380859375]]]",3,"[60,88,124]",,,,,,,,,,,,,,hallway5.jpg,space,11.717955,0,9,9,51,1,gasstation6.jpg,frontDoor5.jpg,hayfield4.jpg,firestation5.jpg,,
