image_list,key_resp_intructions.keys,key_resp_intructions.rt,key_resp_intructions_3.keys,key_resp_intructions_3.rt,PracticeComplete_2.keys,PracticeComplete_2.rt,PracticeComplete_3.keys,PracticeComplete_3.rt,demo_trials.thisRepN,demo_trials.thisTrialN,demo_trials.thisN,demo_trials.thisIndex,demo_trials.ran,demo_images,path_images,participant,date,expName,psychopyVersion,OS,frameRate,windowSize,drawing,numDrawings,drawingSizes,practice_complete.keys,practice_complete.rt,PracticeComplete.keys,PracticeComplete.rt,practice_trials.thisRepN,practice_trials.thisTrialN,practice_trials.thisN,practice_trials.thisIndex,practice_trials.ran,practice_images,feedback_images,key_resp_intructions_2.keys,key_resp_intructions_2.rt,Image_List_3,trial_complete.keys,trial_complete.rt,trials.thisRepN,trials.thisTrialN,trials.thisN,trials.thisIndex,trials.ran,Image_List_1,Image_List_2,Image_List_4,Image_List_5,key_resp.keys,key_resp.rt
Image_List_3,space,17.32967,space,5.035765,space,11.275155,space,1.00383,0,0,0,5,1,right.jpg,right_path.jpg,44241,2020-11-24_17h22.09.467,analogCatScenes,2020.1.3,MacIntel,60,,,,,,,,,,,,,,,,,,,,,,,,,,,,,,,
Image_List_3,,,,,space,0.84525,space,0.561335,0,1,1,0,1,ahead.jpg,ahead_path.jpg,44241,2020-11-24_17h22.09.467,analogCatScenes,2020.1.3,MacIntel,60,,,,,,,,,,,,,,,,,,,,,,,,,,,,,,,
Image_List_3,,,,,space,0.518465,space,0.66825,0,2,2,1,1,ahead_left.jpg,ahead_left_path.jpg,44241,2020-11-24_17h22.09.467,analogCatScenes,2020.1.3,MacIntel,60,,,,,,,,,,,,,,,,,,,,,,,,,,,,,,,
Image_List_3,,,,,space,0.7656,space,0.585725,0,3,3,6,1,right_left.jpg,right_left_path.jpg,44241,2020-11-24_17h22.09.467,analogCatScenes,2020.1.3,MacIntel,60,,,,,,,,,,,,,,,,,,,,,,,,,,,,,,,
Image_List_3,,,,,space,0.584215,space,1.115945,0,4,4,2,1,ahead_right.jpg,ahead_right_path.jpg,44241,2020-11-24_17h22.09.467,analogCatScenes,2020.1.3,MacIntel,60,,,,,,,,,,,,,,,,,,,,,,,,,,,,,,,
Image_List_3,,,,,space,0.607475,space,0.622175,0,5,5,4,1,left.jpg,left_path.jpg,44241,2020-11-24_17h22.09.467,analogCatScenes,2020.1.3,MacIntel,60,,,,,,,,,,,,,,,,,,,,,,,,,,,,,,,
Image_List_3,,,,,space,0.8692,space,0.778125,0,6,6,3,1,ahead_right_left.jpg,ahead_right_left_path.jpg,44241,2020-11-24_17h22.09.467,analogCatScenes,2020.1.3,MacIntel,60,,,,,,,,,,,,,,,,,,,,,,,,,,,,,,,
Image_List_3,,,,,,,,,,,,,,,,44241,2020-11-24_17h22.09.467,analogCatScenes,2020.1.3,MacIntel,60,"[1440,900]",[],0,[],space,0.751385,space,0.600775,0,0,0,5,1,right_2.jpg,right_2_path.jpg,,,,,,,,,,,,,,,,
Image_List_3,,,,,,,,,,,,,,,,44241,2020-11-24_17h22.09.467,analogCatScenes,2020.1.3,MacIntel,60,"[1440,900]",[],0,[],space,0.570875,space,1.3629,0,1,1,2,1,ahead_right_2.jpg,ahead_right_2_path.jpg,,,,,,,,,,,,,,,,
Image_List_3,,,,,,,,,,,,,,,,44241,2020-11-24_17h22.09.467,analogCatScenes,2020.1.3,MacIntel,60,"[1440,900]",[],0,[],space,0.658015,space,0.369495,0,2,2,0,1,ahead_2.jpg,ahead_2_path.jpg,,,,,,,,,,,,,,,,
Image_List_3,,,,,,,,,,,,,,,,44241,2020-11-24_17h22.09.467,analogCatScenes,2020.1.3,MacIntel,60,"[1440,900]",[],0,[],space,1.94504,space,1.355175,0,3,3,3,1,ahead_right_left_2.jpg,ahead_right_left_2_path.jpg,,,,,,,,,,,,,,,,
Image_List_3,,,,,,,,,,,,,,,,44241,2020-11-24_17h22.09.467,analogCatScenes,2020.1.3,MacIntel,60,"[1440,900]",[],0,[],space,4.328895,space,0.810045,0,4,4,1,1,ahead_left_2.jpg,ahead_left_2_path.jpg,,,,,,,,,,,,,,,,
Image_List_3,,,,,,,,,,,,,,,,44241,2020-11-24_17h22.09.467,analogCatScenes,2020.1.3,MacIntel,60,"[1440,900]","[[[0.0004427083333333333,-0.19577256944444443],[0.0004427083333333333,-0.19577256944444443],[0.0004427083333333333,-0.19577256944444443],[0.0004427083333333333,-0.19577256944444443],[0.0004427083333333333,-0.19577256944444443],[0.0004427083333333333,-0.19577256944444443],[0.0004427083333333333,-0.19577256944444443],[0.0004427083333333333,-0.19577256944444443],[0.0004427083333333333,-0.19577256944444443],[0.0004427083333333333,-0.19577256944444443],[0.0004427083333333333,-0.19551215277777778],[0.0004427083333333333,-0.18883680555555554],[0.004240451388888889,-0.17897135416666668],[0.007625868055555556,-0.16879774305555556],[0.013142361111111112,-0.15533854166666666],[0.01790798611111111,-0.14222222222222222],[0.02325954861111111,-0.129765625],[0.02849392361111111,-0.11815104166666666],[0.03372829861111111,-0.10653645833333333],[0.03796875,-0.09690972222222222],[0.04271267361111111,-0.0873046875],[0.045008680555555555,-0.0813498263888889],[0.04746527777777778,-0.07724392361111111],[0.04970052083333333,-0.07188368055555555],[0.05224392361111111,-0.0671875],[0.0548828125,-0.06189236111111111],[0.058307291666666664,-0.05506076388888889],[0.06219184027777778,-0.04872395833333333],[0.06493923611111112,-0.0437109375],[0.06801649305555556,-0.0388671875],[0.07046440972222222,-0.035182291666666664],[0.07292100694444445,-0.031484375],[0.0761328125,-0.026675347222222222],[0.07896267361111112,-0.021098090277777776],[0.08125868055555556,-0.015143229166666666],[0.08615017361111112,-0.001775173611111111],[0.08947482638888889,0.008090277777777778],[0.09368055555555556,0.016106770833333332],[0.09769965277777778,0.023658854166666667],[0.1008029513888889,0.028120659722222222],[0.10263020833333333,0.030303819444444446],[0.10389322916666667,0.031575520833333336],[0.10515625,0.032213541666666665],[0.10607638888888889,0.03282552083333334],[0.10763020833333334,0.033467881944444444],[0.108203125,0.03375868055555555],[0.10877604166666667,0.03404947916666667],[0.10934895833333333,0.03404947916666667],[0.109921875,0.03404947916666667],[0.109921875,0.03404947916666667],[0.11018663194444445,0.03404947916666667],[0.11018663194444445,0.03404947916666667],[0.11018663194444445,0.03404947916666667],[0.11018663194444445,0.03404947916666667],[0.11018663194444445,0.03404947916666667],[0.11018663194444445,0.03404947916666667],[0.11018663194444445,0.03404947916666667],[0.11018663194444445,0.03404947916666667],[0.11018663194444445,0.03404947916666667],[0.11018663194444445,0.03404947916666667],[0.11018663194444445,0.03404947916666667],[0.11018663194444445,0.03404947916666667],[0.11018663194444445,0.03404947916666667],[0.11018663194444445,0.03404947916666667],[0.11018663194444445,0.03404947916666667],[0.11018663194444445,0.03404947916666667],[0.11018663194444445,0.03404947916666667],[0.11018663194444445,0.03404947916666667],[0.11018663194444445,0.03404947916666667],[0.11018663194444445,0.03404947916666667],[0.11018663194444445,0.03404947916666667],[0.11018663194444445,0.03404947916666667],[0.11018663194444445,0.03404947916666667],[0.10992621527777778,0.03404947916666667],[0.10934461805555555,0.03404947916666667],[0.10841579861111111,0.03404947916666667]],[[0.0013237847222222223,-0.19965711805555555],[0.0013237847222222223,-0.19965711805555555],[0.0013237847222222223,-0.19965711805555555],[0.0013237847222222223,-0.19965711805555555],[0.0013237847222222223,-0.19965711805555555],[0.0013237847222222223,-0.19965711805555555],[0.0013237847222222223,-0.19965711805555555],[0.0013237847222222223,-0.19965711805555555],[0.0013237847222222223,-0.19965711805555555],[0.0013237847222222223,-0.19965711805555555],[0.0013237847222222223,-0.19965711805555555],[0.0013237847222222223,-0.19861979166666666],[0.0009114583333333333,-0.19504774305555556],[-0.002109375,-0.18749565972222224],[-0.005134548611111111,-0.17937934027777777],[-0.009900173611111111,-0.17039496527777778],[-0.0146875,-0.16137586805555557],[-0.01935763888888889,-0.1531076388888889],[-0.0241796875,-0.14402777777777778],[-0.03045138888888889,-0.13095052083333333],[-0.03460503472222222,-0.12211371527777778],[-0.03825520833333333,-0.11327690972222222],[-0.04090711805555555,-0.10791666666666666],[-0.044244791666666665,-0.10174479166666667],[-0.04770833333333333,-0.09428819444444445],[-0.05101996527777778,-0.08814670138888889],[-0.05413628472222222,-0.08368055555555555],[-0.058823784722222223,-0.07580295138888889],[-0.061822916666666665,-0.07194878472222223],[-0.0662109375,-0.06562065972222222],[-0.06942708333333333,-0.06013888888888889],[-0.07534722222222222,-0.05025607638888889],[-0.079375,-0.04320746527777778],[-0.08262152777777777,-0.03753472222222222],[-0.0868359375,-0.02992621527777778],[-0.0907421875,-0.024006076388888888],[-0.09426649305555555,-0.01787326388888889],[-0.098984375,-0.010703125],[-0.10106770833333334,-0.006536458333333333],[-0.10362413194444445,-0.0018359375],[-0.10520833333333333,0.001736111111111111],[-0.10672743055555556,0.004774305555555556],[-0.10780815972222223,0.007339409722222222],[-0.10889322916666666,0.010950520833333333],[-0.1099435763888889,0.013042534722222223],[-0.1102951388888889,0.0147265625],[-0.11099826388888889,0.016818576388888888],[-0.11207899305555556,0.019383680555555557],[-0.11278211805555556,0.021475694444444443],[-0.11348524305555556,0.0236328125],[-0.11453559027777778,0.02572482638888889],[-0.11555555555555555,0.027408854166666666],[-0.11651475694444445,0.028684895833333335],[-0.11753472222222222,0.030368923611111112],[-0.1195703125,0.03309895833333333],[-0.12090711805555555,0.03478298611111111],[-0.12192708333333334,0.036467013888888886],[-0.12288628472222222,0.03774305555555556],[-0.12390625,0.039427083333333335],[-0.12495225694444445,0.041514756944444446],[-0.12594184027777777,0.043198784722222223],[-0.12661458333333334,0.0448828125],[-0.1272873263888889,0.04656684027777778],[-0.1279296875,0.04784288194444444],[-0.1285720486111111,0.04911892361111111],[-0.12889322916666668,0.05004774305555556],[-0.12918402777777777,0.05092013888888889],[-0.12947482638888888,0.05150173611111111],[-0.12947482638888888,0.05150173611111111],[-0.12974392361111112,0.05150173611111111],[-0.12974392361111112,0.05150173611111111],[-0.12974392361111112,0.05150173611111111],[-0.12974392361111112,0.05150173611111111],[-0.12974392361111112,0.05150173611111111]]]",2,"[76,74]",space,15.092845,space,1.711935,0,5,5,6,1,right_left_2.jpg,right_left_2_path.jpg,,,,,,,,,,,,,,,,
Image_List_3,,,,,,,,,,,,,,,,44241,2020-11-24_17h22.09.467,analogCatScenes,2020.1.3,MacIntel,60,"[1440,900]","[[[0.0023567708333333335,-0.20809895833333333],[0.0023567708333333335,-0.20809895833333333],[0.0023567708333333335,-0.20809895833333333],[0.0023567708333333335,-0.20809895833333333],[0.0023567708333333335,-0.20809895833333333],[0.0023567708333333335,-0.20809895833333333],[0.0023567708333333335,-0.20809895833333333],[0.0023567708333333335,-0.20809895833333333],[0.0023567708333333335,-0.20809895833333333],[0.0023567708333333335,-0.20809895833333333],[0.0023567708333333335,-0.20809895833333333],[-0.0005425347222222222,-0.20151041666666666],[-0.010203993055555555,-0.18799479166666666],[-0.031688368055555555,-0.15258246527777777],[-0.05733940972222222,-0.11309895833333333],[-0.07672743055555556,-0.08315972222222222],[-0.11346788194444445,-0.023919270833333332],[-0.13442274305555554,0.006427951388888889],[-0.15533854166666666,0.03896701388888889],[-0.16664496527777778,0.056762152777777776],[-0.17881510416666666,0.07539496527777778],[-0.18676649305555557,0.0875954861111111],[-0.19403211805555556,0.09854600694444444],[-0.19793836805555556,0.10490451388888888],[-0.20049479166666667,0.10960503472222222],[-0.20248697916666666,0.11276909722222223],[-0.2034765625,0.114453125],[-0.20408854166666668,0.11538194444444444],[-0.20437934027777777,0.11596354166666667],[-0.20467013888888888,0.11625434027777778],[-0.20494357638888888,0.11625434027777778],[-0.20521701388888888,0.11625434027777778],[-0.20521701388888888,0.11652777777777777],[-0.20549045138888888,0.11652777777777777],[-0.20549045138888888,0.11652777777777777],[-0.20575520833333333,0.11652777777777777],[-0.20602864583333333,0.11652777777777777]]]",1,[37],space,5.83544,space,0.954315,0,6,6,4,1,left_2.jpg,left_2_path.jpg,,,,,,,,,,,,,,,,
Image_List_3,,,,,,,,,,,,,,,,44241,2020-11-24_17h22.09.467,analogCatScenes,2020.1.3,MacIntel,60,"[1440,900]","[[[0.0011848958333333334,-0.20081597222222222],[0.0011848958333333334,-0.20081597222222222],[0.0011848958333333334,-0.20081597222222222],[0.0011848958333333334,-0.20081597222222222],[0.0011848958333333334,-0.20081597222222222],[0.0011848958333333334,-0.20081597222222222],[0.0011848958333333334,-0.20081597222222222],[0.0011848958333333334,-0.20081597222222222],[0.0011848958333333334,-0.20081597222222222],[0.0011848958333333334,-0.19924913194444444],[0.0011848958333333334,-0.19130208333333334],[0.0011848958333333334,-0.1832595486111111],[0.0011848958333333334,-0.1688324652777778],[0.0011848958333333334,-0.15165364583333332],[0.0011848958333333334,-0.1384765625],[0.000625,-0.12725260416666667],[0.00012152777777777777,-0.11757378472222223],[-0.0009548611111111111,-0.10795572916666667],[-0.001966145833333333,-0.09934461805555556],[-0.0039800347222222225,-0.0912890625],[-0.005525173611111111,-0.08317274305555555],[-0.007526041666666667,-0.07516927083333333],[-0.009518229166666666,-0.06720052083333333],[-0.012026909722222222,-0.055164930555555554],[-0.013068576388888888,-0.046328125],[-0.013572048611111111,-0.03749131944444444],[-0.013572048611111111,-0.02787326388888889],[-0.013572048611111111,-0.019817708333333333],[-0.013572048611111111,-0.0112109375],[-0.013572048611111111,-0.004596354166666667],[-0.013572048611111111,0.0034331597222222224],[-0.013572048611111111,0.013029513888888889],[-0.013572048611111111,0.022586805555555554],[-0.013572048611111111,0.032061631944444446],[-0.012504340277777777,0.0416796875],[-0.0099609375,0.053350694444444444],[-0.008559027777777778,0.05993923611111111],[-0.007239583333333333,0.065234375],[-0.006423611111111111,0.06940104166666666],[-0.005668402777777777,0.0725],[-0.004973958333333334,0.07459201388888889],[-0.004973958333333334,0.07627604166666667],[-0.004973958333333334,0.07720052083333333],[-0.004973958333333334,0.07720052083333333],[-0.004973958333333334,0.07720052083333333],[-0.004973958333333334,0.07720052083333333],[-0.004973958333333334,0.07720052083333333],[-0.004973958333333334,0.07720052083333333],[-0.004973958333333334,0.07720052083333333],[-0.004973958333333334,0.07720052083333333],[-0.004973958333333334,0.07720052083333333],[-0.004973958333333334,0.07720052083333333],[-0.004973958333333334,0.07720052083333333],[-0.004973958333333334,0.07720052083333333],[-0.004973958333333334,0.07720052083333333],[-0.004973958333333334,0.07720052083333333],[-0.004973958333333334,0.07720052083333333],[-0.004973958333333334,0.07951388888888888],[-0.005386284722222222,0.08356336805555556],[-0.006271701388888889,0.08885850694444444],[-0.008289930555555556,0.0969748263888889],[-0.010555555555555556,0.10827690972222222],[-0.012760416666666666,0.11873697916666667],[-0.014839409722222223,0.12757378472222222],[-0.015881076388888887,0.13641059027777777],[-0.017013888888888887,0.14411458333333332],[-0.017013888888888887,0.14893663194444445],[-0.01802517361111111,0.1570529513888889],[-0.01802517361111111,0.16187934027777778],[-0.01802517361111111,0.16820746527777777],[-0.01802517361111111,0.1761501736111111],[-0.01802517361111111,0.18085069444444443],[-0.01802517361111111,0.1849565972222222],[-0.01802517361111111,0.1890625],[-0.01802517361111111,0.19316840277777778],[-0.01802517361111111,0.19674045138888888],[-0.01802517361111111,0.20084635416666666],[-0.0176171875,0.20495225694444444],[-0.0168359375,0.20850694444444445],[-0.016050347222222223,0.21207899305555555],[-0.01529513888888889,0.2151171875],[-0.014192708333333333,0.21920138888888888],[-0.012803819444444444,0.2212934027777778],[-0.010972222222222222,0.22348090277777777],[-0.008697916666666666,0.22576388888888888],[-0.006614583333333333,0.22716145833333334],[-0.003962673611111111,0.2290625],[-0.0014105902777777778,0.23052083333333334],[0.0016015625,0.23203125],[0.004613715277777777,0.23354166666666668],[0.007625868055555556,0.23505208333333333],[0.010655381944444445,0.23619357638888888],[0.015733506944444444,0.23778211805555555],[0.01983072916666667,0.23819444444444443],[0.023988715277777777,0.23901909722222223],[0.028680555555555556,0.23987413194444446],[0.03277777777777778,0.24028645833333334],[0.037469618055555556,0.24114149305555554],[0.04153645833333333,0.24196180555555555],[0.04509982638888889,0.24313368055555556],[0.048641493055555554,0.2439236111111111],[0.05218315972222222,0.24471354166666667],[0.05572482638888889,0.24509548611111112],[0.05982204861111111,0.2455078125],[0.06596788194444445,0.2455078125],[0.07006510416666667,0.2455078125],[0.07362847222222223,0.2455078125],[0.07772135416666667,0.2455078125],[0.08181857638888888,0.2455078125],[0.08591579861111111,0.2455078125],[0.09060763888888888,0.2450998263888889],[0.09529947916666667,0.24466145833333333],[0.10055555555555555,0.2437890625],[0.10524739583333333,0.24294270833333334],[0.10987847222222222,0.24210503472222222],[0.11455729166666667,0.2408203125],[0.12189236111111111,0.23909288194444445],[0.1265842013888889,0.23780381944444445],[0.13127604166666668,0.23651475694444443],[0.1353732638888889,0.23569878472222222],[0.13893663194444444,0.23450086805555556],[0.14303385416666667,0.23368489583333332],[0.14659288194444445,0.23289930555555555],[0.15015625,0.23249131944444446],[0.15371961805555556,0.23249131944444446],[0.15780815972222223,0.23249131944444446],[0.16137152777777777,0.23249131944444446],[0.16698350694444444,0.23249131944444446],[0.17001302083333333,0.23249131944444446],[0.17256944444444444,0.23284288194444444],[0.17512586805555555,0.2332248263888889],[0.17720920138888888,0.23357638888888888],[0.1788845486111111,0.2339279513888889],[0.18096788194444444,0.2342795138888889],[0.18223524305555555,0.23460069444444445],[0.18315104166666665,0.23460069444444445],[0.18371961805555556,0.23489149305555557],[0.18428819444444444,0.23489149305555557],[0.18428819444444444,0.23518229166666665],[0.18428819444444444,0.2354513888888889],[0.18428819444444444,0.2354513888888889],[0.18428819444444444,0.2354513888888889],[0.18428819444444444,0.2354513888888889],[0.18428819444444444,0.2354513888888889]],[[-0.004105902777777778,-0.19758246527777779],[-0.004105902777777778,-0.19758246527777779],[-0.004105902777777778,-0.19758246527777779],[-0.004105902777777778,-0.19758246527777779],[-0.004105902777777778,-0.19758246527777779],[-0.004105902777777778,-0.19758246527777779],[-0.004105902777777778,-0.19758246527777779],[-0.004105902777777778,-0.19758246527777779],[-0.004105902777777778,-0.19758246527777779],[-0.004105902777777778,-0.19529947916666668],[-0.005985243055555555,-0.18871527777777777],[-0.007999131944444444,-0.18065972222222224],[-0.010516493055555555,-0.17260416666666667],[-0.017200520833333333,-0.15196180555555555],[-0.02065972222222222,-0.14059461805555556],[-0.024053819444444444,-0.12922743055555555],[-0.0256640625,-0.119609375],[-0.027808159722222222,-0.10999131944444444],[-0.0294140625,-0.10138020833333333],[-0.030421006944444443,-0.09332465277777778],[-0.030421006944444443,-0.0873220486111111],[-0.030421006944444443,-0.08073350694444445],[-0.030421006944444443,-0.07543836805555555],[-0.030421006944444443,-0.07078559027777778],[-0.030421006944444443,-0.06277777777777778],[-0.030421006944444443,-0.05807725694444445],[-0.030421006944444443,-0.0507421875],[-0.031341145833333334,-0.0444140625],[-0.03178385416666667,-0.039713541666666664],[-0.03232204861111111,-0.0328515625],[-0.03282552083333334,-0.026770833333333334],[-0.033363715277777775,-0.019314236111111112],[-0.033363715277777775,-0.011979166666666667],[-0.033363715277777775,-0.003967013888888889],[-0.033363715277777775,0.005138888888888889],[-0.033363715277777775,0.013988715277777777],[-0.03282986111111111,0.02031684027777778],[-0.03141927083333333,0.026931423611111113],[-0.030481770833333335,0.033537326388888886],[-0.029605034722222222,0.03908420138888889],[-0.028602430555555555,0.047200520833333336],[-0.028602430555555555,0.054535590277777775],[-0.028602430555555555,0.06265190972222222],[-0.028602430555555555,0.07311197916666666],[-0.028602430555555555,0.08354166666666667],[-0.028602430555555555,0.09315972222222223],[-0.028602430555555555,0.10199652777777778],[-0.028602430555555555,0.11235243055555555],[-0.028602430555555555,0.11830729166666666],[-0.0281640625,0.1230078125],[-0.0281640625,0.12604600694444446],[-0.0281640625,0.12813802083333334],[-0.02784722222222222,0.12877604166666667],[-0.02784722222222222,0.12877604166666667],[-0.02784722222222222,0.12877604166666667],[-0.02784722222222222,0.12877604166666667],[-0.02784722222222222,0.12877604166666667],[-0.02784722222222222,0.12877604166666667],[-0.02784722222222222,0.12877604166666667],[-0.02784722222222222,0.12877604166666667],[-0.02784722222222222,0.12877604166666667],[-0.02784722222222222,0.12877604166666667],[-0.02784722222222222,0.12877604166666667],[-0.02784722222222222,0.12877604166666667],[-0.02784722222222222,0.12877604166666667],[-0.02784722222222222,0.12877604166666667],[-0.02784722222222222,0.12877604166666667],[-0.02784722222222222,0.12877604166666667],[-0.02784722222222222,0.1325564236111111],[-0.02834201388888889,0.13913628472222223],[-0.029348958333333335,0.1471918402777778],[-0.0316796875,0.16505208333333332],[-0.032660590277777776,0.17250868055555554],[-0.033667534722222225,0.1805642361111111],[-0.03411024305555556,0.18651909722222224],[-0.03452256944444444,0.190625],[-0.03490451388888889,0.19419704861111112],[-0.03490451388888889,0.1967578125],[-0.03490451388888889,0.1984375],[-0.03490451388888889,0.20012152777777778],[-0.03490451388888889,0.20203125],[-0.03490451388888889,0.20266059027777777],[-0.0351953125,0.20388020833333334],[-0.0351953125,0.20446180555555554],[-0.035837673611111114,0.20573784722222221],[-0.03682725694444444,0.20707465277777778],[-0.037786458333333335,0.20835069444444446],[-0.03912326388888889,0.21003472222222222],[-0.04095486111111111,0.21221354166666667],[-0.042682291666666664,0.2139453125],[-0.04451388888888889,0.21612413194444444],[-0.046440972222222224,0.2188107638888889],[-0.047899305555555556,0.22137586805555556],[-0.050243055555555555,0.2255859375],[-0.05169270833333333,0.22813368055555555],[-0.05242621527777778,0.23069878472222222],[-0.05315972222222222,0.23325954861111112],[-0.053862847222222225,0.2353515625],[-0.054565972222222224,0.23750868055555555],[-0.054917534722222223,0.23960069444444446],[-0.05523871527777778,0.2408767361111111],[-0.05588107638888889,0.24215277777777777],[-0.05649305555555555,0.24308159722222222],[-0.057452256944444446,0.2440407986111111],[-0.05872829861111111,0.24531684027777778],[-0.06346788194444444,0.24725260416666667],[-0.06650607638888889,0.24801649305555556],[-0.07384114583333333,0.24851996527777778],[-0.08117621527777778,0.24851996527777778],[-0.08923177083333333,0.24851996527777778],[-0.09524305555555555,0.24851996527777778],[-0.10182725694444444,0.24851996527777778],[-0.10775607638888889,0.2480859375],[-0.11244791666666666,0.2476779513888889],[-0.11661458333333333,0.2476779513888889],[-0.12072048611111111,0.24726996527777778],[-0.12581163194444445,0.24689236111111112],[-0.12991753472222223,0.246484375],[-0.1340234375,0.2460763888888889],[-0.1375954861111111,0.2460763888888889],[-0.1411675347222222,0.24566840277777777],[-0.14420572916666666,0.24566840277777777],[-0.14777777777777779,0.24526041666666668],[-0.15132378472222222,0.24485677083333332],[-0.15733072916666666,0.24436631944444445],[-0.1608767361111111,0.24396267361111112],[-0.1661284722222222,0.24396267361111112],[-0.17347222222222222,0.24352430555555554],[-0.17817274305555555,0.24352430555555554],[-0.18371961805555556,0.24302517361111112],[-0.1884201388888889,0.24217881944444444],[-0.19312065972222223,0.2417404513888889],[-0.1972265625,0.24133246527777777],[-0.20026475694444446,0.24057725694444446],[-0.20282986111111112,0.24019965277777777],[-0.205390625,0.23947916666666666],[-0.20748263888888888,0.23913194444444444],[-0.2095746527777778,0.23878472222222222],[-0.21085069444444443,0.23846788194444443],[-0.2121267361111111,0.23815104166666667],[-0.2136935763888889,0.23815104166666667],[-0.21427517361111112,0.23815104166666667],[-0.21485243055555556,0.23786892361111112],[-0.2154296875,0.23786892361111112],[-0.2157204861111111,0.23786892361111112],[-0.2159939236111111,0.23786892361111112],[-0.2159939236111111,0.23786892361111112],[-0.2159939236111111,0.23786892361111112],[-0.2159939236111111,0.23786892361111112]]]",2,"[144,149]",,,,,,,,,,,,space,4.230685,dock1.jpg,space,8.800675,0,0,0,38,1,dining_car2.jpg,elevatorOutside4.jpg,driveway8.jpg,classroom1.jpg,,
Image_List_3,,,,,,,,,,,,,,,,44241,2020-11-24_17h22.09.467,analogCatScenes,2020.1.3,MacIntel,60,"[1440,900]","[[[0.0007118055555555556,-0.1922265625],[0.0007118055555555556,-0.1922265625],[0.0007118055555555556,-0.1922265625],[0.0007118055555555556,-0.1922265625],[0.0007118055555555556,-0.1922265625],[0.0007118055555555556,-0.1922265625],[0.0007118055555555556,-0.1922265625],[0.0007118055555555556,-0.1922265625],[0.0007118055555555556,-0.1922265625],[0.0007118055555555556,-0.1922265625],[0.0007118055555555556,-0.1922265625],[0.0017447916666666666,-0.1922265625],[0.004835069444444445,-0.19181423611111112],[0.009379340277777778,-0.19029079861111112],[0.015325520833333333,-0.1879861111111111],[0.02167534722222222,-0.1840798611111111],[0.028485243055555557,-0.18014756944444443],[0.034817708333333336,-0.17528211805555555],[0.03947482638888889,-0.17102864583333333],[0.04416232638888889,-0.16633246527777779],[0.048702256944444446,-0.1622222222222222],[0.051983506944444445,-0.15893229166666667],[0.05603732638888889,-0.1552170138888889],[0.0597265625,-0.15233940972222224],[0.06299045138888888,-0.1494748263888889],[0.0683203125,-0.1457769097222222],[0.07200954861111111,-0.14289930555555555],[0.07648003472222223,-0.13930555555555554],[0.0797265625,-0.13684027777777777],[0.08372395833333333,-0.1332465277777778],[0.08813368055555555,-0.12971354166666665],[0.09298611111111112,-0.12614149305555555],[0.09797743055555555,-0.12339409722222222],[0.10326388888888889,-0.12074652777777778],[0.107421875,-0.11866319444444444],[0.11416232638888889,-0.11487413194444444],[0.1185720486111111,-0.11134114583333334],[0.12241753472222222,-0.1079296875],[0.12707465277777777,-0.10326388888888889],[0.12997395833333333,-0.09991319444444445],[0.1346875,-0.09471788194444444],[0.13758680555555555,-0.0913671875],[0.1411111111111111,-0.08694878472222223],[0.14398003472222223,-0.08365885416666667],[0.14683159722222222,-0.08038628472222223],[0.1495876736111111,-0.07762152777777778],[0.15184895833333334,-0.0753515625],[0.1562673611111111,-0.07174479166666667],[0.15913628472222222,-0.06845486111111111],[0.1619140625,-0.06566840277777777],[0.1651953125,-0.062378472222222224],[0.1696657986111111,-0.05837239583333333],[0.17432291666666666,-0.054713541666666664],[0.17888020833333335,-0.0505859375],[0.18335069444444443,-0.04746527777777778],[0.1885373263888889,-0.04321180555555556],[0.19309895833333332,-0.03908420138888889],[0.1970920138888889,-0.03508246527777778],[0.20037326388888888,-0.031792534722222224],[0.20491319444444445,-0.026796875],[0.20778211805555555,-0.023506944444444445],[0.21065104166666668,-0.02062934027777778],[0.21292534722222223,-0.018346354166666665],[0.21475694444444443,-0.016158854166666667],[0.21658854166666666,-0.013971354166666667],[0.2184201388888889,-0.011783854166666666],[0.21974826388888888,-0.010099826388888889],[0.22110677083333333,-0.008763020833333333],[0.22202256944444446,-0.008155381944444444],[0.22259114583333334,-0.007578125],[0.22287760416666666,-0.007287326388888889],[0.22287760416666666,-0.007287326388888889],[0.22287760416666666,-0.007287326388888889]]]",1,[73],,,,,,,,,,,,,,brewery4.jpg,space,3.42603,0,1,1,18,1,bleachers5.jpg,casino1.jpg,castle2.jpg,basement6.jpg,,
Image_List_3,,,,,,,,,,,,,,,,44241,2020-11-24_17h22.09.467,analogCatScenes,2020.1.3,MacIntel,60,"[1440,900]","[[[0.0034418402777777776,-0.20288628472222223],[0.0034418402777777776,-0.20288628472222223],[0.0034418402777777776,-0.20288628472222223],[0.0034418402777777776,-0.20288628472222223],[0.0034418402777777776,-0.20288628472222223],[0.0034418402777777776,-0.20288628472222223],[0.0034418402777777776,-0.20288628472222223],[0.0034418402777777776,-0.20288628472222223],[0.0034418402777777776,-0.19972222222222222],[0.0034418402777777776,-0.193046875],[0.0029383680555555556,-0.18571180555555555],[0.0007986111111111112,-0.17584635416666666],[-0.00203125,-0.16454427083333334],[-0.004175347222222223,-0.15492621527777778],[-0.005177951388888889,-0.14886284722222223],[-0.006089409722222223,-0.1429513888888889],[-0.006532118055555556,-0.13825954861111112],[-0.006944444444444444,-0.13416666666666666],[-0.006944444444444444,-0.1311284722222222],[-0.006944444444444444,-0.12751736111111112],[-0.006944444444444444,-0.12495225694444445],[-0.006944444444444444,-0.12286024305555555],[-0.006944444444444444,-0.12076822916666667],[-0.00625,-0.11867621527777777],[-0.005902777777777778,-0.11658420138888889],[-0.005525173611111111,-0.11355034722222222],[-0.005525173611111111,-0.11051215277777778],[-0.005525173611111111,-0.10694878472222222],[-0.005525173611111111,-0.10286892361111111],[-0.005525173611111111,-0.09816840277777777],[-0.005525173611111111,-0.09149305555555555],[-0.005525173611111111,-0.08085069444444444],[-0.005525173611111111,-0.07476996527777778],[-0.005086805555555555,-0.06881510416666667],[-0.005086805555555555,-0.06351996527777778],[-0.004678819444444445,-0.058819444444444445],[-0.004270833333333333,-0.054713541666666664],[-0.004270833333333333,-0.04875868055555556],[-0.003832465277777778,-0.04346354166666667],[-0.0034548611111111112,-0.037200520833333334],[-0.0029340277777777776,-0.030980902777777777],[-0.0024652777777777776,-0.02615451388888889],[-0.002026909722222222,-0.020859375],[-0.0010243055555555556,-0.01009548611111111],[-0.0005555555555555556,-0.004140625],[-0.0005555555555555556,0.0005598958333333334],[-0.00008680555555555556,0.006510416666666667],[0.0003515625,0.011783854166666666],[0.0012586805555555556,0.01773871527777778],[0.0016970486111111112,0.0244140625],[0.002165798611111111,0.0303515625],[0.002690972222222222,0.036605902777777775],[0.002690972222222222,0.04077256944444444],[0.0031293402777777778,0.046063368055555554],[0.003537326388888889,0.052222222222222225],[0.003975694444444444,0.05692274305555556],[0.003975694444444444,0.06174045138888889],[0.004383680555555556,0.06644097222222223],[0.0048177083333333336,0.07112413194444445],[0.0048177083333333336,0.07523003472222223],[0.0051953125,0.07880208333333333],[0.0051953125,0.0813671875],[0.005512152777777778,0.08305121527777778],[0.005512152777777778,0.08398003472222222],[0.005512152777777778,0.08456163194444444],[0.005512152777777778,0.08483506944444444],[0.005512152777777778,0.08483506944444444],[0.005512152777777778,0.08483506944444444],[0.005512152777777778,0.08483506944444444]]]",1,[69],,,,,,,,,,,,,,dining_car3.jpg,space,2.94259,0,2,2,36,1,diner14.jpg,dormroom9.jpg,doctor1.jpg,checkoutcounter9.jpg,,
Image_List_3,,,,,,,,,,,,,,,,44241,2020-11-24_17h22.09.467,analogCatScenes,2020.1.3,MacIntel,60,"[1440,900]","[[[0.00022569444444444443,-0.1985720486111111],[0.00022569444444444443,-0.1985720486111111],[0.00022569444444444443,-0.1985720486111111],[0.00022569444444444443,-0.1985720486111111],[0.00022569444444444443,-0.1985720486111111],[0.00022569444444444443,-0.1985720486111111],[0.00022569444444444443,-0.1985720486111111],[0.00022569444444444443,-0.1985720486111111],[0.00022569444444444443,-0.1985720486111111],[0.00022569444444444443,-0.1985720486111111],[0.00022569444444444443,-0.1985720486111111],[0.00022569444444444443,-0.1985720486111111],[-0.002855902777777778,-0.1985720486111111],[-0.016028645833333334,-0.1979730902777778],[-0.028237847222222223,-0.19680555555555557],[-0.04429253472222222,-0.1945486111111111],[-0.06037760416666667,-0.19263454861111112],[-0.07446180555555555,-0.19081163194444445],[-0.08576388888888889,-0.18911024305555554],[-0.09538194444444445,-0.1875],[-0.10349826388888889,-0.18595486111111112],[-0.10957899305555556,-0.18494791666666666],[-0.11553385416666667,-0.18450520833333334],[-0.120234375,-0.18409288194444445],[-0.12698784722222223,-0.18409288194444445],[-0.13234809027777777,-0.18409288194444445],[-0.13592013888888888,-0.18409288194444445],[-0.1412152777777778,-0.18409288194444445],[-0.14651041666666667,-0.18409288194444445],[-0.1512109375,-0.18409288194444445],[-0.1565060763888889,-0.18409288194444445],[-0.1620529513888889,-0.18409288194444445],[-0.16796006944444444,-0.18409288194444445],[-0.1732421875,-0.1836501736111111],[-0.17851996527777778,-0.18321180555555555],[-0.18381510416666666,-0.18276909722222223],[-0.18944010416666668,-0.1819748263888889],[-0.19301215277777778,-0.1815625],[-0.19605034722222223,-0.18118055555555557],[-0.19962239583333333,-0.18118055555555557],[-0.20266059027777777,-0.18118055555555557],[-0.20623263888888888,-0.18118055555555557],[-0.20879774305555557,-0.18118055555555557],[-0.2118359375,-0.18079861111111112],[-0.21440104166666665,-0.18079861111111112],[-0.21742621527777778,-0.18079861111111112],[-0.2210373263888889,-0.18079861111111112],[-0.22359375,-0.18079861111111112],[-0.2256857638888889,-0.18079861111111112],[-0.22777777777777777,-0.18079861111111112],[-0.22946180555555556,-0.18079861111111112],[-0.23155381944444445,-0.18079861111111112],[-0.2332378472222222,-0.18079861111111112],[-0.234921875,-0.18079861111111112],[-0.23660590277777777,-0.18079861111111112],[-0.23788194444444444,-0.18079861111111112],[-0.2391579861111111,-0.18047743055555557],[-0.24008246527777777,-0.18019097222222222],[-0.24135850694444444,-0.17923177083333333],[-0.24295572916666666,-0.1776345486111111],[-0.24429253472222223,-0.17595052083333335],[-0.2453125,-0.17379340277777777],[-0.24671006944444446,-0.1717013888888889],[-0.24788194444444445,-0.1681293402777778],[-0.24958767361111112,-0.1633029513888889],[-0.25047309027777775,-0.1580078125],[-0.2514192708333333,-0.15139322916666667],[-0.25192274305555556,-0.1453125],[-0.25192274305555556,-0.13648003472222223],[-0.25192274305555556,-0.13165364583333333],[-0.25192274305555556,-0.12305121527777778],[-0.25192274305555556,-0.1177560763888889],[-0.25192274305555556,-0.11180121527777778],[-0.251484375,-0.10763454861111112],[-0.24953559027777777,-0.1001779513888889],[-0.24717881944444445,-0.09357204861111111],[-0.2437543402777778,-0.08623697916666667],[-0.24151909722222223,-0.08087673611111111],[-0.23819010416666667,-0.07470486111111112],[-0.23564670138888888,-0.07001302083333333],[-0.23288194444444443,-0.06446614583333334],[-0.2296050347222222,-0.058307291666666664],[-0.22756944444444444,-0.054223090277777775],[-0.2248654513888889,-0.049652777777777775],[-0.22153645833333332,-0.043480902777777775],[-0.21946180555555556,-0.03931423611111111],[-0.21647135416666666,-0.03505208333333333],[-0.2139236111111111,-0.03075954861111111],[-0.211875,-0.027065972222222224],[-0.21036458333333333,-0.023971354166666667],[-0.2084418402777778,-0.021280381944444444],[-0.2074001736111111,-0.019188368055555554],[-0.20636284722222223,-0.017100694444444446],[-0.20497395833333334,-0.013962673611111111],[-0.20384114583333332,-0.010924479166666667],[-0.2027387152777778,-0.008359375],[-0.20163628472222223,-0.0057942708333333336],[-0.2005078125,-0.0027647569444444442],[-0.19981336805555555,-0.0006727430555555556],[-0.19908854166666667,0.0018880208333333333],[-0.19842447916666667,0.003572048611111111],[-0.19807725694444445,0.0056640625],[-0.19776041666666666,0.007348090277777778],[-0.19741319444444444,0.00943576388888889],[-0.19671875,0.012560763888888889],[-0.19671875,0.014244791666666666],[-0.19637152777777778,0.016336805555555556],[-0.19637152777777778,0.01761284722222222],[-0.19637152777777778,0.019296875],[-0.19637152777777778,0.02056423611111111],[-0.19637152777777778,0.02224826388888889],[-0.19637152777777778,0.023524305555555555],[-0.19637152777777778,0.02519965277777778],[-0.19637152777777778,0.026879340277777778],[-0.19637152777777778,0.028563368055555555],[-0.19637152777777778,0.03169270833333333],[-0.19637152777777778,0.033776041666666666],[-0.19637152777777778,0.03546006944444444],[-0.19637152777777778,0.03713975694444444],[-0.19637152777777778,0.038415798611111114],[-0.19637152777777778,0.03934461805555556],[-0.19637152777777778,0.03992621527777778],[-0.19637152777777778,0.0405078125],[-0.19637152777777778,0.04108506944444444],[-0.19637152777777778,0.041662326388888886],[-0.19637152777777778,0.04223958333333333],[-0.19637152777777778,0.04251302083333333],[-0.1966623263888889,0.043094618055555554],[-0.1966623263888889,0.043658854166666664],[-0.1969357638888889,0.043932291666666665],[-0.1972092013888889,0.043932291666666665],[-0.1974826388888889,0.043932291666666665]]]",1,[132],,,,,,,,,,,,,,applestore6.jpg,space,6.07598,0,3,3,2,1,alley1.jpg,arcade1.jpg,apartmentBuilding4.jpg,airportTerminal6.jpg,,
Image_List_3,,,,,,,,,,,,,,,,44241,2020-11-24_17h22.09.467,analogCatScenes,2020.1.3,MacIntel,60,"[1440,900]","[[[-0.00013020833333333333,-0.20418836805555557],[-0.00013020833333333333,-0.20418836805555557],[-0.00013020833333333333,-0.20418836805555557],[-0.00013020833333333333,-0.20418836805555557],[-0.00013020833333333333,-0.20418836805555557],[-0.00013020833333333333,-0.20418836805555557],[-0.00013020833333333333,-0.20418836805555557],[-0.00013020833333333333,-0.20418836805555557],[-0.00013020833333333333,-0.20418836805555557],[-0.00013020833333333333,-0.20418836805555557],[0.0039409722222222224,-0.20465711805555556],[0.012769097222222222,-0.20880208333333333],[0.02447048611111111,-0.21407118055555555],[0.039388020833333336,-0.22118055555555555],[0.053589409722222224,-0.22672743055555555],[0.07179253472222222,-0.23280381944444445],[0.08480034722222222,-0.23694444444444446],[0.09194878472222222,-0.23863715277777778],[0.1,-0.24062934027777777],[0.10594618055555556,-0.24153645833333334],[0.11189236111111112,-0.2424435763888889],[0.12186197916666666,-0.2433810763888889],[0.1266796875,-0.2433810763888889],[0.13262586805555557,-0.2433810763888889],[0.1379123263888889,-0.2433810763888889],[0.14200954861111112,-0.2433810763888889],[0.14557291666666666,-0.2433810763888889],[0.14913628472222223,-0.2433810763888889],[0.15215277777777778,-0.2433810763888889],[0.1551779513888889,-0.2433810763888889],[0.1581857638888889,-0.2433810763888889],[0.16121527777777778,-0.2433810763888889],[0.16629340277777777,-0.24223958333333334],[0.16985677083333334,-0.24024739583333332],[0.17432725694444445,-0.23712239583333333],[0.1790407986111111,-0.23240017361111112],[0.1844140625,-0.22701822916666667],[0.1904470486111111,-0.2209765625],[0.1959765625,-0.21443142361111112],[0.2015060763888889,-0.20788628472222223],[0.2065017361111111,-0.20088107638888889],[0.2119314236111111,-0.19163194444444445],[0.21779513888888888,-0.17989149305555555],[0.22450086805555555,-0.16702690972222223],[0.2342144097222222,-0.14819878472222223],[0.24095052083333332,-0.13533420138888888],[0.24659288194444445,-0.1251605902777778],[0.25140625,-0.11608072916666666],[0.2555512152777778,-0.10724392361111111],[0.25982204861111113,-0.09762586805555555],[0.2639626736111111,-0.08879774305555556],[0.2666970486111111,-0.08271701388888889],[0.2707161458333333,-0.07566840277777778],[0.2753949652777778,-0.06786892361111112],[0.2790451388888889,-0.06282552083333333],[0.2820355902777778,-0.05897135416666666],[0.2873220486111111,-0.05234375],[0.29019097222222223,-0.04864583333333333],[0.2926475694444444,-0.044947916666666664],[0.295,-0.04217447916666667],[0.29683159722222224,-0.039986979166666665],[0.2991970486111111,-0.037200520833333334],[0.30102864583333333,-0.03501302083333333],[0.3024175347222222,-0.03292100694444444],[0.3033637152777778,-0.031653645833333334],[0.30431423611111114,-0.030377604166666666],[0.30460069444444443,-0.030086805555555554],[0.30460069444444443,-0.029813368055555556],[0.30460069444444443,-0.029813368055555556],[0.30460069444444443,-0.029813368055555556]]]",1,[70],,,,,,,,,,,,,,fittingroom5.jpg,space,32.06154,0,4,4,48,1,frontDoor2.jpg,golfcourse6.jpg,golfcourse7.jpg,fabricstore2.jpg,,
Image_List_3,,,,,,,,,,,,,,,,44241,2020-11-24_17h22.09.467,analogCatScenes,2020.1.3,MacIntel,60,"[1440,900]","[[[-0.006592881944444445,-0.20516927083333333],[-0.006592881944444445,-0.20516927083333333],[-0.006592881944444445,-0.20516927083333333],[-0.006592881944444445,-0.20516927083333333],[-0.006592881944444445,-0.20516927083333333],[-0.006592881944444445,-0.20516927083333333],[-0.006592881944444445,-0.20516927083333333],[-0.006592881944444445,-0.20516927083333333],[-0.006592881944444445,-0.20259982638888888],[-0.006592881944444445,-0.196015625],[-0.005625,-0.18868055555555555],[-0.005125868055555555,-0.17986545138888888],[-0.0012456597222222222,-0.1539670138888889],[0.0011631944444444443,-0.1398828125],[0.0041970486111111115,-0.12579861111111112],[0.008363715277777777,-0.11268229166666667],[0.01212673611111111,-0.10300347222222223],[0.016805555555555556,-0.09470052083333333],[0.021484375,-0.08690104166666666],[0.026653645833333333,-0.07912326388888889],[0.031927083333333335,-0.07067708333333333],[0.037686631944444444,-0.06282118055555555],[0.04426215277777778,-0.05457899305555555],[0.05532118055555556,-0.04182291666666667],[0.06266493055555555,-0.03277777777777778],[0.06872395833333333,-0.023980034722222224],[0.0746267361111111,-0.015933159722222222],[0.08002604166666667,-0.0073828125],[0.08505208333333333,-0.00033420138888888887],[0.09217881944444445,0.0079296875],[0.09986979166666667,0.016193576388888888],[0.10601128472222222,0.022469618055555557],[0.11531684027777778,0.03125868055555556],[0.12174913194444445,0.03672309027777778],[0.1316189236111111,0.043615451388888886],[0.13727864583333332,0.047868923611111114],[0.1434375,0.053059895833333336],[0.14648871527777776,0.05646701388888889],[0.14947916666666666,0.06072916666666667],[0.15206163194444444,0.06499131944444445],[0.15404513888888888,0.06815538194444444],[0.15473958333333335,0.07024739583333334],[0.1553732638888889,0.0715234375],[0.1553732638888889,0.07210503472222222],[0.1553732638888889,0.07239583333333334],[0.1553732638888889,0.07239583333333334]]]",1,[46],,,,,,,,,,,,,,promenadeDeck6.jpg,space,3.578375,0,5,5,83,1,readingroom1.jpg,sculpturegarden1.jpg,restaurant8.jpg,readingroom2.jpg,,
Image_List_3,,,,,,,,,,,,,,,,44241,2020-11-24_17h22.09.467,analogCatScenes,2020.1.3,MacIntel,60,"[1440,900]","[[[-0.0028125,-0.2000998263888889],[-0.0028125,-0.2000998263888889],[-0.0028125,-0.2000998263888889],[-0.0028125,-0.2000998263888889],[-0.0028125,-0.2000998263888889],[-0.0028125,-0.2000998263888889],[-0.0028125,-0.2000998263888889],[-0.0028125,-0.2000998263888889],[-0.0028125,-0.2000998263888889],[-0.0028125,-0.2000998263888889],[-0.0028125,-0.2000998263888889],[-0.0028125,-0.2000998263888889],[-0.0028125,-0.2000998263888889],[-0.0028125,-0.2000998263888889],[-0.0028125,-0.2000998263888889],[-0.0028125,-0.2000998263888889],[-0.0028125,-0.2000998263888889],[-0.0028125,-0.2000998263888889],[-0.0017838541666666667,-0.2000998263888889],[0.0007725694444444444,-0.1997482638888889],[0.003324652777777778,-0.19901909722222222],[0.0063975694444444444,-0.1986111111111111],[0.011987847222222223,-0.19740885416666668],[0.016085069444444444,-0.1969965277777778],[0.0196484375,-0.19620225694444443],[0.023745659722222222,-0.19537760416666666],[0.029691840277777777,-0.19446180555555556],[0.03523003472222222,-0.19307291666666668],[0.039388020833333336,-0.19180555555555556],[0.044071180555555554,-0.19053819444444445],[0.04813368055555556,-0.18930989583333332],[0.05221354166666667,-0.18807725694444444],[0.05686197916666667,-0.18681857638888888],[0.06280815972222223,-0.18498697916666668],[0.06762586805555555,-0.18413194444444445],[0.0777170138888889,-0.182265625],[0.08403645833333333,-0.18081163194444444],[0.08998263888888888,-0.179453125],[0.09658854166666667,-0.17803385416666667],[0.10319444444444445,-0.1775607638888889],[0.11004774305555555,-0.17661024305555556],[0.11486545138888889,-0.1762282986111111],[0.1201171875,-0.1753472222222222],[0.12741319444444443,-0.1749045138888889],[0.133359375,-0.17446180555555554],[0.14069444444444446,-0.17401909722222222],[0.14754340277777778,-0.17348524305555554],[0.15361545138888888,-0.17298177083333333],[0.1617230902777778,-0.17244357638888888],[0.16831597222222222,-0.17149739583333334],[0.17564236111111112,-0.17052083333333334],[0.183671875,-0.16951388888888888],[0.19171875,-0.16800347222222223],[0.19706597222222222,-0.16753038194444445],[0.206015625,-0.16592447916666667],[0.2132638888888889,-0.1654296875],[0.21981770833333333,-0.16448784722222223],[0.22793836805555556,-0.16315972222222222],[0.2332248263888889,-0.16227430555555555],[0.23851128472222222,-0.1613888888888889],[0.2451779513888889,-0.1599392361111111],[0.25071614583333335,-0.15905381944444444],[0.25487413194444447,-0.15822916666666667],[0.26016059027777777,-0.15734375],[0.2648480902777778,-0.15648871527777777],[0.2695182291666667,-0.15563802083333333],[0.27416666666666667,-0.1543576388888889],[0.27825954861111113,-0.153125],[0.2856987847222222,-0.15088975694444445],[0.29236545138888886,-0.14944010416666667],[0.2965234375,-0.14817274305555556],[0.30180989583333334,-0.14684461805555554],[0.30649305555555556,-0.14598958333333334],[0.31059027777777776,-0.14516493055555554],[0.31415364583333333,-0.1443706597222222],[0.3171831597222222,-0.1439887152777778],[0.31926649305555554,-0.1439887152777778],[0.32134982638888887,-0.1439887152777778],[0.3230251736111111,-0.1439887152777778],[0.32429253472222225,-0.1439887152777778],[0.32549479166666667,-0.1442751736111111],[0.3264105902777778,-0.1442751736111111],[0.32698350694444445,-0.14456163194444444],[0.32698350694444445,-0.14483072916666667],[0.32698350694444445,-0.14483072916666667],[0.32698350694444445,-0.14483072916666667],[0.32698350694444445,-0.14483072916666667],[0.32698350694444445,-0.14483072916666667]],[[-0.001935763888888889,-0.2017751736111111],[-0.001935763888888889,-0.2017751736111111],[-0.001935763888888889,-0.2017751736111111],[-0.001935763888888889,-0.2017751736111111],[-0.001935763888888889,-0.2017751736111111],[-0.001935763888888889,-0.2017751736111111],[-0.001935763888888889,-0.2017751736111111],[-0.002712673611111111,-0.2017751736111111],[-0.008072916666666667,-0.2017751736111111],[-0.015407986111111112,-0.2017751736111111],[-0.029830729166666667,-0.2017751736111111],[-0.04041666666666666,-0.2005815972222222],[-0.05546875,-0.19995225694444443],[-0.0695529513888889,-0.19932291666666666],[-0.08252170138888888,-0.1987109375],[-0.09382378472222222,-0.1987109375],[-0.10439670138888889,-0.1987109375],[-0.11401475694444445,-0.1987109375],[-0.1236328125,-0.1987109375],[-0.13371527777777778,-0.1987109375],[-0.14032986111111112,-0.1987109375],[-0.14778645833333334,-0.19817274305555554],[-0.15305989583333332,-0.19641059027777777],[-0.1611154513888889,-0.1943967013888889],[-0.16992621527777776,-0.19182291666666668],[-0.18038628472222223,-0.18851996527777778],[-0.1899392361111111,-0.185859375],[-0.19869791666666667,-0.18379774305555555],[-0.2074652777777778,-0.1822309027777778],[-0.21704427083333333,-0.18062934027777777],[-0.22990885416666668,-0.1790842013888889],[-0.23526909722222222,-0.17772569444444444],[-0.24188368055555556,-0.17677951388888888],[-0.24782552083333334,-0.17633680555555556],[-0.2531206597222222,-0.17633680555555556],[-0.25782118055555553,-0.17633680555555556],[-0.2619270833333333,-0.17633680555555556],[-0.2649652777777778,-0.17633680555555556],[-0.26752170138888887,-0.17671440972222222],[-0.2700737847222222,-0.17743489583333333],[-0.27215711805555554,-0.178125],[-0.27576822916666666,-0.1791970486111111],[-0.2774522569444444,-0.1795138888888889],[-0.27913628472222224,-0.1795138888888889],[-0.2800651041666667,-0.1795138888888889],[-0.28064670138888886,-0.1795138888888889],[-0.2809375,-0.1795138888888889],[-0.2812109375,-0.1795138888888889],[-0.2812109375,-0.1795138888888889],[-0.2812109375,-0.1795138888888889],[-0.2812109375,-0.1795138888888889],[-0.2812109375,-0.1795138888888889],[-0.2812109375,-0.1795138888888889]],[[-0.008949652777777779,-0.1958029513888889],[-0.008949652777777779,-0.1958029513888889],[-0.008949652777777779,-0.1958029513888889],[-0.008949652777777779,-0.1958029513888889],[-0.008949652777777779,-0.1958029513888889],[-0.008949652777777779,-0.1958029513888889],[-0.008949652777777779,-0.1958029513888889],[-0.008949652777777779,-0.1958029513888889],[-0.010959201388888888,-0.1958029513888889],[-0.017621527777777778,-0.1958029513888889],[-0.028081597222222223,-0.1958029513888889],[-0.04830729166666667,-0.19391059027777777],[-0.06905815972222222,-0.18901475694444445],[-0.08511284722222222,-0.18450520833333334],[-0.09828993055555556,-0.18148871527777777],[-0.10965277777777778,-0.1786935763888889],[-0.11923177083333333,-0.17577256944444444],[-0.1269357638888889,-0.17381510416666668],[-0.13326388888888888,-0.17144965277777777],[-0.13741319444444444,-0.1701909722222222],[-0.1415060763888889,-0.16855034722222223],[-0.14561197916666666,-0.16772569444444443],[-0.1486501736111111,-0.16696180555555556],[-0.15272569444444445,-0.16658420138888888],[-0.1552907986111111,-0.16620225694444443],[-0.15785590277777778,-0.16620225694444443],[-0.16042100694444444,-0.16620225694444443],[-0.1629861111111111,-0.16620225694444443],[-0.16555121527777777,-0.16620225694444443],[-0.16764322916666666,-0.16620225694444443],[-0.16891927083333333,-0.16620225694444443],[-0.16949652777777777,-0.165625],[-0.16978732638888888,-0.16533854166666667],[-0.16978732638888888,-0.16476128472222223],[-0.16978732638888888,-0.16383246527777778],[-0.16713975694444444,-0.16044704861111111],[-0.16436197916666667,-0.15807291666666667],[-0.16026475694444445,-0.1556076388888889],[-0.15673177083333334,-0.15403645833333332],[-0.15316840277777777,-0.15286458333333333],[-0.15013888888888888,-0.15210069444444443],[-0.14711805555555554,-0.15096354166666667],[-0.1435546875,-0.15016927083333334],[-0.1405251736111111,-0.1490277777777778],[-0.13696180555555557,-0.14782118055555554],[-0.1333984375,-0.14661458333333333],[-0.128046875,-0.14525607638888888],[-0.11986545138888889,-0.14298177083333333],[-0.11517361111111112,-0.14168402777777778],[-0.10772569444444445,-0.13919270833333333],[-0.10111979166666667,-0.13635416666666667],[-0.09379340277777778,-0.13342447916666667],[-0.08496527777777778,-0.12927083333333333],[-0.07529513888888889,-0.12499565972222222],[-0.06646701388888888,-0.12084201388888889],[-0.05849826388888889,-0.11734809027777778],[-0.05059895833333333,-0.11486545138888889],[-0.04334635416666666,-0.11339409722222223],[-0.03378472222222222,-0.11188368055555556],[-0.026623263888888887,-0.11131510416666666],[-0.020677083333333332,-0.11084201388888888],[-0.015985243055555556,-0.11084201388888888],[-0.011354166666666667,-0.11084201388888888],[-0.006662326388888889,-0.11084201388888888],[-0.0011241319444444445,-0.11084201388888888],[0.006323784722222222,-0.11084201388888888],[0.011015625,-0.11084201388888888],[0.016953125,-0.11084201388888888],[0.022473958333333332,-0.11084201388888888],[0.032803819444444444,-0.11221788194444444],[0.03693576388888889,-0.11346788194444445],[0.04161024305555556,-0.11474826388888888],[0.04627604166666666,-0.11644097222222222],[0.049817708333333335,-0.11763020833333333],[0.05336371527777778,-0.1187890625],[0.056927083333333336,-0.11957465277777778],[0.06227864583333333,-0.12004340277777778],[0.06695746527777778,-0.12004340277777778],[0.0722265625,-0.12004340277777778],[0.0774435763888889,-0.11961371527777778],[0.08206163194444445,-0.118359375],[0.0876736111111111,-0.11636284722222222],[0.09123697916666666,-0.11519097222222222],[0.09480034722222222,-0.11360677083333333],[0.09836371527777778,-0.11202256944444444],[0.1024609375,-0.11078559027777778],[0.10549045138888889,-0.10926649305555555],[0.10905381944444445,-0.10768229166666667],[0.11161024305555556,-0.10622395833333333],[0.11369357638888888,-0.10482638888888889],[0.11576388888888889,-0.10378472222222222],[0.11702690972222222,-0.10282986111111111],[0.11829427083333334,-0.10187065972222223],[0.11984809027777778,-0.10062065972222223],[0.12042100694444445,-0.1000390625],[0.12099392361111111,-0.09974826388888888],[0.12099392361111111,-0.09945746527777778],[0.12099392361111111,-0.09918836805555556],[0.12099392361111111,-0.09891493055555556],[0.12128038194444445,-0.09862413194444444],[0.12128038194444445,-0.09862413194444444],[0.12128038194444445,-0.09862413194444444],[0.12128038194444445,-0.09862413194444444],[0.12128038194444445,-0.09862413194444444]]]",3,"[88,53,104]",,,,,,,,,,,,,,campusquad3.jpg,space,7.79493,0,6,6,21,1,botanicalGarden6.jpg,cemetery6.jpg,cave5.jpg,beach1.jpeg,,
Image_List_3,,,,,,,,,,,,,,,,44241,2020-11-24_17h22.09.467,analogCatScenes,2020.1.3,MacIntel,60,"[1440,900]","[[[-0.004392361111111111,-0.19725260416666668],[-0.004392361111111111,-0.19725260416666668],[-0.004392361111111111,-0.19725260416666668],[-0.004392361111111111,-0.19725260416666668],[-0.004392361111111111,-0.19725260416666668],[-0.004392361111111111,-0.19725260416666668],[-0.004392361111111111,-0.19725260416666668],[-0.004392361111111111,-0.19725260416666668],[-0.004392361111111111,-0.19725260416666668],[-0.004392361111111111,-0.19725260416666668],[-0.004392361111111111,-0.19725260416666668],[-0.004392361111111111,-0.19725260416666668],[-0.004392361111111111,-0.19725260416666668],[-0.0013151041666666667,-0.19725260416666668],[0.002248263888888889,-0.19725260416666668],[0.0069401041666666665,-0.19684027777777777],[0.017369791666666665,-0.1962717013888889],[0.028663194444444446,-0.1945703125],[0.046510416666666665,-0.19170572916666667],[0.05693142361111111,-0.1895095486111111],[0.065703125,-0.18694010416666668],[0.07372829861111112,-0.18493055555555554],[0.08058159722222222,-0.1825],[0.08652777777777777,-0.17975694444444446],[0.09118489583333333,-0.17762586805555555],[0.09647135416666666,-0.17541666666666667],[0.10313802083333333,-0.1725824652777778],[0.10729600694444444,-0.1709375],[0.11460069444444444,-0.16848958333333333],[0.12278211805555556,-0.16533420138888888],[0.12694010416666668,-0.16325086805555555],[0.13050347222222222,-0.16166666666666665],[0.1336892361111111,-0.15970052083333333],[0.13577256944444444,-0.1583029513888889],[0.13716145833333335,-0.1562109375],[0.13788628472222222,-0.15364583333333334],[0.13825954861111112,-0.15008246527777777],[0.13825954861111112,-0.14538194444444444],[0.13447482638888889,-0.13971354166666666],[0.129765625,-0.1340581597222222],[0.12136284722222222,-0.12518229166666667],[0.11852864583333333,-0.12282118055555556],[0.10888020833333334,-0.1136892361111111],[0.10286024305555555,-0.10766927083333333],[0.09697916666666667,-0.09965277777777778],[0.09248263888888889,-0.09217013888888889],[0.08754340277777778,-0.08233506944444445],[0.0831640625,-0.07193142361111111],[0.07697916666666667,-0.061809895833333336],[0.0701953125,-0.05220052083333333],[0.06324652777777778,-0.04471788194444445],[0.05576388888888889,-0.037235243055555554],[0.04560763888888889,-0.026011284722222222],[0.03900607638888889,-0.017747395833333332],[0.032664930555555555,-0.010347222222222223],[0.028411458333333334,-0.005681423611111111],[0.023689236111111112,-0.00001736111111111111],[0.020164930555555554,0.004388020833333333],[0.01728732638888889,0.0080859375],[0.014839409722222223,0.011349826388888888],[0.012847222222222222,0.014513888888888889],[0.011449652777777777,0.01660590277777778],[0.010434027777777778,0.018285590277777777],[0.009188368055555556,0.01984809027777778],[0.008901909722222223,0.020425347222222223],[0.008324652777777778,0.020711805555555556],[0.008051215277777777,0.020985243055555554],[0.008051215277777777,0.020985243055555554],[0.008051215277777777,0.020985243055555554],[0.007786458333333334,0.020985243055555554],[0.007517361111111111,0.020985243055555554],[0.007517361111111111,0.020985243055555554],[0.007517361111111111,0.020985243055555554],[0.007517361111111111,0.020985243055555554],[0.007517361111111111,0.020985243055555554],[0.007517361111111111,0.020985243055555554],[0.007517361111111111,0.020985243055555554],[0.007517361111111111,0.020985243055555554],[0.007517361111111111,0.020985243055555554]]]",1,[79],,,,,,,,,,,,,,operatingroom4.jpg,space,5.045185,0,7,7,75,1,pantry5.jpg,playground6.jpg,park.jpg,lockerroom.jpg,,
Image_List_3,,,,,,,,,,,,,,,,44241,2020-11-24_17h22.09.467,analogCatScenes,2020.1.3,MacIntel,60,"[1440,900]","[[[0.0021006944444444445,-0.2024609375],[0.0021006944444444445,-0.2024609375],[0.0021006944444444445,-0.2024609375],[0.0021006944444444445,-0.2024609375],[0.0021006944444444445,-0.2024609375],[0.0021006944444444445,-0.2024609375],[0.0021006944444444445,-0.2024609375],[0.0021006944444444445,-0.2024609375],[0.0021006944444444445,-0.2024609375],[0.0021006944444444445,-0.2024609375],[0.007178819444444444,-0.19890190972222221],[0.01759548611111111,-0.1914236111111111],[0.027157118055555554,-0.18410590277777777],[0.03971788194444444,-0.17391059027777778],[0.05388020833333333,-0.1617795138888889],[0.06547309027777778,-0.15020833333333333],[0.07490885416666666,-0.13918402777777777],[0.08052517361111111,-0.13126736111111112],[0.08442274305555555,-0.12490885416666667],[0.08956163194444444,-0.11819444444444445],[0.093203125,-0.11315972222222222],[0.09791666666666667,-0.10796440972222222],[0.10263454861111111,-0.10279513888888889],[0.10779947916666667,-0.09809027777777778],[0.11283420138888889,-0.09396267361111112],[0.11819444444444445,-0.08953559027777777],[0.1266840277777778,-0.08292100694444444],[0.13102864583333335,-0.07980034722222222],[0.13717881944444443,-0.07518229166666666],[0.14327256944444444,-0.06961371527777778],[0.14723958333333334,-0.06657986111111111],[0.15318142361111112,-0.06160590277777778],[0.15836805555555555,-0.057352430555555556],[0.16186197916666667,-0.05384982638888889],[0.16569878472222221,-0.050447048611111114],[0.16895399305555556,-0.04799913194444445],[0.17162760416666667,-0.04607204861111111],[0.17427951388888888,-0.044171006944444445],[0.1759548611111111,-0.04283420138888889],[0.1782638888888889,-0.040859375],[0.1795920138888889,-0.03917534722222222],[0.18057291666666667,-0.03749131944444444],[0.18155381944444443,-0.035807291666666664],[0.18294270833333334,-0.033715277777777775],[0.1839236111111111,-0.03203125],[0.18487413194444444,-0.030755208333333332],[0.1855078125,-0.029479166666666667],[0.1864279513888889,-0.028550347222222223],[0.18700086805555555,-0.02796875],[0.1875564236111111,-0.027404513888888888],[0.1875564236111111,-0.027404513888888888],[0.1875564236111111,-0.027404513888888888],[0.18781684027777779,-0.027113715277777777],[0.18781684027777779,-0.027113715277777777],[0.18781684027777779,-0.027113715277777777],[0.18781684027777779,-0.027113715277777777],[0.18781684027777779,-0.027113715277777777],[0.18781684027777779,-0.027113715277777777]],[[-0.007526041666666667,-0.20353298611111112],[-0.007526041666666667,-0.20353298611111112],[-0.007526041666666667,-0.20353298611111112],[-0.007526041666666667,-0.20353298611111112],[-0.007526041666666667,-0.20353298611111112],[-0.007526041666666667,-0.20353298611111112],[-0.007526041666666667,-0.20353298611111112],[-0.007526041666666667,-0.20353298611111112],[-0.007526041666666667,-0.20353298611111112],[-0.007526041666666667,-0.20353298611111112],[-0.011475694444444445,-0.20353298611111112],[-0.018810763888888887,-0.20353298611111112],[-0.028489583333333332,-0.2024609375],[-0.046579861111111114,-0.1983984375],[-0.06104166666666667,-0.19578993055555555],[-0.07712673611111111,-0.19193142361111112],[-0.08942274305555556,-0.1878298611111111],[-0.09687934027777778,-0.18622395833333333],[-0.10592447916666667,-0.18395833333333333],[-0.11486979166666667,-0.18235243055555556],[-0.12271701388888889,-0.18051649305555556],[-0.128671875,-0.17868489583333333],[-0.13534722222222223,-0.1762890625],[-0.14268229166666666,-0.17386284722222223],[-0.15151909722222223,-0.17024305555555555],[-0.16119791666666666,-0.16653211805555557],[-0.17081597222222222,-0.16225260416666668],[-0.18069444444444444,-0.15729600694444446],[-0.18892795138888888,-0.15264322916666667],[-0.19669270833333333,-0.14797309027777777],[-0.20370659722222223,-0.14396267361111112],[-0.2100607638888889,-0.13955729166666667],[-0.2199435763888889,-0.13363715277777777],[-0.22429253472222221,-0.13098958333333333],[-0.2299609375,-0.12720486111111112],[-0.23406684027777777,-0.12473958333333333],[-0.23792100694444446,-0.12174045138888889],[-0.24161892361111112,-0.1192751736111111],[-0.24390190972222223,-0.1169921875],[-0.24607204861111112,-0.11516927083333334],[-0.24774739583333333,-0.11384114583333334],[-0.24983072916666665,-0.11244791666666666],[-0.2515147569444444,-0.11177517361111111],[-0.25383680555555554,-0.11075520833333333],[-0.2555208333333333,-0.11008246527777778],[-0.25644965277777776,-0.10976128472222223],[-0.2573784722222222,-0.10944010416666666],[-0.25766927083333335,-0.10944010416666666],[-0.25766927083333335,-0.10944010416666666],[-0.25766927083333335,-0.10944010416666666],[-0.25766927083333335,-0.10944010416666666]]]",2,"[58,51]",,,,,,,,,,,,,,campsite3.jpg,space,4.44531,0,8,8,20,1,boardwalk6.jpg,cave.jpg,cave4.jpg,basketballcourt7.jpg,,
Image_List_3,,,,,,,,,,,,,,,,44241,2020-11-24_17h22.09.467,analogCatScenes,2020.1.3,MacIntel,60,"[1440,900]","[[[0.008337673611111112,-0.2008203125],[0.008337673611111112,-0.2008203125],[0.008337673611111112,-0.2008203125],[0.008337673611111112,-0.2008203125],[0.008337673611111112,-0.2008203125],[0.008337673611111112,-0.2008203125],[0.008337673611111112,-0.2008203125],[0.008337673611111112,-0.2008203125],[0.008337673611111112,-0.2008203125],[0.008337673611111112,-0.2008203125],[0.008337673611111112,-0.2008203125],[0.008337673611111112,-0.2008203125],[0.008337673611111112,-0.199921875],[0.007664930555555556,-0.19823784722222224],[0.004878472222222222,-0.19545138888888888],[0.0003993055555555556,-0.19185763888888888],[-0.006636284722222222,-0.1878342013888889],[-0.014939236111111111,-0.1836501736111111],[-0.031124131944444446,-0.17442708333333334],[-0.043359375,-0.16645833333333335],[-0.05622395833333333,-0.1591189236111111],[-0.06727430555555555,-0.1521484375],[-0.07920138888888889,-0.14559027777777778],[-0.0902517361111111,-0.13978298611111112],[-0.10130208333333333,-0.13340711805555555],[-0.11322916666666667,-0.12625434027777777],[-0.13139322916666665,-0.11504774305555555],[-0.14290364583333334,-0.10776909722222222],[-0.16385416666666666,-0.09568576388888889],[-0.1786545138888889,-0.08859809027777778],[-0.1934548611111111,-0.0821657986111111],[-0.20725694444444445,-0.07588975694444444],[-0.2203732638888889,-0.07111545138888889],[-0.2319878472222222,-0.06587239583333333],[-0.23884982638888888,-0.0629079861111111],[-0.24545572916666666,-0.060073784722222225],[-0.2507508680555556,-0.05786458333333333],[-0.2537890625,-0.056345486111111114],[-0.25593315972222225,-0.055646701388888886],[-0.2576171875,-0.054973958333333336],[-0.25854600694444446,-0.05468315972222222],[-0.2591276041666667,-0.05468315972222222],[-0.2593967013888889,-0.05468315972222222],[-0.2593967013888889,-0.05468315972222222],[-0.2596614583333333,-0.05468315972222222],[-0.2596614583333333,-0.05468315972222222],[-0.2596614583333333,-0.05468315972222222],[-0.2596614583333333,-0.05468315972222222],[-0.2596614583333333,-0.05468315972222222]]]",1,[49],,,,,,,,,,,,,,balconyIN.jpg,space,2.494705,0,9,9,8,1,attic3.jpg,banquetHall6.jpg,bar.jpg,applestore4.jpg,,
Image_List_3,,,,,,,,,,,,,,,,44241,2020-11-24_17h22.09.467,analogCatScenes,2020.1.3,MacIntel,60,"[1440,900]","[[[0.00015625,-0.19220486111111112],[0.00015625,-0.19220486111111112],[0.00015625,-0.19220486111111112],[0.00015625,-0.19220486111111112],[0.00015625,-0.19220486111111112],[0.00015625,-0.19220486111111112],[0.00015625,-0.19220486111111112],[0.00015625,-0.19220486111111112],[0.00015625,-0.19220486111111112],[0.00015625,-0.19220486111111112],[0.00015625,-0.19220486111111112],[0.00015625,-0.19220486111111112],[0.00015625,-0.19220486111111112],[0.0009288194444444445,-0.19220486111111112],[0.005086805555555555,-0.19220486111111112],[0.01302517361111111,-0.19171440972222223],[0.02427951388888889,-0.18945746527777776],[0.03463107638888889,-0.18727430555555555],[0.04683159722222222,-0.18494791666666666],[0.0637717013888889,-0.18098524305555555],[0.07338107638888888,-0.17884114583333333],[0.08220920138888889,-0.17676215277777776],[0.09025607638888888,-0.1747482638888889],[0.09908420138888889,-0.17370659722222223],[0.10713107638888889,-0.17219618055555555],[0.113203125,-0.17128038194444445],[0.12215277777777778,-0.169765625],[0.1286935763888889,-0.168828125],[0.13594618055555555,-0.1668923611111111],[0.14325954861111112,-0.16544704861111112],[0.1512543402777778,-0.16394097222222223],[0.16225260416666668,-0.1620138888888889],[0.16957899305555554,-0.16106770833333334],[0.17762586805555555,-0.1600607638888889],[0.18645399305555554,-0.1590190972222222],[0.19450086805555555,-0.158515625],[0.2027907986111111,-0.15694010416666668],[0.21010416666666668,-0.15549479166666666],[0.21664930555555556,-0.1540842013888889],[0.2214670138888889,-0.1528515625],[0.22737413194444445,-0.15149739583333333],[0.23206597222222222,-0.15019965277777778],[0.23939236111111112,-0.1493142361111111],[0.2440842013888889,-0.14845920138888888],[0.24764756944444444,-0.14766493055555555],[0.2517447916666667,-0.14684027777777778],[0.2553081597222222,-0.14604600694444445],[0.2588715277777778,-0.14563368055555556],[0.26296875,-0.14522135416666668],[0.26705729166666664,-0.14480902777777777],[0.2711545138888889,-0.14439670138888888],[0.2741840277777778,-0.14439670138888888],[0.2772048611111111,-0.14401475694444443],[0.2808029513888889,-0.14366319444444445],[0.2828862847222222,-0.14366319444444445],[0.28456163194444445,-0.1433420138888889],[0.28582899305555554,-0.1433420138888889],[0.28640190972222224,-0.14305121527777778],[0.2869748263888889,-0.14246961805555555],[0.2869748263888889,-0.14246961805555555],[0.2869748263888889,-0.14246961805555555],[0.2869748263888889,-0.14246961805555555]],[[0.0004296875,-0.1968967013888889],[0.0004296875,-0.1968967013888889],[0.0004296875,-0.1968967013888889],[0.0004296875,-0.1968967013888889],[0.0004296875,-0.1968967013888889],[0.0004296875,-0.1968967013888889],[0.0004296875,-0.1968967013888889],[0.0004296875,-0.1968967013888889],[0.0004296875,-0.1968967013888889],[0.0004296875,-0.1968967013888889],[0.0004296875,-0.1968967013888889],[0.0004296875,-0.1968967013888889],[0.0004296875,-0.1968967013888889],[-0.001349826388888889,-0.1968967013888889],[-0.006701388888888889,-0.1968967013888889],[-0.013980034722222222,-0.1968967013888889],[-0.02734809027777778,-0.1968967013888889],[-0.047591145833333334,-0.1968967013888889],[-0.08624131944444445,-0.19375868055555556],[-0.11421006944444445,-0.18655381944444444],[-0.13407986111111111,-0.18025173611111112],[-0.15616319444444443,-0.17213541666666668],[-0.17815104166666668,-0.16590711805555555],[-0.1953298611111111,-0.16126302083333333],[-0.20937934027777777,-0.1594140625],[-0.22062934027777778,-0.1588454861111111],[-0.2301996527777778,-0.15830729166666666],[-0.23628038194444445,-0.15830729166666666],[-0.24342881944444444,-0.15830729166666666],[-0.2523871527777778,-0.15830729166666666],[-0.2630295138888889,-0.15977864583333334],[-0.27108506944444444,-0.16279079861111112],[-0.279140625,-0.16630642361111111],[-0.2866927083333333,-0.17032552083333333],[-0.2936935763888889,-0.17481336805555556],[-0.3007421875,-0.17983940972222223],[-0.3052213541666667,-0.18295572916666666],[-0.31026475694444444,-0.18660590277777778],[-0.3145572916666667,-0.18915364583333333],[-0.3181076388888889,-0.19072048611111111],[-0.3201996527777778,-0.19176215277777778],[-0.32147569444444446,-0.19239583333333332],[-0.3226953125,-0.19299913194444446],[-0.3232769097222222,-0.19299913194444446],[-0.3232769097222222,-0.19328559027777778],[-0.3232769097222222,-0.19328559027777778],[-0.3232769097222222,-0.19328559027777778]]]",2,"[62,47]",,,,,,,,,,,,,,drymountains6.jpg,space,4.712845,0,10,10,42,1,exerciseequipment3.jpg,firestation3.jpg,farm4.jpg,desertvegetation2.jpg,,
Image_List_3,,,,,,,,,,,,,,,,44241,2020-11-24_17h22.09.467,analogCatScenes,2020.1.3,MacIntel,60,"[1440,900]","[[[-0.0009982638888888888,-0.20366319444444445],[-0.0009982638888888888,-0.20366319444444445],[-0.0009982638888888888,-0.20366319444444445],[-0.0009982638888888888,-0.20366319444444445],[-0.0009982638888888888,-0.20366319444444445],[-0.0009982638888888888,-0.20366319444444445],[-0.0009982638888888888,-0.20366319444444445],[-0.0009982638888888888,-0.20366319444444445],[-0.0009982638888888888,-0.20366319444444445],[0.003463541666666667,-0.20316840277777778],[0.013029513888888889,-0.19944444444444445],[0.02177517361111111,-0.19635850694444446],[0.0370703125,-0.1930295138888889],[0.06316840277777777,-0.19017795138888888],[0.07924479166666666,-0.18951822916666666],[0.0933203125,-0.18951822916666666],[0.101015625,-0.18951822916666666],[0.10981336805555555,-0.18951822916666666],[0.11575954861111111,-0.18951822916666666],[0.12104600694444445,-0.18951822916666666],[0.1277126736111111,-0.18951822916666666],[0.13135416666666666,-0.18951822916666666],[0.136640625,-0.18951822916666666],[0.14129774305555556,-0.18864583333333335],[0.1453949652777778,-0.18823350694444443],[0.15047309027777778,-0.18746961805555556],[0.15350260416666667,-0.18708767361111112],[0.1551779513888889,-0.1867361111111111],[0.15609809027777777,-0.18612413194444444],[0.15638454861111112,-0.1847873263888889],[0.15638454861111112,-0.18222222222222223],[0.15260416666666668,-0.1764887152777778],[0.14522135416666668,-0.1634722222222222],[0.13991319444444444,-0.15204861111111112],[0.13371527777777778,-0.13784288194444444],[0.12524739583333333,-0.11166666666666666],[0.12279947916666667,-0.09758246527777778],[0.12109809027777778,-0.08628038194444444],[0.12002604166666667,-0.0766015625],[0.118984375,-0.06776475694444445],[0.11797743055555555,-0.05973958333333333],[0.1169704861111111,-0.05168402777777778],[0.11546006944444444,-0.04362847222222222],[0.114453125,-0.03557291666666667],[0.11344618055555555,-0.0294921875],[0.1125,-0.022816840277777778],[0.1116796875,-0.018663194444444444],[0.11059461805555555,-0.014926215277777778],[0.11030381944444445,-0.013997395833333334],[0.11030381944444445,-0.013415798611111111],[0.11001302083333334,-0.013415798611111111],[0.11001302083333334,-0.013415798611111111],[0.11001302083333334,-0.013415798611111111],[0.11001302083333334,-0.013415798611111111],[0.11001302083333334,-0.013415798611111111]],[[-0.0076302083333333335,-0.20069444444444445],[-0.0076302083333333335,-0.20069444444444445],[-0.0076302083333333335,-0.20069444444444445],[-0.0076302083333333335,-0.20069444444444445],[-0.0076302083333333335,-0.20069444444444445],[-0.0076302083333333335,-0.20069444444444445],[-0.0076302083333333335,-0.20069444444444445],[-0.0076302083333333335,-0.20069444444444445],[-0.0076302083333333335,-0.20069444444444445],[-0.0076302083333333335,-0.20069444444444445],[-0.0110546875,-0.20069444444444445],[-0.02326388888888889,-0.20069444444444445],[-0.04041666666666666,-0.20069444444444445],[-0.08014756944444444,-0.20069444444444445],[-0.13180989583333333,-0.20069444444444445],[-0.16616319444444444,-0.2016623263888889],[-0.20383680555555556,-0.20524739583333335],[-0.2260199652777778,-0.20668402777777778],[-0.2476128472222222,-0.2088671875],[-0.26174479166666664,-0.210078125],[-0.2694487847222222,-0.210078125],[-0.28084635416666665,-0.210078125],[-0.285546875,-0.210078125],[-0.2902387152777778,-0.210078125],[-0.29432291666666666,-0.21088975694444445],[-0.2969835069444444,-0.21278211805555555],[-0.29907552083333333,-0.21417100694444444],[-0.3000043402777778,-0.21477430555555554],[-0.30029079861111113,-0.2150607638888889],[-0.30029079861111113,-0.2150607638888889],[-0.30029079861111113,-0.2150607638888889],[-0.30029079861111113,-0.2150607638888889]],[[-0.0006423611111111111,-0.20255208333333333],[-0.0006423611111111111,-0.20255208333333333],[-0.0006423611111111111,-0.20255208333333333],[-0.0006423611111111111,-0.20255208333333333],[-0.0006423611111111111,-0.20255208333333333],[-0.0006423611111111111,-0.20255208333333333],[-0.0006423611111111111,-0.20255208333333333],[-0.0006423611111111111,-0.20255208333333333],[-0.0006423611111111111,-0.20255208333333333],[-0.0006423611111111111,-0.20255208333333333],[0.005407986111111111,-0.20255208333333333],[0.01665798611111111,-0.20255208333333333],[0.033776041666666666,-0.20255208333333333],[0.053133680555555556,-0.20255208333333333],[0.11739149305555556,-0.20255208333333333],[0.1587109375,-0.20536892361111111],[0.19843315972222222,-0.2081206597222222],[0.22914496527777778,-0.21143663194444445],[0.24680555555555556,-0.21274739583333332],[0.26841145833333335,-0.2141796875],[0.28552083333333333,-0.2154904513888889],[0.30051215277777776,-0.2167361111111111],[0.31258680555555557,-0.21903211805555556],[0.31932725694444447,-0.2199609375],[0.32590277777777776,-0.22089409722222222],[0.3318229166666667,-0.22136284722222221],[0.33796875,-0.22136284722222221],[0.34153211805555556,-0.22136284722222221],[0.3440885416666667,-0.22062934027777778],[0.3453559027777778,-0.22030815972222223],[0.3459288194444444,-0.22001736111111111],[0.3459288194444444,-0.2197265625],[0.3459288194444444,-0.21916232638888888],[0.3459288194444444,-0.21916232638888888],[0.3459288194444444,-0.21916232638888888],[0.3459288194444444,-0.21916232638888888],[0.3459288194444444,-0.21916232638888888],[0.3459288194444444,-0.21916232638888888],[0.3459288194444444,-0.21916232638888888]]]",3,"[55,32,39]",,,,,,,,,,,,,,flowershop3.jpg,space,5.916075,0,11,11,49,1,frontDoor3.jpg,greenhouse5.jpg,greenhouse.jpg,farm2.jpg,,
Image_List_3,,,,,,,,,,,,,,,,44241,2020-11-24_17h22.09.467,analogCatScenes,2020.1.3,MacIntel,60,"[1440,900]","[[[0.0033854166666666668,-0.19735677083333333],[0.0033854166666666668,-0.19735677083333333],[0.0033854166666666668,-0.19735677083333333],[0.0033854166666666668,-0.19735677083333333],[0.0033854166666666668,-0.19735677083333333],[0.0033854166666666668,-0.19735677083333333],[0.0033854166666666668,-0.18742621527777778],[0.0033854166666666668,-0.18272569444444445],[0.0033854166666666668,-0.17677083333333332],[0.0033854166666666668,-0.17086805555555556],[0.0038237847222222223,-0.16491753472222223],[0.006553819444444445,-0.1544574652777778],[0.008858506944444445,-0.14232638888888888],[0.014618055555555556,-0.1209375],[0.01756076388888889,-0.10776041666666666],[0.020533854166666667,-0.09464409722222222],[0.023168402777777777,-0.08496527777777778],[0.025303819444444445,-0.07534722222222222],[0.02671440972222222,-0.06926649305555556],[0.027651909722222222,-0.06265190972222222],[0.029066840277777777,-0.0551953125],[0.02997395833333333,-0.04924045138888889],[0.0309375,-0.041940104166666665],[0.031436631944444446,-0.033919270833333334],[0.03197048611111111,-0.027074652777777777],[0.03197048611111111,-0.020460069444444444],[0.03197048611111111,-0.01424045138888889],[0.03197048611111111,-0.0121484375],[0.03197048611111111,-0.011219618055555556],[0.03197048611111111,-0.010638020833333333],[0.03197048611111111,-0.010364583333333333],[0.03197048611111111,-0.00943576388888889],[0.03197048611111111,-0.009144965277777778],[0.03197048611111111,-0.008580729166666667],[0.03197048611111111,-0.008580729166666667],[0.03197048611111111,-0.008580729166666667],[0.03197048611111111,-0.008580729166666667]],[[0.00011284722222222222,-0.1981640625],[0.00011284722222222222,-0.1981640625],[0.00011284722222222222,-0.1981640625],[0.00011284722222222222,-0.1981640625],[0.00011284722222222222,-0.1981640625],[0.00011284722222222222,-0.1981640625],[0.00011284722222222222,-0.1981640625],[0.00011284722222222222,-0.1981640625],[0.00011284722222222222,-0.1981640625],[0.0011501736111111111,-0.1981640625],[0.004713541666666667,-0.1977517361111111],[0.008276909722222222,-0.1965451388888889],[0.015950520833333332,-0.1945920138888889],[0.023984375,-0.19157552083333335],[0.0328125,-0.18848958333333332],[0.039453125,-0.186171875],[0.04756076388888889,-0.18261284722222224],[0.05793402777777778,-0.17669270833333334],[0.06497395833333333,-0.17216145833333332],[0.07223090277777777,-0.16643663194444444],[0.078984375,-0.16020833333333334],[0.08667534722222223,-0.15194444444444444],[0.09561197916666667,-0.14180989583333334],[0.10616753472222222,-0.13125868055555556],[0.116796875,-0.120625],[0.12719618055555557,-0.11084635416666666],[0.13579427083333334,-0.10167534722222223],[0.14337239583333333,-0.09352430555555556],[0.1509939236111111,-0.08532986111111111],[0.16345052083333333,-0.07229600694444445],[0.17157552083333333,-0.062408854166666666],[0.1802951388888889,-0.05311631944444444],[0.18876736111111111,-0.044635416666666664],[0.19780381944444445,-0.03671875],[0.20684027777777778,-0.029930555555555554],[0.2155642361111111,-0.023914930555555554],[0.22428819444444445,-0.01789496527777778],[0.2328081597222222,-0.012560763888888889],[0.2381640625,-0.008138020833333334],[0.24633246527777777,-0.0016189236111111111],[0.25500868055555553,0.006124131944444444],[0.26176215277777776,0.012352430555555556],[0.26798177083333335,0.019114583333333334],[0.27282552083333333,0.024500868055555555],[0.2770703125,0.030169270833333334],[0.2795876736111111,0.03389756944444444],[0.2810329861111111,0.036458333333333336],[0.2816927083333333,0.038138020833333335],[0.28229166666666666,0.0390625],[0.28229166666666666,0.040338541666666665],[0.282578125,0.04092013888888889],[0.282578125,0.04213541666666667],[0.282578125,0.04271267361111111],[0.2828645833333333,0.04300347222222222],[0.2828645833333333,0.04300347222222222],[0.2828645833333333,0.04300347222222222],[0.2828645833333333,0.04300347222222222],[0.2828645833333333,0.04300347222222222]],[[-0.0019835069444444444,-0.19685763888888888],[-0.0019835069444444444,-0.19685763888888888],[-0.0019835069444444444,-0.19685763888888888],[-0.0019835069444444444,-0.19685763888888888],[-0.0019835069444444444,-0.19685763888888888],[-0.0019835069444444444,-0.19685763888888888],[-0.0019835069444444444,-0.19685763888888888],[-0.0019835069444444444,-0.19685763888888888],[-0.0019835069444444444,-0.19685763888888888],[-0.0019835069444444444,-0.19685763888888888],[-0.0019835069444444444,-0.19685763888888888],[-0.005655381944444445,-0.19685763888888888],[-0.013771701388888889,-0.1952517361111111],[-0.03638888888888889,-0.18509548611111112],[-0.06860677083333333,-0.16621527777777778],[-0.11276041666666667,-0.1362109375],[-0.14401041666666667,-0.115703125],[-0.17112847222222222,-0.09710069444444444],[-0.18558159722222223,-0.08722222222222223],[-0.20147135416666667,-0.07612847222222222],[-0.2143359375,-0.0687890625],[-0.22506510416666667,-0.06421875],[-0.23462239583333333,-0.060494791666666665],[-0.24015625,-0.058229166666666665],[-0.24609809027777776,-0.05549045138888889],[-0.2507421875,-0.05296875],[-0.2547829861111111,-0.05095052083333333],[-0.25971788194444445,-0.04684027777777778],[-0.26200086805555556,-0.044557291666666665],[-0.26428385416666667,-0.04227430555555556],[-0.2660633680555556,-0.04049479166666667],[-0.2673394097222222,-0.03921875],[-0.2690234375,-0.03819878472222222],[-0.2699479166666667,-0.03759114583333333],[-0.27121961805555556,-0.036953125],[-0.27149305555555553,-0.0366796875],[-0.2720703125,-0.0366796875],[-0.2720703125,-0.0366796875],[-0.2720703125,-0.0366796875],[-0.2720703125,-0.0366796875],[-0.2720703125,-0.0366796875],[-0.2720703125,-0.0366796875],[-0.2720703125,-0.0366796875],[-0.2720703125,-0.0366796875],[-0.2720703125,-0.0366796875],[-0.2720703125,-0.0366796875],[-0.2720703125,-0.0366796875],[-0.2720703125,-0.0366796875],[-0.2720703125,-0.0366796875],[-0.2720703125,-0.0366796875],[-0.2720703125,-0.0366796875],[-0.2720703125,-0.0366796875],[-0.2720703125,-0.0366796875],[-0.2720703125,-0.0366796875],[-0.2720703125,-0.0366796875],[-0.2720703125,-0.0366796875],[-0.2720703125,-0.0366796875],[-0.2720703125,-0.0366796875],[-0.2720703125,-0.0366796875],[-0.2720703125,-0.0366796875],[-0.2720703125,-0.0366796875],[-0.2720703125,-0.0366796875],[-0.2720703125,-0.0366796875],[-0.2720703125,-0.0366796875],[-0.2720703125,-0.0366796875],[-0.2720703125,-0.0366796875],[-0.2720703125,-0.0366796875],[-0.2720703125,-0.03564670138888889],[-0.27371527777777777,-0.023159722222222224],[-0.2751996527777778,-0.015208333333333334],[-0.2762760416666667,-0.005590277777777777],[-0.2767795138888889,0.0024652777777777776],[-0.2783246527777778,0.01545138888888889],[-0.27889322916666665,0.02375],[-0.27990017361111114,0.03180555555555555],[-0.2808159722222222,0.037760416666666664],[-0.2816666666666667,0.04243923611111111],[-0.2820486111111111,0.04547743055555555],[-0.2828125,0.048515625],[-0.283515625,0.05060763888888889],[-0.283515625,0.05153645833333333],[-0.283515625,0.05217447916666667],[-0.283515625,0.05217447916666667],[-0.283515625,0.05217447916666667],[-0.283515625,0.05217447916666667],[-0.283515625,0.05217447916666667],[-0.283515625,0.05217447916666667],[-0.283515625,0.05217447916666667],[-0.283515625,0.05217447916666667],[-0.283515625,0.05217447916666667],[-0.283515625,0.05217447916666667],[-0.283515625,0.05217447916666667]]]",3,"[37,58,92]",,,,,,,,,,,,,,playground9.jpg,space,6.569755,0,12,12,79,1,pasture.jpg,poolhall2.jpeg,pier2.jpg,observatory2.jpg,,
Image_List_3,,,,,,,,,,,,,,,,44241,2020-11-24_17h22.09.467,analogCatScenes,2020.1.3,MacIntel,60,"[1440,900]","[[[0.005264756944444444,-0.19824652777777776],[0.005264756944444444,-0.19824652777777776],[0.005264756944444444,-0.19824652777777776],[0.005264756944444444,-0.19824652777777776],[0.005264756944444444,-0.19824652777777776],[0.005264756944444444,-0.19824652777777776],[0.005264756944444444,-0.19824652777777776],[0.005264756944444444,-0.19824652777777776],[0.005264756944444444,-0.19824652777777776],[0.005264756944444444,-0.19824652777777776],[0.005520833333333333,-0.19824652777777776],[0.010199652777777778,-0.19824652777777776],[0.015486111111111112,-0.19824652777777776],[0.022747395833333333,-0.19778211805555557],[0.04219184027777778,-0.19702690972222223],[0.054375,-0.19702690972222223],[0.071484375,-0.19702690972222223],[0.09508246527777778,-0.19702690972222223],[0.10819010416666666,-0.19702690972222223],[0.11948350694444444,-0.19645833333333335],[0.12993489583333334,-0.1959201388888889],[0.14038628472222223,-0.19481336805555555],[0.14921440972222222,-0.19377170138888888],[0.15606336805555557,-0.19323350694444444],[0.16656684027777777,-0.19213975694444443],[0.17311631944444444,-0.19213975694444443],[0.18044270833333334,-0.19163628472222222],[0.1877690972222222,-0.19065972222222222],[0.19823350694444444,-0.18961805555555555],[0.20239149305555557,-0.18879340277777779],[0.2076779513888889,-0.18790798611111112],[0.21296440972222222,-0.1865798611111111],[0.21846354166666668,-0.18470052083333333],[0.22375,-0.18337239583333334],[0.2284375,-0.18210503472222223],[0.23309895833333333,-0.1804079861111111],[0.2371875,-0.17917534722222223],[0.24128472222222222,-0.17793836805555555],[0.2472309027777778,-0.17563368055555556],[0.2519184027777778,-0.1739279513888889],[0.2592534722222222,-0.17048611111111112],[0.2639453125,-0.16836805555555556],[0.26819878472222225,-0.1653689236111111],[0.2714800347222222,-0.16249131944444445],[0.27547743055555557,-0.15801215277777778],[0.27846788194444444,-0.15375],[0.281015625,-0.14945746527777778],[0.2836545138888889,-0.1441623263888889],[0.28620225694444446,-0.13946614583333333],[0.2891927083333333,-0.13520399305555555],[0.2921831597222222,-0.13094184027777778],[0.29640190972222225,-0.12462673611111111],[0.2993923611111111,-0.12036458333333333],[0.30137586805555555,-0.11679253472222222],[0.3038324652777778,-0.11268663194444445],[0.3054079861111111,-0.10911458333333333],[0.30745659722222224,-0.10500868055555555],[0.3092795138888889,-0.0989279513888889],[0.31102864583333334,-0.0936154513888889],[0.3123784722222222,-0.0876736111111111],[0.31360243055555553,-0.08284722222222222],[0.31536458333333334,-0.07755208333333333],[0.31788628472222225,-0.07079861111111112],[0.31939670138888887,-0.06776909722222223],[0.3208463541666667,-0.06520399305555556],[0.32229600694444444,-0.06263888888888888],[0.3241189236111111,-0.060460069444444445],[0.3255078125,-0.058368055555555555],[0.32749131944444443,-0.05520399305555555],[0.3290017361111111,-0.05217013888888889],[0.3306423611111111,-0.04806423611111111],[0.3322829861111111,-0.043958333333333335],[0.33351128472222225,-0.039852430555555554],[0.33514322916666667,-0.03576388888888889],[0.33719184027777777,-0.029605034722222222],[0.3384201388888889,-0.025499131944444444],[0.3396484375,-0.021393229166666666],[0.34081163194444447,-0.017821180555555555],[0.3415972222222222,-0.014249131944444444],[0.34235243055555553,-0.0112109375],[0.3431076388888889,-0.008172743055555556],[0.3441753472222222,-0.005620659722222222],[0.3448654513888889,-0.0035329861111111113],[0.34555989583333335,-0.0014409722222222222],[0.34587673611111114,-0.00016493055555555556],[0.34619357638888887,0.0011067708333333333],[0.3464800347222222,0.0016883680555555556],[0.34676649305555557,0.002265625],[0.34705295138888886,0.0031944444444444446],[0.34705295138888886,0.0031944444444444446],[0.34705295138888886,0.0031944444444444446],[0.34705295138888886,0.0031944444444444446]],[[0.0033420138888888887,-0.19531684027777776],[0.0033420138888888887,-0.19531684027777776],[0.0033420138888888887,-0.19531684027777776],[0.0033420138888888887,-0.19531684027777776],[0.0033420138888888887,-0.19531684027777776],[0.0033420138888888887,-0.19531684027777776],[0.0033420138888888887,-0.19531684027777776],[0.0033420138888888887,-0.19531684027777776],[0.0033420138888888887,-0.19531684027777776],[0.0033420138888888887,-0.19531684027777776],[0.0033420138888888887,-0.19531684027777776],[0.0035980902777777777,-0.19531684027777776],[0.006623263888888889,-0.19531684027777776],[0.010716145833333333,-0.19531684027777776],[0.018823784722222223,-0.19531684027777776],[0.0284375,-0.19531684027777776],[0.0414453125,-0.19531684027777776],[0.06207465277777778,-0.19531684027777776],[0.0742751736111111,-0.19647569444444443],[0.0873828125,-0.19885416666666667],[0.09867621527777778,-0.2011111111111111],[0.10912760416666667,-0.20330729166666667],[0.12042100694444445,-0.205],[0.13171440972222223,-0.20669270833333334],[0.1430078125,-0.20782118055555557],[0.15345920138888888,-0.20891927083333334],[0.16381944444444443,-0.21000434027777778],[0.17256076388888889,-0.2105034722222222],[0.1861935763888889,-0.2105034722222222],[0.1942404513888889,-0.2105034722222222],[0.20228732638888888,-0.2105034722222222],[0.20961371527777778,-0.21100260416666666],[0.21496527777777777,-0.21100260416666666],[0.22091145833333334,-0.21100260416666666],[0.22619791666666667,-0.21100260416666666],[0.23286458333333335,-0.21100260416666666],[0.23702256944444444,-0.21055989583333334],[0.2420876736111111,-0.20885416666666667],[0.24737413194444444,-0.20708333333333334],[0.25436631944444443,-0.20319878472222222],[0.25805555555555554,-0.20073350694444445],[0.26133680555555555,-0.19826822916666667],[0.2633203125,-0.19510416666666666],[0.265078125,-0.18980902777777778],[0.2655164930555556,-0.1845138888888889],[0.2655164930555556,-0.1764887152777778],[0.2655164930555556,-0.1660763888888889],[0.26489149305555554,-0.15206163194444444],[0.2636935763888889,-0.1389453125],[0.2631640625,-0.13154947916666668],[0.2631640625,-0.12424479166666667],[0.26272135416666664,-0.11944010416666667],[0.26272135416666664,-0.1181640625],[0.26272135416666664,-0.11758246527777778],[0.26272135416666664,-0.11730902777777778],[0.26272135416666664,-0.11638020833333333],[0.2633550347222222,-0.11510416666666666],[0.2643012152777778,-0.11383246527777778],[0.26522135416666665,-0.11290364583333333],[0.26553819444444443,-0.11197916666666667],[0.26553819444444443,-0.11105034722222222],[0.26553819444444443,-0.11012586805555556],[0.2649001736111111,-0.10919704861111111],[0.2611935763888889,-0.10659722222222222],[0.2589105902777778,-0.10431423611111111],[0.25612413194444444,-0.10194010416666667],[0.2542230902777778,-0.09927951388888889],[0.25143663194444443,-0.09690538194444444],[0.2486501736111111,-0.09453125],[0.24330729166666668,-0.09083333333333334],[0.24178819444444444,-0.09007378472222222],[0.23821614583333334,-0.08848958333333333],[0.23411458333333332,-0.08684461805555556],[0.23000868055555557,-0.0851953125],[0.22438368055555555,-0.08278645833333333],[0.22181857638888888,-0.08167534722222222],[0.22013454861111112,-0.08100260416666667],[0.21885850694444445,-0.08036024305555556],[0.2179296875,-0.08006944444444444],[0.21734809027777777,-0.08006944444444444],[0.21641927083333334,-0.08006944444444444],[0.21584201388888888,-0.08006944444444444],[0.21526475694444444,-0.08006944444444444],[0.21497829861111112,-0.07977864583333333],[0.21497829861111112,-0.07977864583333333],[0.21497829861111112,-0.07977864583333333],[0.21471354166666667,-0.07977864583333333],[0.21471354166666667,-0.07977864583333333],[0.21471354166666667,-0.07977864583333333],[0.21471354166666667,-0.07977864583333333]]]",2,"[92,90]",,,,,,,,,,,,,,clothingstore2.jpg,space,6.9982,0,13,13,30,1,courthouse1.jpg,desertvegetation3.jpg,copyroom2.jpg,bus_shelter3.jpg,,
Image_List_3,,,,,,,,,,,,,,,,44241,2020-11-24_17h22.09.467,analogCatScenes,2020.1.3,MacIntel,60,"[1440,900]","[[[-0.002482638888888889,-0.19567274305555554],[-0.002482638888888889,-0.19567274305555554],[-0.002482638888888889,-0.19567274305555554],[-0.002482638888888889,-0.19567274305555554],[-0.002482638888888889,-0.19567274305555554],[-0.002482638888888889,-0.19567274305555554],[-0.002482638888888889,-0.19567274305555554],[-0.002482638888888889,-0.19567274305555554],[-0.002482638888888889,-0.19567274305555554],[-0.002482638888888889,-0.19567274305555554],[-0.002482638888888889,-0.1923220486111111],[-0.002482638888888889,-0.18878472222222223],[-0.002482638888888889,-0.18465711805555557],[-0.002482638888888889,-0.17536024305555556],[-0.003988715277777778,-0.15768229166666667],[-0.006119791666666667,-0.13722222222222222],[-0.009722222222222222,-0.11560763888888889],[-0.013888888888888888,-0.09176215277777777],[-0.016401909722222222,-0.07645833333333334],[-0.019782986111111112,-0.058294270833333335],[-0.023550347222222223,-0.03432291666666667],[-0.02631076388888889,-0.015017361111111112],[-0.027569444444444445,0.00024305555555555555],[-0.02964409722222222,0.020299479166666665],[-0.030989583333333334,0.0384375],[-0.03281684027777778,0.059140625],[-0.03281684027777778,0.07134982638888888],[-0.03281684027777778,0.08180989583333333],[-0.03281684027777778,0.08926649305555556],[-0.03281684027777778,0.09657552083333333],[-0.03281684027777778,0.10192708333333333],[-0.03281684027777778,0.10547309027777778],[-0.03281684027777778,0.1071484375],[-0.03281684027777778,0.10807725694444445],[-0.03281684027777778,0.10865885416666667],[-0.03281684027777778,0.10865885416666667],[-0.03281684027777778,0.10892361111111111],[-0.03281684027777778,0.10892361111111111],[-0.03281684027777778,0.10892361111111111],[-0.03281684027777778,0.10892361111111111],[-0.03281684027777778,0.10892361111111111]]]",1,[41],,,,,,,,,,,,,,pier5.jpg,space,2.249625,0,14,14,78,1,parkinglot3.jpg,poolhall1.jpg,pavilion3.jpg,observatory1.jpg,,
Image_List_3,,,,,,,,,,,,,,,,44241,2020-11-24_17h22.09.467,analogCatScenes,2020.1.3,MacIntel,60,"[1440,900]","[[[-0.00011284722222222222,-0.2098654513888889],[-0.00011284722222222222,-0.2098654513888889],[-0.00011284722222222222,-0.2098654513888889],[-0.00011284722222222222,-0.2098654513888889],[-0.00011284722222222222,-0.2098654513888889],[-0.00011284722222222222,-0.2098654513888889],[-0.00011284722222222222,-0.2098654513888889],[-0.00011284722222222222,-0.2066970486111111],[-0.00011284722222222222,-0.2007421875],[-0.00011284722222222222,-0.19340711805555555],[-0.00011284722222222222,-0.1808203125],[-0.00011284722222222222,-0.16926649305555555],[-0.00011284722222222222,-0.15518229166666667],[-0.00011284722222222222,-0.14388020833333334],[-0.00011284722222222222,-0.13516927083333333],[-0.00011284722222222222,-0.1271484375],[-0.00011284722222222222,-0.11909288194444445],[-0.00011284722222222222,-0.11177951388888889],[-0.00011284722222222222,-0.10041666666666667],[-0.00011284722222222222,-0.09236111111111112],[-0.00011284722222222222,-0.08755208333333334],[-0.0005859375,-0.0809375],[-0.0014670138888888888,-0.07565538194444445],[-0.0027951388888888887,-0.07036024305555555],[-0.005099826388888889,-0.06440538194444445],[-0.007369791666666667,-0.05845052083333333],[-0.008680555555555556,-0.05368923611111111],[-0.010885416666666667,-0.04840711805555555],[-0.012526041666666666,-0.04432291666666666],[-0.01373263888888889,-0.040750868055555556],[-0.015104166666666667,-0.03802083333333333],[-0.015425347222222222,-0.037092013888888886],[-0.016006944444444445,-0.03651041666666666],[-0.016006944444444445,-0.03623697916666667],[-0.016280381944444443,-0.03623697916666667],[-0.016280381944444443,-0.03623697916666667],[-0.016280381944444443,-0.03623697916666667],[-0.016280381944444443,-0.03623697916666667]]]",1,[38],,,,,,,,,,,,,,highway4.jpg,space,3.748555,0,15,15,59,1,homegarden7.jpg,library_aisle8.jpg,kindergarten_classroom5.jpg,grocerystore3.jpg,,
Image_List_3,,,,,,,,,,,,,,,,44241,2020-11-24_17h22.09.467,analogCatScenes,2020.1.3,MacIntel,60,"[1440,900]","[[[0.0007508680555555555,-0.21052951388888888],[0.0007508680555555555,-0.21052951388888888],[0.0007508680555555555,-0.21052951388888888],[0.0007508680555555555,-0.21052951388888888],[0.0007508680555555555,-0.21052951388888888],[0.0007508680555555555,-0.21052951388888888],[0.0007508680555555555,-0.21052951388888888],[0.0007508680555555555,-0.21052951388888888],[0.0007508680555555555,-0.21052951388888888],[-0.0005555555555555556,-0.21052951388888888],[-0.005256076388888889,-0.21008680555555556],[-0.012591145833333333,-0.20863715277777778],[-0.025768229166666667,-0.2056206597222222],[-0.038103298611111114,-0.20319878472222222],[-0.0521875,-0.20012152777777778],[-0.06354600694444444,-0.1973263888888889],[-0.070390625,-0.19638020833333333],[-0.07934895833333333,-0.1932638888888889],[-0.08559461805555556,-0.19078125],[-0.09000868055555555,-0.1871875],[-0.09521267361111112,-0.17821180555555555],[-0.09773003472222222,-0.17015625],[-0.0997439236111111,-0.16210069444444444],[-0.1008203125,-0.15248263888888888],[-0.10138888888888889,-0.1402734375],[-0.10195746527777778,-0.12897135416666666],[-0.10195746527777778,-0.11766927083333334],[-0.10195746527777778,-0.11080729166666667],[-0.10195746527777778,-0.10419270833333333],[-0.10195746527777778,-0.09950954861111111],[-0.10195746527777778,-0.09481770833333333],[-0.10236979166666667,-0.08865885416666666],[-0.10236979166666667,-0.0845529513888889],[-0.10275173611111112,-0.08151475694444445],[-0.10310329861111112,-0.07983072916666667],[-0.10342447916666667,-0.0785546875],[-0.10371527777777778,-0.07826388888888888],[-0.10398871527777778,-0.07826388888888888],[-0.10456597222222222,-0.07826388888888888],[-0.10456597222222222,-0.07826388888888888],[-0.10456597222222222,-0.07826388888888888],[-0.10456597222222222,-0.07826388888888888]],[[0.0001953125,-0.20553819444444443],[0.0001953125,-0.20553819444444443],[0.0001953125,-0.20553819444444443],[0.0001953125,-0.20553819444444443],[0.0001953125,-0.20553819444444443],[0.0001953125,-0.20553819444444443],[0.0001953125,-0.20553819444444443],[0.00045138888888888887,-0.20553819444444443],[0.0063975694444444444,-0.20553819444444443],[0.016063368055555555,-0.20553819444444443],[0.03013888888888889,-0.20553819444444443],[0.07499131944444444,-0.20866753472222221],[0.1282421875,-0.2172439236111111],[0.15855034722222222,-0.22143663194444443],[0.19213975694444443,-0.22659722222222223],[0.21531684027777778,-0.22803385416666666],[0.23814236111111112,-0.2287847222222222],[0.25514322916666665,-0.2287847222222222],[0.26635416666666667,-0.22766927083333333],[0.2722309027777778,-0.22539496527777778],[0.27815104166666665,-0.22313802083333334],[0.28118055555555554,-0.2216189236111111],[0.2843706597222222,-0.22018663194444443],[0.28563802083333334,-0.21922743055555555],[0.28658854166666664,-0.21826822916666666],[0.28658854166666664,-0.21826822916666666],[0.28658854166666664,-0.21826822916666666],[0.28658854166666664,-0.21826822916666666],[0.28658854166666664,-0.21826822916666666],[0.28658854166666664,-0.21826822916666666]],[[-0.004114583333333333,-0.20755642361111112],[-0.004114583333333333,-0.20755642361111112],[-0.004114583333333333,-0.20755642361111112],[-0.004114583333333333,-0.20755642361111112],[-0.004114583333333333,-0.20755642361111112],[-0.004114583333333333,-0.20755642361111112],[-0.004114583333333333,-0.20755642361111112],[-0.004114583333333333,-0.20755642361111112],[-0.004631076388888889,-0.20755642361111112],[-0.012052951388888889,-0.20755642361111112],[-0.028138020833333333,-0.20755642361111112],[-0.06421440972222223,-0.20755642361111112],[-0.1215017361111111,-0.20755642361111112],[-0.1979730902777778,-0.20755642361111112],[-0.2479861111111111,-0.20852430555555557],[-0.27120225694444444,-0.21080729166666667],[-0.2860373263888889,-0.2113064236111111],[-0.29837239583333336,-0.21246527777777777],[-0.3050173611111111,-0.21246527777777777],[-0.30858506944444447,-0.21246527777777777],[-0.31026475694444444,-0.21246527777777777],[-0.31084635416666667,-0.21246527777777777],[-0.31113715277777776,-0.21246527777777777],[-0.3114105902777778,-0.21246527777777777],[-0.3114105902777778,-0.21246527777777777],[-0.3114105902777778,-0.21246527777777777],[-0.3114105902777778,-0.21246527777777777],[-0.3114105902777778,-0.21246527777777777],[-0.3114105902777778,-0.21246527777777777]]]",3,"[42,30,29]",,,,,,,,,,,,,,gazebo5.jpg,space,4.630795,0,16,16,55,1,greenmountains.jpg,hotelRoom3.jpg,hotelRoom7.jpg,frontLawn2.jpg,,
