image_list,key_resp_intructions.keys,key_resp_intructions.rt,key_resp_intructions_3.keys,key_resp_intructions_3.rt,PracticeComplete_2.keys,PracticeComplete_2.rt,PracticeComplete_3.keys,PracticeComplete_3.rt,demo_trials.thisRepN,demo_trials.thisTrialN,demo_trials.thisN,demo_trials.thisIndex,demo_trials.ran,demo_images,path_images,participant,date,expName,psychopyVersion,OS,frameRate,windowSize,practice_complete.keys,practice_complete.rt,boxes_checked,PracticeComplete.keys,PracticeComplete.rt,practice_trials.thisRepN,practice_trials.thisTrialN,practice_trials.thisN,practice_trials.thisIndex,practice_trials.ran,practice_images,feedback_images,key_resp_intructions_2.keys,key_resp_intructions_2.rt,Image_List_2,trial_complete.keys,trial_complete.rt,trial_mouse.x,trial_mouse.y,trial_mouse.leftButton,trial_mouse.midButton,trial_mouse.rightButton,trial_mouse.time,trial_mouse.clicked_name,trials.thisRepN,trials.thisTrialN,trials.thisN,trials.thisIndex,trials.ran,Image_List_1,Image_List_3,Image_List_4,Image_List_5,key_resp.keys,key_resp.rt
Image_List_2,space,8.14006,space,7.715175,space,21.695205,space,6.93401,0,0,0,1,1,ahead_left.jpg,ahead_left_path.jpg,44288,2020-11-24_19h23.15.569,lingCatScenes,2020.1.3,MacIntel,60,,,,,,,,,,,,,,,,,,,,,,,,,,,,,,,,,,,,
Image_List_2,,,,,space,4.16316,space,6.3701,0,1,1,5,1,right.jpg,right_path.jpg,44288,2020-11-24_19h23.15.569,lingCatScenes,2020.1.3,MacIntel,60,,,,,,,,,,,,,,,,,,,,,,,,,,,,,,,,,,,,
Image_List_2,,,,,space,4.550865,space,4.387075,0,2,2,6,1,right_left.jpg,right_left_path.jpg,44288,2020-11-24_19h23.15.569,lingCatScenes,2020.1.3,MacIntel,60,,,,,,,,,,,,,,,,,,,,,,,,,,,,,,,,,,,,
Image_List_2,,,,,space,4.2644,space,2.44133,0,3,3,3,1,ahead_right_left.jpg,ahead_right_left_path.jpg,44288,2020-11-24_19h23.15.569,lingCatScenes,2020.1.3,MacIntel,60,,,,,,,,,,,,,,,,,,,,,,,,,,,,,,,,,,,,
Image_List_2,,,,,space,3.85499,space,4.591525,0,4,4,2,1,ahead_right.jpg,ahead_right_path.jpg,44288,2020-11-24_19h23.15.569,lingCatScenes,2020.1.3,MacIntel,60,,,,,,,,,,,,,,,,,,,,,,,,,,,,,,,,,,,,
Image_List_2,,,,,space,5.061465,space,1.21492,0,5,5,0,1,ahead.jpg,ahead_path.jpg,44288,2020-11-24_19h23.15.569,lingCatScenes,2020.1.3,MacIntel,60,,,,,,,,,,,,,,,,,,,,,,,,,,,,,,,,,,,,
Image_List_2,,,,,space,2.662895,space,5.28461,0,6,6,4,1,left.jpg,left_path.jpg,44288,2020-11-24_19h23.15.569,lingCatScenes,2020.1.3,MacIntel,60,,,,,,,,,,,,,,,,,,,,,,,,,,,,,,,,,,,,
Image_List_2,,,,,,,,,,,,,,,,44288,2020-11-24_19h23.15.569,lingCatScenes,2020.1.3,MacIntel,60,"[1280,800]",space,19.4722,"[""ahead_box"",""left_box""]",space,1.715765,0,0,0,1,1,ahead_left_2.jpg,ahead_left_2_path.jpg,,,,,,,,,,,,,,,,,,,,,,,
Image_List_2,,,,,,,,,,,,,,,,44288,2020-11-24_19h23.15.569,lingCatScenes,2020.1.3,MacIntel,60,"[1280,800]",space,6.209125,"[""ahead_box""]",space,3.41314,0,1,1,0,1,ahead_2.jpg,ahead_2_path.jpg,,,,,,,,,,,,,,,,,,,,,,,
Image_List_2,,,,,,,,,,,,,,,,44288,2020-11-24_19h23.15.569,lingCatScenes,2020.1.3,MacIntel,60,"[1280,800]",space,14.936635,"[""ahead_box"",""sharp_left_box"",""sharp_right_box""]",space,6.584205,0,2,2,3,1,ahead_right_left_2.jpg,ahead_right_left_2_path.jpg,,,,,,,,,,,,,,,,,,,,,,,
Image_List_2,,,,,,,,,,,,,,,,44288,2020-11-24_19h23.15.569,lingCatScenes,2020.1.3,MacIntel,60,"[1280,800]",space,5.879685,"[""ahead_box"",""sharp_right_box""]",space,2.079585,0,3,3,2,1,ahead_right_2.jpg,ahead_right_2_path.jpg,,,,,,,,,,,,,,,,,,,,,,,
Image_List_2,,,,,,,,,,,,,,,,44288,2020-11-24_19h23.15.569,lingCatScenes,2020.1.3,MacIntel,60,"[1280,800]",space,20.316085,"[""sharp_left_box""]",space,1.137195,0,4,4,4,1,left_2.jpg,left_2_path.jpg,,,,,,,,,,,,,,,,,,,,,,,
Image_List_2,,,,,,,,,,,,,,,,44288,2020-11-24_19h23.15.569,lingCatScenes,2020.1.3,MacIntel,60,"[1280,800]",space,8.21588,"[""sharp_right_box""]",space,0.845165,0,5,5,5,1,right_2.jpg,right_2_path.jpg,,,,,,,,,,,,,,,,,,,,,,,
Image_List_2,,,,,,,,,,,,,,,,44288,2020-11-24_19h23.15.569,lingCatScenes,2020.1.3,MacIntel,60,"[1280,800]",space,7.27022,"[""right_box"",""left_box""]",space,0.03785,0,6,6,6,1,right_left_2.jpg,right_left_2_path.jpg,,,,,,,,,,,,,,,,,,,,,,,
Image_List_2,,,,,,,,,,,,,,,,44288,2020-11-24_19h23.15.569,lingCatScenes,2020.1.3,MacIntel,60,"[1280,800]",,,"[""trial_sharp_left_box"",""trial_sharp_right_box""]",,,,,,,,,,space,6.670905,pavilion5.jpg,space,17.427245,"[-0.62630859375,-0.59927734375,0.6271533203125,0.6020947265625]","[-0.297578125,-0.3066943359375,-0.2916796875,-0.3103955078125]","[1,1,1,1]","[0,0,0,0]","[0,0,0,0]","[12.338665000000162,13.239704999999958,14.923874999999498,15.72436000000016]","[""trial_sharp_left_box"",""trial_sharp_right_box""]",0,0,0,71,1,metroInside2.jpg,metroInside3.jpg,museum3.jpg,jewelrystore.jpg,,
Image_List_2,,,,,,,,,,,,,,,,44288,2020-11-24_19h23.15.569,lingCatScenes,2020.1.3,MacIntel,60,"[1280,800]",,,"[""trial_ahead_box"",""trial_left_box""]",,,,,,,,,,,,frontLawn5.jpg,space,4.939825,"[0.00384765625,-0.405478515625]","[-0.3019384765625,-0.311484375]","[1,1]","[0,0]","[0,0]","[2.629265000000487,4.630880000000616]","[""trial_ahead_box"",""trial_left_box""]",0,1,1,46,1,flowershop.jpg,farmersmarket4.jpg,fountain4.jpg,dormroom6.jpg,,
Image_List_2,,,,,,,,,,,,,,,,44288,2020-11-24_19h23.15.569,lingCatScenes,2020.1.3,MacIntel,60,"[1280,800]",,,"[""trial_left_box""]",,,,,,,,,,,,farm3.jpg,space,3.933095,[-0.383544921875],[-0.3129833984375],[1],[0],[0],[3.1273950000004334],"[""trial_left_box""]",0,2,2,41,1,dugout4.jpg,drymountains3.jpg,fabricstore1.jpg,dentist2.jpg,,
Image_List_2,,,,,,,,,,,,,,,,44288,2020-11-24_19h23.15.569,lingCatScenes,2020.1.3,MacIntel,60,"[1280,800]",,,"[""trial_ahead_box"",""trial_left_box"",""trial_right_box""]",,,,,,,,,,,,pavilion.jpg,space,5.96932,"[-0.01484375,-0.3917236328125,0.413759765625]","[-0.310166015625,-0.3099169921875,-0.2940771484375]","[1,1,1]","[0,0,0]","[0,0,0]","[2.3468199999997523,4.1132449999995515,5.714374999999563]","[""trial_ahead_box"",""trial_left_box"",""trial_right_box""]",0,3,3,70,1,lockerroom4.jpg,lockerroom3.jpg,minigolf8.jpg,igloo.jpg,,
Image_List_2,,,,,,,,,,,,,,,,44288,2020-11-24_19h23.15.569,lingCatScenes,2020.1.3,MacIntel,60,"[1280,800]",,,"[""trial_sharp_left_box"",""trial_ahead_box""]",,,,,,,,,,,,cemetery6.jpg,space,9.55107,"[-0.6123486328125,0.011396484375]","[-0.3103564453125,-0.3048828125]","[1,1]","[0,0]","[0,0]","[8.198620000000119,9.233075000000099]","[""trial_sharp_left_box"",""trial_ahead_box""]",0,4,4,21,1,botanicalGarden6.jpg,campusquad3.jpg,cave5.jpg,beach1.jpeg,,
Image_List_2,,,,,,,,,,,,,,,,44288,2020-11-24_19h23.15.569,lingCatScenes,2020.1.3,MacIntel,60,"[1280,800]",,,"[""trial_ahead_box""]",,,,,,,,,,,,wineVineyard8.jpg,space,2.296435,[0.0119482421875],[-0.305712890625],[1],[0],[0],[1.8286550000002535],"[""trial_ahead_box""]",0,5,5,98,1,weightroom5.jpg,warehouse3.jpg,winebarrel4.jpg,winebarrel2.jpg,,
Image_List_2,,,,,,,,,,,,,,,,44288,2020-11-24_19h23.15.569,lingCatScenes,2020.1.3,MacIntel,60,"[1280,800]",,,"[""trial_ahead_box""]",,,,,,,,,,,,warehouse2.jpg,space,1.42876,[0.0122314453125],[-0.30599609375],[1],[0],[0],[1.0791650000001596],"[""trial_ahead_box""]",0,6,6,95,1,waitingroom2.jpg,stripmall6.jpg,weightroom4.jpg,tvstudio3.jpg,,
Image_List_2,,,,,,,,,,,,,,,,44288,2020-11-24_19h23.15.569,lingCatScenes,2020.1.3,MacIntel,60,"[1280,800]",,,"[""trial_slight_right_box"",""trial_right_box""]",,,,,,,,,,,,hotelRoom3.jpg,space,8.88485,"[0.1983154296875,0.4143798828125]","[-0.2965234375,-0.28419921875]","[1,1]","[0,0]","[0,0]","[2.6634949999997843,8.415705000000344]","[""trial_slight_right_box"",""trial_right_box""]",0,7,7,55,1,greenmountains.jpg,gazebo5.jpg,hotelRoom7.jpg,frontLawn2.jpg,,
Image_List_2,,,,,,,,,,,,,,,,44288,2020-11-24_19h23.15.569,lingCatScenes,2020.1.3,MacIntel,60,"[1280,800]",,,"[""trial_sharp_right_box"",""trial_left_box""]",,,,,,,,,,,,grocerystore6.jpg,space,5.311635,"[0.60837890625,-0.39779296875]","[-0.3056103515625,-0.31740234375]","[1,1]","[0,0]","[0,0]","[3.5302899999996953,4.914160000000265]","[""trial_sharp_right_box"",""trial_left_box""]",0,8,8,50,1,frontLawn4.jpg,forestpath6.jpg,hallway2.jpg,fireplace4.jpg,,
Image_List_2,,,,,,,,,,,,,,,,44288,2020-11-24_19h23.15.569,lingCatScenes,2020.1.3,MacIntel,60,"[1280,800]",,,"[""trial_ahead_box"",""trial_left_box"",""trial_right_box""]",,,,,,,,,,,,golfcourse6.jpg,space,11.50038,"[0.026884765625,0.0046533203125,-0.403896484375,0.422314453125]","[-0.325830078125,-0.306064453125,-0.297294921875,-0.31171875]","[1,1,1,1]","[0,0,0,0]","[0,0,0,0]","[2.4464499999994587,4.163659999999254,5.897659999999632,7.598039999999855]","[""trial_ahead_box"",""trial_left_box"",""trial_right_box""]",0,9,9,48,1,frontDoor2.jpg,fittingroom5.jpg,golfcourse7.jpg,fabricstore2.jpg,,
Image_List_2,,,,,,,,,,,,,,,,44288,2020-11-24_19h23.15.569,lingCatScenes,2020.1.3,MacIntel,60,"[1280,800]",,,"[""trial_ahead_box""]",,,,,,,,,,,,pharmacy4.jpg,space,2.182155,[-0.003408203125],[-0.30927734375],[1],[0],[0],[1.7780849999998622],"[""trial_ahead_box""]",0,10,10,72,1,museum5.jpg,musicStore1.jpg,museum4.jpg,kindergarten_classroom.jpg,,
Image_List_2,,,,,,,,,,,,,,,,44288,2020-11-24_19h23.15.569,lingCatScenes,2020.1.3,MacIntel,60,"[1280,800]",,,"[""trial_ahead_box""]",,,,,,,,,,,,track5.jpg,space,8.501715,[-0.003125],[-0.30927734375],[1],[0],[0],[2.1131500000000756],"[""trial_ahead_box""]",0,11,11,89,1,ruralroad7.jpg,ShowJumping7.jpg,staircase7.jpg,sculpturegarden3.jpg,,
Image_List_2,,,,,,,,,,,,,,,,44288,2020-11-24_19h23.15.569,lingCatScenes,2020.1.3,MacIntel,60,"[1280,800]",,,"[""trial_slight_right_box"",""trial_sharp_left_box""]",,,,,,,,,,,,basketballcourt4.jpg,space,6.620965,"[0.196826171875,-0.62830078125,-0.6106787109375]","[-0.3133251953125,-0.2926611328125,-0.2997412109375]","[1,1,1]","[0,0,0]","[0,0,0]","[3.0624250000000757,5.128880000000208,6.180354999999508]","[""trial_slight_right_box"",""trial_sharp_left_box""]",0,12,12,11,1,backyard2.jpg,bambooforest3.jpg,baywindow5.jpg,backyard1.jpg,,
Image_List_2,,,,,,,,,,,,,,,,44288,2020-11-24_19h23.15.569,lingCatScenes,2020.1.3,MacIntel,60,"[1280,800]",,,"[""trial_slight_right_box""]",,,,,,,,,,,,hut3.jpg,space,2.41233,[0.189453125],[-0.301728515625],[1],[0],[0],[2.1441849999991973],"[""trial_slight_right_box""]",0,13,13,56,1,grocerystore5.jpg,golfcourse10.jpg,hut1.jpg,gasstation2.jpg,,
Image_List_2,,,,,,,,,,,,,,,,44288,2020-11-24_19h23.15.569,lingCatScenes,2020.1.3,MacIntel,60,"[1280,800]",,,"[""trial_ahead_box""]",,,,,,,,,,,,dock3.jpg,space,2.06725,"[-0.0280126953125,-0.0149853515625]","[-0.31740234375,-0.3112744140625]","[1,1]","[0,0]","[0,0]","[1.2635049999998955,1.8133850000003804]","[""trial_ahead_box""]",0,14,14,35,1,deck5.jpg,cubicle7.jpg,dining_car6.jpg,carmechanic2.jpg,,
Image_List_2,,,,,,,,,,,,,,,,44288,2020-11-24_19h23.15.569,lingCatScenes,2020.1.3,MacIntel,60,"[1280,800]",,,"[""trial_sharp_right_box"",""trial_ahead_box"",""trial_right_box""]",,,,,,,,,,,,dancestudio5.jpg,space,9.5564,"[0.617998046875,0.010615234375,0.405029296875]","[-0.28873046875,-0.308388671875,-0.3127001953125]","[1,1,1]","[0,0,0]","[0,0,0]","[4.93166999999994,6.032339999999749,9.283689999999297]","[""trial_sharp_right_box"",""trial_ahead_box"",""trial_right_box""]",0,15,15,28,1,churchInside1.jpg,citystreet10.jpg,clothingstore5.jpg,bridalboutique2.jpg,,
Image_List_2,,,,,,,,,,,,,,,,44288,2020-11-24_19h23.15.569,lingCatScenes,2020.1.3,MacIntel,60,"[1280,800]",,,"[""trial_sharp_left_box""]",,,,,,,,,,,,eyeglassstore9.jpg,space,3.688725,[-0.612705078125],[-0.3081298828125],[1],[0],[0],[3.530399999999645],"[""trial_sharp_left_box""]",0,16,16,39,1,driveway6.jpg,drycleaners6.jpg,drymountains5.jpg,cliff5.jpg,,
Image_List_2,,,,,,,,,,,,,,,,44288,2020-11-24_19h23.15.569,lingCatScenes,2020.1.3,MacIntel,60,"[1280,800]",,,"[""trial_ahead_box""]",,,,,,,,,,,,trainStation1.jpg,space,1.545975,[-0.0006103515625],[-0.3101025390625],[1],[0],[0],[1.344785000000229],"[""trial_ahead_box""]",0,17,17,90,1,savanna5.jpg,sidewalk1.jpg,stripmall3.jpg,shoestore4.jpg,,
Image_List_2,,,,,,,,,,,,,,,,44288,2020-11-24_19h23.15.569,lingCatScenes,2020.1.3,MacIntel,60,"[1280,800]",,,"[""trial_right_box""]",,,,,,,,,,,,driveway4.jpg,space,3.58411,[0.4139697265625],[-0.2994482421875],[1],[0],[0],[3.3117050000000745],"[""trial_right_box""]",0,18,18,37,1,dining_car.jpg,dinosaur4.jpg,driveway7.jpg,citystreet9.jpg,,
Image_List_2,,,,,,,,,,,,,,,,44288,2020-11-24_19h23.15.569,lingCatScenes,2020.1.3,MacIntel,60,"[1280,800]",,,"[""trial_slight_right_box""]",,,,,,,,,,,,alley2.jpg,space,3.02988,[0.2021484375],[-0.2986572265625],[1],[0],[0],[2.8132299999997485],"[""trial_slight_right_box""]",0,19,19,0,1,airplanecabin1.jpg,appleorchard4.jpg,airplanecabin5.jpg,airplanecabin3.jpg,,
Image_List_2,,,,,,,,,,,,,,,,44288,2020-11-24_19h23.15.569,lingCatScenes,2020.1.3,MacIntel,60,"[1280,800]",,,"[""trial_sharp_left_box""]",,,,,,,,,,,,cliff3.jpg,space,2.485705,[-0.602177734375],[-0.3146630859375],[1],[0],[0],[2.230069999999614],"[""trial_sharp_left_box""]",0,20,20,24,1,campsite.jpg,cave6.jpg,cemetery5.jpg,boardwalk.jpg,,
Image_List_2,,,,,,,,,,,,,,,,44288,2020-11-24_19h23.15.569,lingCatScenes,2020.1.3,MacIntel,60,"[1280,800]",,,"[""trial_sharp_right_box""]",,,,,,,,,,,,ruralroad5.jpg,space,11.036145,[0.60353515625],[-0.2810546875],[1],[0],[0],[10.751944999999978],"[""trial_sharp_right_box""]",0,21,21,81,1,promenadeDeck.jpg,promenadeDeck2.jpg,rainforest5.jpg,pasture8.jpg,,
Image_List_2,,,,,,,,,,,,,,,,44288,2020-11-24_19h23.15.569,lingCatScenes,2020.1.3,MacIntel,60,"[1280,800]",,,"[""trial_right_box""]",,,,,,,,,,,,baggageClaim2.jpg,space,3.037735,[0.376318359375],[-0.2869921875],[1],[0],[0],[2.713394999999764],"[""trial_right_box""]",0,22,22,4,1,artStudio1.jpg,auto_showroom1.jpg,appleorchard3.jpg,alley4.jpg,,
Image_List_2,,,,,,,,,,,,,,,,44288,2020-11-24_19h23.15.569,lingCatScenes,2020.1.3,MacIntel,60,"[1280,800]",,,"[""trial_left_box""]",,,,,,,,,,,,horsebarn11.jpg,space,3.5978,[-0.41876953125],[-0.3117822265625],[1],[0],[0],[2.7289449999998396],"[""trial_left_box""]",0,23,23,54,1,greenhouse2.jpg,gazebo2.jpg,homegarage4.jpg,frontFoyer.jpg,,
Image_List_2,,,,,,,,,,,,,,,,44288,2020-11-24_19h23.15.569,lingCatScenes,2020.1.3,MacIntel,60,"[1280,800]",,,"[""trial_right_box""]",,,,,,,,,,,,arcade1.jpg,space,5.90048,"[0.4260986328125,0.416591796875]","[-0.28220703125,-0.2898583984375]","[1,1]","[0,0]","[0,0]","[5.214525000000322,5.664555000000291]","[""trial_right_box""]",0,24,24,2,1,alley1.jpg,applestore6.jpg,apartmentBuilding4.jpg,airportTerminal6.jpg,,
Image_List_2,,,,,,,,,,,,,,,,44288,2020-11-24_19h23.15.569,lingCatScenes,2020.1.3,MacIntel,60,"[1280,800]",,,"[""trial_ahead_box"",""trial_right_box"",""trial_left_box""]",,,,,,,,,,,,parkinglot.jpg,space,4.821145,"[-0.01279296875,0.400556640625,-0.407041015625]","[-0.29197265625,-0.3037890625,-0.30361328125]","[1,1,1]","[0,0,0]","[0,0,0]","[1.4300499999999374,3.4475800000000163,4.46478500000012]","[""trial_ahead_box"",""trial_right_box"",""trial_left_box""]",0,25,25,68,1,liquorstore7.jpg,lightingstore4.jpg,lockerroom2.jpg,hospitalroom3.jpg,,
Image_List_2,,,,,,,,,,,,,,,,44288,2020-11-24_19h23.15.569,lingCatScenes,2020.1.3,MacIntel,60,"[1280,800]",,,"[""trial_ahead_box"",""trial_right_box""]",,,,,,,,,,,,cafeteria5.jpg,space,4.34698,"[-0.0037939453125,0.3897705078125]","[-0.3132568359375,-0.2965625]","[1,1]","[0,0]","[0,0]","[2.6291400000000067,3.812840000000506]","[""trial_ahead_box"",""trial_right_box""]",0,26,26,15,1,bambooforest4.jpg,bleachers8.jpg,cabinIndoors.jpg,bar8.jpg,,
Image_List_2,,,,,,,,,,,,,,,,44288,2020-11-24_19h23.15.569,lingCatScenes,2020.1.3,MacIntel,60,"[1280,800]",,,"[""trial_ahead_box""]",,,,,,,,,,,,photographer_studio2.jpg,space,3.85003,[-0.0152294921875],[-0.308955078125],[1],[0],[0],[3.481659999999465],"[""trial_ahead_box""]",0,27,27,73,1,musicStore3.jpg,nursery.jpg,nursery4.jpg,library_aisle9.jpg,,
Image_List_2,,,,,,,,,,,,,,,,44288,2020-11-24_19h23.15.569,lingCatScenes,2020.1.3,MacIntel,60,"[1280,800]",,,"[""trial_ahead_box""]",,,,,,,,,,,,parkinglot2.jpg,space,1.5501,[-0.0152294921875],[-0.308955078125],[1],[0],[0],[1.1621750000002748],"[""trial_ahead_box""]",0,28,28,69,1,liquorstore8.jpg,livingroom.jpg,metroInside1.jpg,icecream2.jpg,,
Image_List_2,,,,,,,,,,,,,,,,44288,2020-11-24_19h23.15.569,lingCatScenes,2020.1.3,MacIntel,60,"[1280,800]",,,"[""trial_left_box""]",,,,,,,,,,,,diner12.jpg,space,2.93387,[-0.39970703125],[-0.314853515625],[1],[0],[0],[2.5981699999994134],"[""trial_left_box""]",0,29,29,32,1,dancestudio6.jpg,constructionSite2.jpg,dentist4.jpg,cabin4.jpg,,
Image_List_2,,,,,,,,,,,,,,,,44288,2020-11-24_19h23.15.569,lingCatScenes,2020.1.3,MacIntel,60,"[1280,800]",,,[],,,,,,,,,,,,frontFoyer7.jpg,space,2.233265,[0.0250634765625],[-0.312568359375],[1],[0],[0],[1.9627500000005966],[],0,30,30,45,1,fittingroom2.jpg,factory1.jpg,forestpath4.jpg,dock4.jpg,,
Image_List_2,,,,,,,,,,,,,,,,44288,2020-11-24_19h23.15.569,lingCatScenes,2020.1.3,MacIntel,60,"[1280,800]",,,"[""trial_right_box"",""trial_left_box"",""trial_ahead_box""]",,,,,,,,,,,,campsite6.jpg,space,8.18741,"[0.3923291015625,-0.3925244140625,-0.0274853515625,-0.018408203125]","[-0.3109326171875,-0.292138671875,-0.3201708984375,-0.3126806640625]","[1,1,1,1]","[0,0,0,0]","[0,0,0,0]","[5.448719999999412,6.26509999999962,7.165974999999889,7.816114999999627]","[""trial_right_box"",""trial_left_box"",""trial_ahead_box""]",0,31,31,17,1,bikerack1.jpg,breakroom4.jpg,carmechanic.jpg,baseball6.jpg,,
Image_List_2,,,,,,,,,,,,,,,,44288,2020-11-24_19h23.15.569,lingCatScenes,2020.1.3,MacIntel,60,"[1280,800]",,,"[""trial_ahead_box""]",,,,,,,,,,,,barbershop3.jpg,space,1.850035,[-0.02158203125],[-0.30951171875],[1],[0],[0],[1.4971000000005006],"[""trial_ahead_box""]",0,32,32,10,1,backstage2.jpg,ballroom4.jpg,basketballcourt3.jpg,ATM4.jpg,,
Image_List_2,,,,,,,,,,,,,,,,44288,2020-11-24_19h23.15.569,lingCatScenes,2020.1.3,MacIntel,60,"[1280,800]",,,"[""trial_sharp_left_box""]",,,,,,,,,,,,greenhouse5.jpg,space,4.46788,[-0.62017578125],[-0.3011962890625],[1],[0],[0],[3.5635449999999764],"[""trial_sharp_left_box""]",0,33,33,49,1,frontDoor3.jpg,flowershop3.jpg,greenhouse.jpg,farm2.jpg,,
Image_List_2,,,,,,,,,,,,,,,,44288,2020-11-24_19h23.15.569,lingCatScenes,2020.1.3,MacIntel,60,"[1280,800]",,,"[""trial_right_box"",""trial_sharp_left_box""]",,,,,,,,,,,,waitingroom3.jpg,space,5.087415,"[0.3920166015625,-0.589296875]","[-0.2980908203125,-0.3178271484375]","[1,1]","[0,0]","[0,0]","[3.6977750000004335,4.898605000000316]","[""trial_right_box"",""trial_sharp_left_box""]",0,34,34,94,1,treehouse.jpg,staircase6.jpg,weightroom.jpg,trainStation3.jpg,,
Image_List_2,,,,,,,,,,,,,,,,44288,2020-11-24_19h23.15.569,lingCatScenes,2020.1.3,MacIntel,60,"[1280,800]",,,"[""trial_sharp_left_box""]",,,,,,,,,,,,cafeteria6.jpg,space,1.92054,[-0.6139697265625],[-0.3174072265625],[1],[0],[0],[1.5457100000003265],"[""trial_sharp_left_box""]",0,35,35,16,1,basement.jpg,breakroom2.jpg,campusquad4.jpg,barbershop2.jpg,,
Image_List_2,,,,,,,,,,,,,,,,44288,2020-11-24_19h23.15.569,lingCatScenes,2020.1.3,MacIntel,60,"[1280,800]",,,"[""trial_sharp_left_box""]",,,,,,,,,,,,bowlingalley3.jpg,space,3.88684,[-0.601875],[-0.3048388671875],[1],[0],[0],[3.6469999999999345],"[""trial_sharp_left_box""]",0,36,36,13,1,balconyIN2.jpg,beach2.jpg,boardwalk4.jpg,backyard6.jpg,,
Image_List_2,,,,,,,,,,,,,,,,44288,2020-11-24_19h23.15.569,lingCatScenes,2020.1.3,MacIntel,60,"[1280,800]",,,"[""trial_slight_right_box""]",,,,,,,,,,,,desertvegetation3.jpg,space,5.501895,[0.17623046875],[-0.295849609375],[1],[0],[0],[5.3153299999995625],"[""trial_slight_right_box""]",0,37,37,30,1,courthouse1.jpg,clothingstore2.jpg,copyroom2.jpg,bus_shelter3.jpg,,
Image_List_2,,,,,,,,,,,,,,,,44288,2020-11-24_19h23.15.569,lingCatScenes,2020.1.3,MacIntel,60,"[1280,800]",,,"[""trial_left_box""]",,,,,,,,,,,,jail1.jpg,space,1.796925,[-0.3867236328125],[-0.3009423828125],[1],[0],[0],[1.5939650000000256],"[""trial_left_box""]",0,38,38,57,1,hayfield5.jpg,hallway4.jpg,hut5.jpg,gazebo.jpg,,
Image_List_2,,,,,,,,,,,,,,,,44288,2020-11-24_19h23.15.569,lingCatScenes,2020.1.3,MacIntel,60,"[1280,800]",,,"[""trial_ahead_box""]",,,,,,,,,,,,firestation3.jpg,space,3.715315,[0.004140625],[-0.299091796875],[1],[0],[0],[3.4797300000000178],"[""trial_ahead_box""]",0,39,39,42,1,exerciseequipment3.jpg,drymountains6.jpg,farm4.jpg,desertvegetation2.jpg,,
Image_List_2,,,,,,,,,,,,,,,,44288,2020-11-24_19h23.15.569,lingCatScenes,2020.1.3,MacIntel,60,"[1280,800]",,,"[""trial_left_box"",""trial_right_box""]",,,,,,,,,,,,banquetHall2.jpg,space,4.03838,"[-0.4165673828125,0.4154052734375]","[-0.3097607421875,-0.2988037109375]","[1,1]","[0,0]","[0,0]","[2.4472200000000157,3.6973299999998517]","[""trial_left_box"",""trial_right_box""]",0,40,40,6,1,ATM1.jpg,auto_showroom5.jpg,baggageClaim1.jpg,apartmentBuilding3.jpg,,
Image_List_2,,,,,,,,,,,,,,,,44288,2020-11-24_19h23.15.569,lingCatScenes,2020.1.3,MacIntel,60,"[1280,800]",,,"[""trial_right_box""]",,,,,,,,,,,,conference3.jpg,space,3.47967,[0.405478515625],[-0.2966357421875],[1],[0],[0],[3.278900000000249],"[""trial_right_box""]",0,41,41,25,1,campsite7.jpg,church3.jpg,checkoutcounter2.jpg,botanicalGarden4.jpg,,
Image_List_2,,,,,,,,,,,,,,,,44288,2020-11-24_19h23.15.569,lingCatScenes,2020.1.3,MacIntel,60,"[1280,800]",,,"[""trial_slight_right_box""]",,,,,,,,,,,,volleyballcourt4.jpg,space,3.554705,[0.2026220703125],[-0.2996044921875],[1],[0],[0],[3.2795149999992645],"[""trial_slight_right_box""]",0,42,42,93,1,tollbooth8.jpg,staircase4.jpg,warehouseoutside2.jpg,tenniscourt.jpg,,
Image_List_2,,,,,,,,,,,,,,,,44288,2020-11-24_19h23.15.569,lingCatScenes,2020.1.3,MacIntel,60,"[1280,800]",,,"[""trial_ahead_box""]",,,,,,,,,,,,cornfield4.jpg,space,1.79869,[0.0010498046875],[-0.31515625],[1],[0],[0],[1.5109650000003967],"[""trial_ahead_box""]",0,43,43,26,1,campusquad2.jpg,church4.jpg,churchInside3.jpg,botanicalGarden7.jpg,,
Image_List_2,,,,,,,,,,,,,,,,44288,2020-11-24_19h23.15.569,lingCatScenes,2020.1.3,MacIntel,60,"[1280,800]",,,"[""trial_right_box"",""trial_left_box""]",,,,,,,,,,,,bedroom6.jpg,space,4.91513,"[0.4085791015625,-0.3863330078125]","[-0.3048681640625,-0.3249658203125]","[1,1]","[0,0]","[0,0]","[2.86229000000003,4.480265000000145]","[""trial_right_box"",""trial_left_box""]",0,44,44,12,1,baggageClaim4.jpg,bambooforest5.jpg,bleachers7.jpg,backyard5.jpg,,
Image_List_2,,,,,,,,,,,,,,,,44288,2020-11-24_19h23.15.569,lingCatScenes,2020.1.3,MacIntel,60,"[1280,800]",,,"[""trial_right_box""]",,,,,,,,,,,,playroom4.jpg,space,2.314285,[0.39359375],[-0.2806884765625],[1],[0],[0],[1.962359999999535],"[""trial_right_box""]",0,45,45,76,1,parkinggarage.jpg,parkinggarage3.jpg,park2.jpg,lookout4.jpg,,
Image_List_2,,,,,,,,,,,,,,,,44288,2020-11-24_19h23.15.569,lingCatScenes,2020.1.3,MacIntel,60,"[1280,800]",,,"[""trial_left_box"",""trial_right_box""]",,,,,,,,,,,,diningroom5.jpg,space,4.00833,"[-0.4152587890625,0.4248046875]","[-0.311845703125,-0.3066748046875]","[1,1]","[0,0]","[0,0]","[2.330025000000205,3.680560000000696]","[""trial_left_box"",""trial_right_box""]",0,46,46,34,1,deck4.jpg,courthouse4.jpg,diner11.jpg,campusquad1.jpg,,
Image_List_2,,,,,,,,,,,,,,,,44288,2020-11-24_19h23.15.569,lingCatScenes,2020.1.3,MacIntel,60,"[1280,800]",,,"[""trial_slight_right_box""]",,,,,,,,,,,,gasstation8.jpg,space,2.010405,[0.2117626953125],[-0.3065625],[1],[0],[0],[1.775290000000382],"[""trial_slight_right_box""]",0,47,47,47,1,frontDoor.jpg,firestation4.jpg,fountain7.jpg,elevatorOutside2.jpg,,
Image_List_2,,,,,,,,,,,,,,,,44288,2020-11-24_19h23.15.569,lingCatScenes,2020.1.3,MacIntel,60,"[1280,800]",,,"[""trial_slight_right_box""]",,,,,,,,,,,,church6.jpg,space,2.484535,[0.1891064453125],[-0.3105615234375],[1],[0],[0],[2.279634999999871],"[""trial_slight_right_box""]",0,48,48,22,1,bowlingalley5.jpg,cargo5.jpg,cemetery.jpg,bistrooutdoor6.jpg,,
Image_List_2,,,,,,,,,,,,,,,,44288,2020-11-24_19h23.15.569,lingCatScenes,2020.1.3,MacIntel,60,"[1280,800]",,,"[""trial_left_box""]",,,,,,,,,,,,attic1.jpg,space,4.38583,[-0.3775732421875],[-0.30349609375],[1],[0],[0],[4.082059999999842],"[""trial_left_box""]",0,49,49,3,1,apartmentBuilding2.jpg,aquarium1.jpg,appleorchard2.jpg,alley3.jpg,,
Image_List_2,,,,,,,,,,,,,,,,44288,2020-11-24_19h23.15.569,lingCatScenes,2020.1.3,MacIntel,60,"[1280,800]",,,"[""trial_slight_left_box""]",,,,,,,,,,,,forestpath10.jpg,space,1.89578,[-0.190478515625],[-0.3080712890625],[1],[0],[0],[1.6280649999998786],"[""trial_slight_left_box""]",0,50,50,43,1,exerciseequipment5.jpg,dugout2.jpg,foodcourt.jpg,diningroom3.jpg,,
Image_List_2,,,,,,,,,,,,,,,,44288,2020-11-24_19h23.15.569,lingCatScenes,2020.1.3,MacIntel,60,"[1280,800]",,,"[""trial_ahead_box""]",,,,,,,,,,,,park7.jpg,space,1.96519,[-0.0080810546875],[-0.3064111328125],[1],[0],[0],[1.6280649999998786],"[""trial_ahead_box""]",0,51,51,67,1,library_aisle3.jpg,laundromat4.jpg,liquorstore2.jpg,hospitalroom2.jpg,,
Image_List_2,,,,,,,,,,,,,,,,44288,2020-11-24_19h23.15.569,lingCatScenes,2020.1.3,MacIntel,60,"[1280,800]",,,"[""trial_ahead_box"",""trial_right_box"",""trial_left_box""]",,,,,,,,,,,,playground6.jpg,space,4.3643,"[-0.0080810546875,0.4096630859375,-0.38810546875]","[-0.3064111328125,-0.3062255859375,-0.295732421875]","[1,1,1]","[0,0,0]","[0,0,0]","[1.3956150000003618,2.262174999999843,3.4632449999999153]","[""trial_ahead_box"",""trial_right_box"",""trial_left_box""]",0,52,52,75,1,pantry5.jpg,operatingroom4.jpg,park.jpg,lockerroom.jpg,,
Image_List_2,,,,,,,,,,,,,,,,44288,2020-11-24_19h23.15.569,lingCatScenes,2020.1.3,MacIntel,60,"[1280,800]",,,"[""trial_ahead_box"",""trial_right_box"",""trial_left_box""]",,,,,,,,,,,,church8.jpg,space,4.88357,"[-0.0017919921875,0.4047900390625,-0.3750244140625]","[-0.2887060546875,-0.3048828125,-0.3141552734375]","[1,1,1]","[0,0,0]","[0,0,0]","[1.5284449999999197,3.0790649999999005,4.579824999999801]","[""trial_ahead_box"",""trial_right_box"",""trial_left_box""]",0,53,53,23,1,bus_shelter.jpg,carmechanic4.jpeg,cemetery3.jpg,bleachers6.jpg,,
Image_List_2,,,,,,,,,,,,,,,,44288,2020-11-24_19h23.15.569,lingCatScenes,2020.1.3,MacIntel,60,"[1280,800]",,,"[""trial_slight_right_box"",""trial_sharp_left_box""]",,,,,,,,,,,,homeoffice.jpg,space,5.496455,"[0.0042041015625,0.0036279296875,0.21740234375,-0.58560546875]","[-0.3134521484375,-0.31515625,-0.3077587890625,-0.2971044921875]","[1,1,1,1]","[0,0,0,0]","[0,0,0,0]","[1.2607049999996889,2.527965000000222,4.411989999999605,5.246180000000095]","[""trial_ahead_box"",""trial_ahead_box"",""trial_slight_right_box"",""trial_sharp_left_box""]",0,54,54,53,1,gazebo3.jpg,frontLawn3.jpg,homegarage3.jpg,fountain.jpg,,
Image_List_2,,,,,,,,,,,,,,,,44288,2020-11-24_19h23.15.569,lingCatScenes,2020.1.3,MacIntel,60,"[1280,800]",,,"[""trial_right_box"",""trial_left_box""]",,,,,,,,,,,,diningroom1.jpg,space,4.23095,"[0.394169921875,-0.4195166015625]","[-0.2964404296875,-0.30865234375]","[1,1]","[0,0]","[0,0]","[2.7957049999995434,4.046494999999595]","[""trial_right_box"",""trial_left_box""]",0,55,55,33,1,deck1.jpg,courthouse2.jpg,diner10.jpg,cabinIndoors5.jpg,,
Image_List_2,,,,,,,,,,,,,,,,44288,2020-11-24_19h23.15.569,lingCatScenes,2020.1.3,MacIntel,60,"[1280,800]",,,"[""trial_ahead_box"",""trial_right_box""]",,,,,,,,,,,,playground10.jpg,space,3.49937,"[-0.014580078125,0.39412109375]","[-0.3012646484375,-0.3061474609375]","[1,1]","[0,0]","[0,0]","[1.6788100000003396,2.734639999999672]","[""trial_ahead_box"",""trial_right_box""]",0,56,56,74,1,newsstand2.jpg,observatory4.jpeg,operatingroom1.jpg,lightingstore2.jpg,,
Image_List_2,,,,,,,,,,,,,,,,44288,2020-11-24_19h23.15.569,lingCatScenes,2020.1.3,MacIntel,60,"[1280,800]",,,[],,,,,,,,,,,,banquetHall4.jpg,space,2.049995,[-0.3814501953125],[-0.3261474609375],[1],[0],[0],[1.7974700000004304],[],0,57,57,7,1,attic2.jpg,backstage1.jpg,baggageClaim3.jpg,applestore2.jpg,,
Image_List_2,,,,,,,,,,,,,,,,44288,2020-11-24_19h23.15.569,lingCatScenes,2020.1.3,MacIntel,60,"[1280,800]",,,"[""trial_ahead_box""]",,,,,,,,,,,,newsstand7.jpg,space,2.717995,[-0.0124755859375],[-0.299365234375],[1],[0],[0],[2.1614849999996295],"[""trial_ahead_box""]",0,58,58,65,1,igloo5.jpg,laundromat2.jpeg,labClass7.jpg,homeoffice8.jpg,,
Image_List_2,,,,,,,,,,,,,,,,44288,2020-11-24_19h23.15.569,lingCatScenes,2020.1.3,MacIntel,60,"[1280,800]",,,"[""trial_slight_right_box""]",,,,,,,,,,,,hallway5.jpg,space,6.90097,[0.202021484375],[-0.3105029296875],[1],[0],[0],[6.581900000000132],"[""trial_slight_right_box""]",0,59,59,51,1,gasstation6.jpg,frontDoor5.jpg,hayfield4.jpg,firestation5.jpg,,
Image_List_2,,,,,,,,,,,,,,,,44288,2020-11-24_19h23.15.569,lingCatScenes,2020.1.3,MacIntel,60,"[1280,800]",,,"[""trial_left_box"",""trial_sharp_right_box""]",,,,,,,,,,,,office3.jpg,space,4.168665,"[-0.4025390625,0.5904248046875]","[-0.3168505859375,-0.2975]","[1,1]","[0,0]","[0,0]","[2.0291699999997945,3.8296950000003562]","[""trial_left_box"",""trial_sharp_right_box""]",0,60,60,66,1,library_aisle10.jpg,laundromat3.jpg,liquorstore.jpg,horsebarn9.jpg,,
Image_List_2,,,,,,,,,,,,,,,,44288,2020-11-24_19h23.15.569,lingCatScenes,2020.1.3,MacIntel,60,"[1280,800]",,,"[""trial_sharp_left_box""]",,,,,,,,,,,,wineVineyard2.jpg,space,3.21412,[-0.5895361328125],[-0.3074267578125],[1],[0],[0],[2.9786050000002433],"[""trial_sharp_left_box""]",0,61,61,97,1,warehouseoutside4.jpg,waitingroom4.jpg,winebarrel3.jpg,warehouseoutside3.jpg,,
Image_List_2,,,,,,,,,,,,,,,,44288,2020-11-24_19h23.15.569,lingCatScenes,2020.1.3,MacIntel,60,"[1280,800]",,,"[""trial_ahead_box""]",,,,,,,,,,,,desertvegetation6.jpg,space,1.934025,[0.0072119140625],[-0.3148974609375],[1],[0],[0],[1.728235000000609],"[""trial_ahead_box""]",0,62,62,31,1,cubicle4.jpg,conference4.jpg,courtroom2.jpg,cabin3.jpg,,
Image_List_2,,,,,,,,,,,,,,,,44288,2020-11-24_19h23.15.569,lingCatScenes,2020.1.3,MacIntel,60,"[1280,800]",,,"[""trial_left_box""]",,,,,,,,,,,,breakroom5.jpg,space,1.585205,[-0.394521484375],[-0.312607421875],[1],[0],[0],[1.3135449999999764],"[""trial_left_box""]",0,63,63,14,1,ballroom1.jpg,bistrooutdoor5.jpg,botanicalGarden5.jpg,ballroom3.jpg,,
Image_List_2,,,,,,,,,,,,,,,,44288,2020-11-24_19h23.15.569,lingCatScenes,2020.1.3,MacIntel,60,"[1280,800]",,,"[""trial_ahead_box""]",,,,,,,,,,,,bambooforest.jpg,space,3.386845,[-0.012724609375],[-0.308037109375],[1],[0],[0],[2.7794800000001487],"[""trial_ahead_box""]",0,64,64,5,1,artStudio3.jpg,auto_showroom4.jpg,attic4.jpg,amusement3.jpg,,
Image_List_2,,,,,,,,,,,,,,,,44288,2020-11-24_19h23.15.569,lingCatScenes,2020.1.3,MacIntel,60,"[1280,800]",,,"[""trial_slight_right_box""]",,,,,,,,,,,,hardwarestore1.jpg,space,3.01494,[0.1900732421875],[-0.3143505859375],[1],[0],[0],[2.562115000000631],"[""trial_slight_right_box""]",0,65,65,52,1,gasstation7.jpg,frontFoyer6.jpg,highway.jpg,forestpath2.jpg,,
Image_List_2,,,,,,,,,,,,,,,,44288,2020-11-24_19h23.15.569,lingCatScenes,2020.1.3,MacIntel,60,"[1280,800]",,,"[""trial_left_box"",""trial_right_box"",""trial_sharp_right_box""]",,,,,,,,,,,,deck2.jpg,space,7.239385,"[-0.404677734375,0.4285595703125,0.404130859375,0.5982958984375]","[-0.319677734375,-0.3023486328125,-0.3063134765625,-0.29599609375]","[1,1,1,1]","[0,0,0,0]","[0,0,0,0]","[1.6979350000001432,3.1652350000003935,3.748055000000022,7.01702499999999]","[""trial_left_box"",""trial_right_box"",""trial_sharp_right_box""]",0,66,66,29,1,cornfield2.jpg,cliff2.jpg,constructionSite4.jpg,bridalboutique3.jpg,,
Image_List_2,,,,,,,,,,,,,,,,44288,2020-11-24_19h23.15.569,lingCatScenes,2020.1.3,MacIntel,60,"[1280,800]",,,"[""trial_ahead_box""]",,,,,,,,,,,,sidewalk5.jpg,space,3.64893,[-0.020576171875],[-0.3138037109375],[1],[0],[0],[3.3646800000005896],"[""trial_ahead_box""]",0,67,67,85,1,recordingstudio4.jpg,ruralroad2.jpg,sandDunes_desert_outdoor3.jpg,rooftop3.jpg,,
Image_List_2,,,,,,,,,,,,,,,,44288,2020-11-24_19h23.15.569,lingCatScenes,2020.1.3,MacIntel,60,"[1280,800]",,,"[""trial_left_box"",""trial_sharp_right_box""]",,,,,,,,,,,,casino1.jpg,space,4.053115,"[-0.4014013671875,0.59779296875]","[-0.3196435546875,-0.3244921875]","[1,1]","[0,0]","[0,0]","[2.9799550000007002,3.799470000000838]","[""trial_left_box"",""trial_sharp_right_box""]",0,68,68,18,1,bleachers5.jpg,brewery4.jpg,castle2.jpg,basement6.jpg,,
Image_List_2,,,,,,,,,,,,,,,,44288,2020-11-24_19h23.15.569,lingCatScenes,2020.1.3,MacIntel,60,"[1280,800]",,,"[""trial_left_box"",""trial_sharp_right_box""]",,,,,,,,,,,,sculpturegarden1.jpg,space,4.63568,"[-0.4191796875,0.5870458984375]","[-0.2987939453125,-0.2968212890625]","[1,1]","[0,0]","[0,0]","[3.2624699999996665,4.479295000000093]","[""trial_left_box"",""trial_sharp_right_box""]",0,69,69,83,1,readingroom1.jpg,promenadeDeck6.jpg,restaurant8.jpg,readingroom2.jpg,,
Image_List_2,,,,,,,,,,,,,,,,44288,2020-11-24_19h23.15.569,lingCatScenes,2020.1.3,MacIntel,60,"[1280,800]",,,"[""trial_ahead_box""]",,,,,,,,,,,,cave.jpg,space,3.216065,"[-0.0065625,-0.372607421875]","[-0.3131689453125,-0.3164697265625]","[1,1]","[0,0]","[0,0]","[1.7619500000000698,2.7982449999999517]","[""trial_ahead_box""]",0,70,70,20,1,boardwalk6.jpg,campsite3.jpg,cave4.jpg,basketballcourt7.jpg,,
Image_List_2,,,,,,,,,,,,,,,,44288,2020-11-24_19h23.15.569,lingCatScenes,2020.1.3,MacIntel,60,"[1280,800]",,,"[""trial_ahead_box"",""trial_left_box"",""trial_right_box""]",,,,,,,,,,,,sandDunes_desert_outdoor9.jpg,space,3.731585,"[-0.01548828125,-0.3996484375,0.4072265625]","[-0.278818359375,-0.2944580078125,-0.2993994140625]","[1,1,1]","[0,0,0]","[0,0,0]","[1.4798100000007253,2.479275000000598,3.397145000000819]","[""trial_ahead_box"",""trial_left_box"",""trial_right_box""]",0,71,71,82,1,publicrestroom2.jpg,promenadeDeck3.jpg,readingroom4.jpg,postoffice4.jpg,,
Image_List_2,,,,,,,,,,,,,,,,44288,2020-11-24_19h23.15.569,lingCatScenes,2020.1.3,MacIntel,60,"[1280,800]",,,"[""trial_slight_left_box""]",,,,,,,,,,,,minigolf.jpg,space,4.197555,[-0.210126953125],[-0.295146484375],[1],[0],[0],[3.996245000000272],"[""trial_slight_left_box""]",0,72,72,62,1,hotellobby2.jpg,horsebarn8.jpg,lab3.jpg,hayfield7.jpg,,
Image_List_2,,,,,,,,,,,,,,,,44288,2020-11-24_19h23.15.569,lingCatScenes,2020.1.3,MacIntel,60,"[1280,800]",,,"[""trial_slight_right_box""]",,,,,,,,,,,,poolhall2.jpeg,space,1.74815,[0.2093310546875],[-0.3001708984375],[1],[0],[0],[1.5963599999995495],"[""trial_slight_right_box""]",0,73,73,79,1,pasture.jpg,playground9.jpg,pier2.jpg,observatory2.jpg,,
Image_List_2,,,,,,,,,,,,,,,,44288,2020-11-24_19h23.15.569,lingCatScenes,2020.1.3,MacIntel,60,"[1280,800]",,,"[""trial_ahead_box""]",,,,,,,,,,,,sidewalk2.jpg,space,1.47974,[-0.0045166015625],[-0.297021484375],[1],[0],[0],[1.194840000000113],"[""trial_ahead_box""]",0,74,74,84,1,readingroom5.jpg,restaurant13.jpg,sandDunes_desert_outdoor.jpg,rooftop2.jpg,,
Image_List_2,,,,,,,,,,,,,,,,44288,2020-11-24_19h23.15.569,lingCatScenes,2020.1.3,MacIntel,60,"[1280,800]",,,"[""trial_ahead_box""]",,,,,,,,,,,,dormroom9.jpg,space,0.9637,[-0.0045166015625],[-0.297021484375],[1],[0],[0],[0.7614000000003216],"[""trial_ahead_box""]",0,75,75,36,1,diner14.jpg,dining_car3.jpg,doctor1.jpg,checkoutcounter9.jpg,,
Image_List_2,,,,,,,,,,,,,,,,44288,2020-11-24_19h23.15.569,lingCatScenes,2020.1.3,MacIntel,60,"[1280,800]",,,"[""trial_ahead_box"",""trial_right_box"",""trial_left_box""]",,,,,,,,,,,,volleyballcourt.jpg,space,3.348245,"[-0.0045166015625,0.38349609375,-0.402529296875]","[-0.297021484375,-0.306259765625,-0.2939501953125]","[1,1,1]","[0,0,0]","[0,0,0]","[0.9130150000000867,2.145379999999932,3.179305000000568]","[""trial_ahead_box"",""trial_right_box"",""trial_left_box""]",0,76,76,92,1,staircase.jpg,skatepark7.jpg,tvstudio2.jpg,soccerfield2.jpg,,
Image_List_2,,,,,,,,,,,,,,,,44288,2020-11-24_19h23.15.569,lingCatScenes,2020.1.3,MacIntel,60,"[1280,800]",,,"[""trial_slight_left_box""]",,,,,,,,,,,,library_aisle8.jpg,space,1.73026,[-0.2082861328125],[-0.312158203125],[1],[0],[0],[1.528690000000097],"[""trial_slight_left_box""]",0,77,77,59,1,homegarden7.jpg,highway4.jpg,kindergarten_classroom5.jpg,grocerystore3.jpg,,
Image_List_2,,,,,,,,,,,,,,,,44288,2020-11-24_19h23.15.569,lingCatScenes,2020.1.3,MacIntel,60,"[1280,800]",,,"[""trial_ahead_box""]",,,,,,,,,,,,apartmentBuilding1.jpg,space,1.39636,[0.0134814453125],[-0.2987841796875],[1],[0],[0],[1.2283749999996871],"[""trial_ahead_box""]",0,78,78,1,1,airportTerminal4.jpg,applestore1.jpg,airportTerminal3.jpg,airportTerminal2.jpg,,
Image_List_2,,,,,,,,,,,,,,,,44288,2020-11-24_19h23.15.569,lingCatScenes,2020.1.3,MacIntel,60,"[1280,800]",,,"[""trial_slight_left_box""]",,,,,,,,,,,,yogastudio4.jpg,space,1.88249,[-0.2248388671875],[-0.2999951171875],[1],[0],[0],[1.6133300000001327],"[""trial_slight_left_box""]",0,79,79,99,1,wineVineyard9.jpg,windmill2.jpg,wrestlingring7.jpg,yogastudio1.jpg,,
Image_List_2,,,,,,,,,,,,,,,,44288,2020-11-24_19h23.15.569,lingCatScenes,2020.1.3,MacIntel,60,"[1280,800]",,,"[""trial_slight_right_box""]",,,,,,,,,,,,stripmall.jpg,space,2.32107,[0.2120556640625],[-0.302333984375],[1],[0],[0],[2.0809500000004846],"[""trial_slight_right_box""]",0,80,80,86,1,restaurant14.jpg,ruralroad3.jpg,sandDunes_desert_outdoor8.jpg,rooftop4.jpg,,
Image_List_2,,,,,,,,,,,,,,,,44288,2020-11-24_19h23.15.569,lingCatScenes,2020.1.3,MacIntel,60,"[1280,800]",,,"[""trial_slight_left_box""]",,,,,,,,,,,,lab1.jpg,space,1.84703,[-0.2196435546875],[-0.3067333984375],[1],[0],[0],[1.5781150000002526],"[""trial_slight_left_box""]",0,81,81,58,1,highway7.jpg,hedgemaze1.jpg,igloo4.jpg,grocerystore2.jpg,,
Image_List_2,,,,,,,,,,,,,,,,44288,2020-11-24_19h23.15.569,lingCatScenes,2020.1.3,MacIntel,60,"[1280,800]",,,"[""trial_ahead_box"",""trial_right_box"",""trial_left_box""]",,,,,,,,,,,,warehouseoutside1.jpg,space,7.55918,"[0.0001806640625,0.2141650390625,0.417001953125,0.207626953125,-0.3831689453125]","[-0.2974755859375,-0.2971484375,-0.287177734375,-0.2974560546875,-0.290546875]","[1,1,1,1,1]","[0,0,0,0,0]","[0,0,0,0,0]","[2.8634799999999814,3.7298899999995,5.047690000000216,5.565139999999587,7.365845000000149]","[""trial_ahead_box"",""trial_slight_right_box"",""trial_right_box"",""trial_slight_right_box"",""trial_left_box""]",0,82,82,96,1,warehouse4.jpg,tenniscourt3.jpg,windmill1.jpg,warehouse1.jpg,,
Image_List_2,,,,,,,,,,,,,,,,44288,2020-11-24_19h23.15.569,lingCatScenes,2020.1.3,MacIntel,60,"[1280,800]",,,"[""trial_ahead_box"",""trial_right_box"",""trial_left_box""]",,,,,,,,,,,,banquetHall6.jpg,space,7.61817,"[-0.00615234375,0.3978564453125,-0.4147705078125]","[-0.2965234375,-0.3182958984375,-0.2949609375]","[1,1,1]","[0,0,0]","[0,0,0]","[1.5287949999992634,5.762369999999464,7.430254999999306]","[""trial_ahead_box"",""trial_right_box"",""trial_left_box""]",0,83,83,8,1,attic3.jpg,balconyIN.jpg,bar.jpg,applestore4.jpg,,
Image_List_2,,,,,,,,,,,,,,,,44288,2020-11-24_19h23.15.569,lingCatScenes,2020.1.3,MacIntel,60,"[1280,800]",,,"[""trial_sharp_left_box"",""trial_sharp_right_box""]",,,,,,,,,,,,courtroom3.jpg,space,5.028995,"[-0.6221337890625,0.619423828125]","[-0.2996728515625,-0.2944873046875]","[1,1]","[0,0]","[0,0]","[3.1609499999995023,4.728505000000041]","[""trial_sharp_left_box"",""trial_sharp_right_box""]",0,84,84,27,1,castle3.jpg,churchInside4.jpg,closet.jpg,brewery2.jpg,,
Image_List_2,,,,,,,,,,,,,,,,44288,2020-11-24_19h23.15.569,lingCatScenes,2020.1.3,MacIntel,60,"[1280,800]",,,"[""trial_sharp_left_box"",""trial_sharp_right_box""]",,,,,,,,,,,,bar2.jpg,space,3.1494,"[-0.5804931640625,0.5962353515625]","[-0.2939697265625,-0.293056640625]","[1,1]","[0,0]","[0,0]","[1.6787450000002764,2.7792550000004894]","[""trial_sharp_left_box"",""trial_sharp_right_box""]",0,85,85,9,1,auto_showroom3.jpg,ballroom2.jpg,basement5.jpg,arcade2.jpg,,
Image_List_2,,,,,,,,,,,,,,,,44288,2020-11-24_19h23.15.569,lingCatScenes,2020.1.3,MacIntel,60,"[1280,800]",,,"[""trial_ahead_box""]",,,,,,,,,,,,lightingstore3.jpg,space,2.403215,"[-0.00244140625,0.0059765625]","[-0.3288818359375,-0.31263671875]","[1,1]","[0,0]","[0,0]","[1.3643350000002101,2.066000000000713]","[""trial_ahead_box""]",0,86,86,60,1,hometheater2.jpg,homegarage.jpg,kindergarten_classroom6.jpg,hallway.jpg,,
Image_List_2,,,,,,,,,,,,,,,,44288,2020-11-24_19h23.15.569,lingCatScenes,2020.1.3,MacIntel,60,"[1280,800]",,,"[""trial_ahead_box""]",,,,,,,,,,,,elevatorOutside4.jpg,space,0.948905,[0.007109375],[-0.3106201171875],[1],[0],[0],[0.7950300000002244],"[""trial_ahead_box""]",0,87,87,38,1,dining_car2.jpg,dock1.jpg,driveway8.jpg,classroom1.jpg,,
Image_List_2,,,,,,,,,,,,,,,,44288,2020-11-24_19h23.15.569,lingCatScenes,2020.1.3,MacIntel,60,"[1280,800]",,,"[""trial_left_box"",""trial_sharp_right_box""]",,,,,,,,,,,,newsstand5.jpg,space,4.514325,"[-0.3853662109375,0.5828076171875]","[-0.3056103515625,-0.2852099609375]","[1,1]","[0,0]","[0,0]","[2.2127950000003693,4.098095000000285]","[""trial_left_box"",""trial_sharp_right_box""]",0,88,88,64,1,igloo2.jpg,jewelrystore8.jpg,lab5.jpg,homegarage2.jpg,,
Image_List_2,,,,,,,,,,,,,,,,44288,2020-11-24_19h23.15.569,lingCatScenes,2020.1.3,MacIntel,60,"[1280,800]",,,"[""trial_sharp_left_box""]",,,,,,,,,,,,casino3.jpg,space,3.68349,[-0.597578125],[-0.298642578125],[1],[0],[0],[2.9619699999993827],"[""trial_sharp_left_box""]",0,89,89,19,1,boardwalk2.jpg,cafeteria1.jpg,castle4.jpg,basketballcourt.jpg,,
Image_List_2,,,,,,,,,,,,,,,,44288,2020-11-24_19h23.15.569,lingCatScenes,2020.1.3,MacIntel,60,"[1280,800]",,,[],,,,,,,,,,,,frontFoyer4.jpg,space,1.847345,[0.226748046875],[-0.3099755859375],[1],[0],[0],[1.595249999999396],[],0,90,90,44,1,firestation2.jpg,elevatorOutside1.jpg,foodcourt6.jpg,dock2.jpg,,
Image_List_2,,,,,,,,,,,,,,,,44288,2020-11-24_19h23.15.569,lingCatScenes,2020.1.3,MacIntel,60,"[1280,800]",,,"[""trial_ahead_box""]",,,,,,,,,,,,theater2.jpg,space,1.717775,[0.0001318359375],[-0.2938037109375],[1],[0],[0],[1.330420000000231],"[""trial_ahead_box""]",0,91,91,87,1,restaurantkitchen2.jpg,savanna.jpg,sculpturegarden2.jpg,RVinside2.jpg,,
Image_List_2,,,,,,,,,,,,,,,,44288,2020-11-24_19h23.15.569,lingCatScenes,2020.1.3,MacIntel,60,"[1280,800]",,,"[""trial_right_box""]",,,,,,,,,,,,poolhall1.jpg,space,2.37048,[0.4125390625],[-0.3083154296875],[1],[0],[0],[1.4303499999996347],"[""trial_right_box""]",0,92,92,78,1,parkinglot3.jpg,pier5.jpg,pavilion3.jpg,observatory1.jpg,,
Image_List_2,,,,,,,,,,,,,,,,44288,2020-11-24_19h23.15.569,lingCatScenes,2020.1.3,MacIntel,60,"[1280,800]",,,"[""trial_ahead_box""]",,,,,,,,,,,,track.jpg,space,3.29815,[-0.0075830078125],[-0.301728515625],[1],[0],[0],[2.629979999999705],"[""trial_ahead_box""]",0,93,93,88,1,rooftop1.jpg,sculpturegarden4.jpg,soccerfield.jpg,sandbox.jpg,,
Image_List_2,,,,,,,,,,,,,,,,44288,2020-11-24_19h23.15.569,lingCatScenes,2020.1.3,MacIntel,60,"[1280,800]",,,"[""trial_ahead_box""]",,,,,,,,,,,,racecarcourse2.jpg,space,6.217745,[-0.0075830078125],[-0.301728515625],[1],[0],[0],[5.581054999999651],"[""trial_ahead_box""]",0,94,94,80,1,pavilion2.jpg,porch.jpg,poolhall5.jpg,parkinggarage4.jpg,,
Image_List_2,,,,,,,,,,,,,,,,44288,2020-11-24_19h23.15.569,lingCatScenes,2020.1.3,MacIntel,60,"[1280,800]",,,"[""trial_ahead_box"",""trial_slight_left_box""]",,,,,,,,,,,,farm1.jpg,space,9.76963,"[-0.0075830078125,0.4259814453125,-0.405537109375,-0.4155810546875,-0.1938671875]","[-0.301728515625,-0.3063037109375,-0.29056640625,-0.28337890625,-0.2938427734375]","[1,1,1,1,1]","[0,0,0,0,0]","[0,0,0,0,0]","[1.1306800000002113,2.215044999999918,3.6318449999998847,7.816569999999956,9.434624999999869]","[""trial_ahead_box"",""trial_left_box"",""trial_left_box"",""trial_slight_left_box""]",0,95,95,40,1,drycleaners4.jpg,drymountains.jpg,dugout1.jpg,clothingstore3.jpg,,
Image_List_2,,,,,,,,,,,,,,,,44288,2020-11-24_19h23.15.569,lingCatScenes,2020.1.3,MacIntel,60,"[1280,800]",,,"[""trial_ahead_box""]",,,,,,,,,,,,playroom6.jpg,space,4.74876,[-0.0196875],[-0.294482421875],[1],[0],[0],[4.262620000000425],"[""trial_ahead_box""]",0,96,96,77,1,parkinggarage2.jpg,pasture9.jpg,park8.jpg,mallindoor6.jpg,,
Image_List_2,,,,,,,,,,,,,,,,44288,2020-11-24_19h23.15.569,lingCatScenes,2020.1.3,MacIntel,60,"[1280,800]",,,"[""trial_ahead_box""]",,,,,,,,,,,,metroInside4.jpg,space,1.54817,[-0.007314453125],[-0.317099609375],[1],[0],[0],[1.3127450000001772],"[""trial_ahead_box""]",0,97,97,61,1,HorseRaceTrack.jpg,homegarden6.jpg,kindergarten_classroom7.jpg,hayfield6.jpg,,
Image_List_2,,,,,,,,,,,,,,,,44288,2020-11-24_19h23.15.569,lingCatScenes,2020.1.3,MacIntel,60,"[1280,800]",,,"[""trial_sharp_right_box"",""trial_slight_left_box"",""trial_left_box""]",,,,,,,,,,,,museum6.jpg,space,8.75357,"[-0.2254345703125,0.6169677734375,-0.1982763671875,-0.3887255859375]","[-0.3104638671875,-0.2973779296875,-0.3024755859375,-0.29267578125]","[1,1,1,1]","[0,0,0,0]","[0,0,0,0]","[1.8626899999999296,3.0291550000001735,4.24690499999997,7.11509500000011]","[""trial_sharp_right_box"",""trial_slight_left_box"",""trial_left_box""]",0,98,98,63,1,hut2.jpg,hotelRoom2.jpg,lab4.jpg,highway2.jpg,,
Image_List_2,,,,,,,,,,,,,,,,44288,2020-11-24_19h23.15.569,lingCatScenes,2020.1.3,MacIntel,60,"[1280,800]",,,"[""trial_right_box""]",,,,,,,,,,,,trainStation5.jpg,space,4.0832,"[0.364013671875,0.3985986328125]","[-0.2727587890625,-0.2839892578125]","[1,1]","[0,0]","[0,0]","[2.1130999999995765,3.0475399999995716]","[""trial_right_box""]",0,99,99,91,1,shoestore2.jpg,skatepark5.jpg,ticket_counter6.jpg,sidewalk3.jpg,,
Image_List_2,,,,,,,,,,,,,,,,44288,2020-11-24_19h23.15.569,lingCatScenes,2020.1.3,MacIntel,60,,,,,,,,,,,,,,,,,,,,,,,,,,,,,,,,,,,space,28.08343
