image_list,key_resp_intructions.keys,key_resp_intructions.rt,key_resp_intructions_3.keys,key_resp_intructions_3.rt,PracticeComplete_2.keys,PracticeComplete_2.rt,PracticeComplete_3.keys,PracticeComplete_3.rt,demo_trials.thisRepN,demo_trials.thisTrialN,demo_trials.thisN,demo_trials.thisIndex,demo_trials.ran,demo_images,path_images,participant,date,expName,psychopyVersion,OS,frameRate,windowSize,drawing,numDrawings,drawingSizes,practice_complete.keys,practice_complete.rt,PracticeComplete.keys,PracticeComplete.rt,practice_trials.thisRepN,practice_trials.thisTrialN,practice_trials.thisN,practice_trials.thisIndex,practice_trials.ran,practice_images,feedback_images,key_resp_intructions_2.keys,key_resp_intructions_2.rt,Image_List_4,trial_complete.keys,trial_complete.rt,trials.thisRepN,trials.thisTrialN,trials.thisN,trials.thisIndex,trials.ran,Image_List_1,Image_List_2,Image_List_3,Image_List_5,key_resp.keys,key_resp.rt
Image_List_4,space,20.98084,space,4.9991,space,4.25632,space,1.7723,0,0,0,4,1,left.jpg,left_path.jpg,44322,2020-11-20_16h00.42.886,analogCatScenes,2020.1.3,MacIntel,60,,,,,,,,,,,,,,,,,,,,,,,,,,,,,,,
Image_List_4,,,,,space,0.74514,space,0.709505,0,1,1,0,1,ahead.jpg,ahead_path.jpg,44322,2020-11-20_16h00.42.886,analogCatScenes,2020.1.3,MacIntel,60,,,,,,,,,,,,,,,,,,,,,,,,,,,,,,,
Image_List_4,,,,,space,0.39509,space,1.693235,0,2,2,1,1,ahead_left.jpg,ahead_left_path.jpg,44322,2020-11-20_16h00.42.886,analogCatScenes,2020.1.3,MacIntel,60,,,,,,,,,,,,,,,,,,,,,,,,,,,,,,,
Image_List_4,,,,,space,1.000885,space,0.99106,0,3,3,2,1,ahead_right.jpg,ahead_right_path.jpg,44322,2020-11-20_16h00.42.886,analogCatScenes,2020.1.3,MacIntel,60,,,,,,,,,,,,,,,,,,,,,,,,,,,,,,,
Image_List_4,,,,,space,0.5688,space,0.567305,0,4,4,6,1,right_left.jpg,right_left_path.jpg,44322,2020-11-20_16h00.42.886,analogCatScenes,2020.1.3,MacIntel,60,,,,,,,,,,,,,,,,,,,,,,,,,,,,,,,
Image_List_4,,,,,space,1.54894,space,0.866695,0,5,5,5,1,right.jpg,right_path.jpg,44322,2020-11-20_16h00.42.886,analogCatScenes,2020.1.3,MacIntel,60,,,,,,,,,,,,,,,,,,,,,,,,,,,,,,,
Image_List_4,,,,,space,0.61527,space,0.447845,0,6,6,3,1,ahead_right_left.jpg,ahead_right_left_path.jpg,44322,2020-11-20_16h00.42.886,analogCatScenes,2020.1.3,MacIntel,60,,,,,,,,,,,,,,,,,,,,,,,,,,,,,,,
Image_List_4,,,,,,,,,,,,,,,,44322,2020-11-20_16h00.42.886,analogCatScenes,2020.1.3,MacIntel,60,"[1792,1120]","[[[0.003927176339285714,-0.2012939453125],[0.003927176339285714,-0.2012939453125],[0.003927176339285714,-0.2012939453125],[0.003927176339285714,-0.2012939453125],[0.003927176339285714,-0.2012939453125],[0.003927176339285714,-0.2012939453125],[0.003927176339285714,-0.2012939453125],[0.003927176339285714,-0.2012939453125],[0.003927176339285714,-0.2012939453125],[0.003927176339285714,-0.2012939453125],[0.003927176339285714,-0.2012939453125],[0.003927176339285714,-0.2012939453125],[0.003927176339285714,-0.2012939453125],[0.003927176339285714,-0.2012939453125],[0.003927176339285714,-0.2012939453125],[0.003927176339285714,-0.2012939453125],[0.003927176339285714,-0.2012939453125],[0.003927176339285714,-0.2012939453125],[0.003927176339285714,-0.20087890625],[0.003927176339285714,-0.19952566964285715],[0.004202706473214286,-0.19817940848214285],[0.005060686383928571,-0.19612165178571428],[0.0059709821428571425,-0.19368024553571428],[0.0072265625,-0.19083077566964285],[0.008492606026785714,-0.1879603794642857],[0.010285295758928571,-0.18366001674107144],[0.011600167410714285,-0.18031180245535713],[0.013333565848214286,-0.17612653459821428],[0.014700753348214286,-0.17234933035714287],[0.016095842633928572,-0.16815708705357144],[0.01774204799107143,-0.16485770089285715],[0.019928850446428573,-0.15796944754464284],[0.021766880580357143,-0.1531982421875],[0.023277064732142857,-0.14789690290178573],[0.0252197265625,-0.14200265066964285],[0.027176339285714286,-0.13626185825892856],[0.029066685267857145,-0.13096051897321428],[0.031326729910714286,-0.12567313058035715],[0.03357979910714286,-0.12040666852678572],[0.03632114955357143,-0.11493791852678571],[0.03899623325892857,-0.10997837611607143],[0.04159807477678571,-0.10509556361607143],[0.043572126116071426,-0.1021240234375],[0.045608956473214286,-0.09836077008928572],[0.04720284598214286,-0.09549037388392857],[0.04884207589285714,-0.09220145089285714],[0.050408063616071426,-0.08937639508928572],[0.05167410714285714,-0.08650599888392857],[0.05391671316964286,-0.08233119419642858],[0.05482003348214286,-0.07991420200892857],[0.05608607700892857,-0.07704380580357142],[0.057352120535714285,-0.07417340959821428],[0.05909598214285714,-0.07029506138392858],[0.06038643973214286,-0.06742466517857143],[0.062126813616071426,-0.06355329241071428],[0.06440080915178571,-0.05907156808035714],[0.066064453125,-0.05573381696428571],[0.06811174665178571,-0.051956612723214286],[0.07015904017857143,-0.04817940848214286],[0.0718017578125,-0.04488351004464286],[0.07352120535714286,-0.04110630580357143],[0.07516741071428572,-0.037806919642857144],[0.07679617745535715,-0.034542410714285716],[0.078515625,-0.030765206473214287],[0.07986537388392857,-0.02703334263392857],[0.08118373325892857,-0.023733956473214284],[0.08287876674107143,-0.018307059151785713],[0.08353445870535714,-0.015007672991071428],[0.0844970703125,-0.012137276785714286],[0.08512486049107143,-0.009273856026785715],[0.08573172433035714,-0.006832449776785714],[0.08669084821428572,-0.003972516741071429],[0.08734654017857142,-0.0006731305803571429],[0.08835100446428572,0.003065708705357143],[0.08933803013392858,0.006365094866071429],[0.09034946986607142,0.010142299107142858],[0.09140625,0.0143798828125],[0.09241768973214286,0.018153599330357144],[0.09383370535714286,0.022408621651785716],[0.09517299107142857,0.026185825892857142],[0.09681919642857142,0.02948521205357143],[0.09779575892857142,0.03273228236607143],[0.09972098214285714,0.037252371651785715],[0.10064871651785715,0.04010881696428571],[0.10190778459821428,0.04296875],[0.103173828125,0.045839146205357145],[0.1044921875,0.04913853236607143],[0.10547921316964286,0.05243791852678571],[0.10643833705357143,0.0552978515625],[0.10740094866071428,0.058168247767857145],[0.10833565848214285,0.06065499441964286],[0.10924595424107143,0.06309640066964285],[0.11015625,0.06553780691964285],[0.11111886160714286,0.068408203125],[0.11205357142857143,0.07127859933035714],[0.11336844308035714,0.07457449776785714],[0.11430315290178572,0.07744489397321429],[0.11556570870535714,0.08030482700892858],[0.11647600446428572,0.08274623325892858],[0.11766183035714285,0.08602469308035714],[0.11854073660714286,0.08807198660714285],[0.12026018415178572,0.09184919084821429],[0.12152622767857142,0.09471958705357143],[0.12350027901785714,0.09801897321428571],[0.12554757254464285,0.10179617745535714],[0.12719029017857142,0.10509207589285714],[0.1288330078125,0.108056640625],[0.13009207589285715,0.1109130859375],[0.1316859654017857,0.11378348214285715],[0.13289271763392857,0.1162109375],[0.1340576171875,0.11827218191964285],[0.13491908482142856,0.12033342633928572],[0.13575265066964284,0.12201102120535715],[0.13656529017857144,0.1233642578125],[0.13707101004464287,0.12438616071428571],[0.13782784598214284,0.12540108816964285],[0.1383335658482143,0.12642299107142857],[0.1388427734375,0.12744838169642858],[0.13958217075892856,0.12870744977678572],[0.140087890625,0.12972935267857144],[0.1406215122767857,0.13108258928571428],[0.14145856584821428,0.132763671875],[0.14262346540178572,0.13482491629464285],[0.14373953683035715,0.13650599888392856],[0.14490443638392858,0.13856724330357142],[0.14601702008928572,0.14024483816964287],[0.1468540736607143,0.14192592075892857],[0.14796665736607142,0.143603515625],[0.148779296875,0.14495675223214285],[0.1503173828125,0.14710867745535713],[0.15186244419642858,0.14927106584821428],[0.15345284598214284,0.15180315290178573],[0.15541643415178572,0.15442940848214284],[0.15727887834821427,0.15779854910714286],[0.1580810546875,0.15913783482142857],[0.15889369419642857,0.16049107142857144],[0.15970633370535714,0.16184430803571428],[0.16051548549107142,0.16319405691964287],[0.16130022321428572,0.16454031808035716],[0.16236746651785713,0.1658935546875],[0.16315220424107144,0.16724330357142858],[0.16396484375,0.16859654017857142],[0.16472865513392856,0.16962193080357144],[0.1657470703125,0.17039271763392858],[0.16676548549107142,0.17141810825892856],[0.16778390066964285,0.17218889508928573],[0.16854422433035715,0.17321079799107142],[0.16956263950892858,0.17372698102678572],[0.17029854910714284,0.17421526227678572],[0.17075892857142858,0.1746826171875],[0.1712158203125,0.17491280691964287],[0.17167619977678572,0.175146484375],[0.17190638950892856,0.175146484375],[0.17190638950892856,0.175146484375],[0.17190638950892856,0.175146484375],[0.17190638950892856,0.175146484375],[0.17190638950892856,0.175146484375],[0.17190638950892856,0.175146484375],[0.17190638950892856,0.175146484375]],[[0.005353655133928571,-0.19972098214285713],[0.005353655133928571,-0.19972098214285713],[0.005353655133928571,-0.19972098214285713],[0.005353655133928571,-0.19972098214285713],[0.005353655133928571,-0.19972098214285713],[0.005353655133928571,-0.19972098214285713],[0.005353655133928571,-0.19972098214285713],[0.005353655133928571,-0.19972098214285713],[0.005353655133928571,-0.19972098214285713],[0.005353655133928571,-0.19972098214285713],[0.005353655133928571,-0.19972098214285713],[0.005353655133928571,-0.19972098214285713],[0.005353655133928571,-0.19972098214285713],[0.004690987723214286,-0.19765625],[0.002284458705357143,-0.19456612723214287],[-0.0005475725446428571,-0.18849748883928572],[-0.0037806919642857143,-0.1820347377232143],[-0.0077880859375,-0.17401994977678573],[-0.011676897321428572,-0.16669573102678573],[-0.014913504464285715,-0.16022251674107144],[-0.017735072544642856,-0.1541713169642857],[-0.020162527901785715,-0.14769810267857142],[-0.022966657366071428,-0.1380615234375],[-0.02362583705357143,-0.13641531808035715],[-0.02628696986607143,-0.12867257254464284],[-0.028058733258928572,-0.12442801339285714],[-0.02998046875,-0.11907087053571429],[-0.03180454799107143,-0.11428571428571428],[-0.034158761160714285,-0.10839146205357143],[-0.03603864397321429,-0.103125],[-0.037862723214285715,-0.09866768973214286],[-0.03988909040178571,-0.09358607700892857],[-0.04193987165178571,-0.08807198660714285],[-0.044266183035714286,-0.08223702566964286],[-0.04578683035714286,-0.07692173549107142],[-0.04729352678571429,-0.0716552734375],[-0.04891183035714286,-0.06518205915178571],[-0.05057896205357143,-0.058098493303571426],[-0.05178920200892857,-0.05164969308035714],[-0.05294712611607143,-0.04583217075892857],[-0.0544189453125,-0.0388671875],[-0.055496651785714286,-0.034130859375],[-0.057094029017857144,-0.02904575892857143],[-0.05866350446428571,-0.023154994419642857],[-0.059423828125,-0.019276646205357142],[-0.060487583705357145,-0.015035574776785715],[-0.061530412946428574,-0.011261858258928571],[-0.06259765625,-0.0070068359375],[-0.06444266183035714,-0.002207728794642857],[-0.06592843191964286,0.0018380301339285714],[-0.06729910714285714,0.005186244419642857],[-0.06931849888392858,0.01025390625],[-0.07134137834821429,0.015321568080357144],[-0.0732666015625,0.019775390625],[-0.07498604910714286,0.023538643973214285],[-0.07600446428571428,0.027312360491071427],[-0.07794015066964285,0.03183244977678571],[-0.07925502232142857,0.03511439732142857],[-0.08057338169642857,0.03839634486607143],[-0.0822265625,0.04169573102678571],[-0.08434361049107143,0.04596819196428571],[-0.08611886160714285,0.05022321428571429],[-0.08834751674107143,0.05467703683035714],[-0.09093191964285714,0.05908203125],[-0.09253278459821429,0.061948939732142855],[-0.09451381138392857,0.06524832589285715],[-0.09649483816964285,0.06854771205357142],[-0.098095703125,0.07141810825892857],[-0.09968610491071428,0.07393973214285714],[-0.10089634486607142,0.07636021205357142],[-0.10241350446428571,0.07847726004464285],[-0.10353655133928572,0.08015834263392857],[-0.1054443359375,0.0823974609375],[-0.1069580078125,0.084521484375],[-0.10942034040178572,0.08758719308035715],[-0.11165945870535714,0.08949497767857142],[-0.11382184709821429,0.09104701450892858],[-0.11598423549107142,0.09259905133928571],[-0.1186279296875,0.094580078125],[-0.12124720982142857,0.09654366629464285],[-0.12354561941964286,0.09883510044642857],[-0.12578473772321427,0.10074288504464286],[-0.12726353236607144,0.10250069754464286],[-0.12810407366071427,0.10417829241071429],[-0.12889927455357142,0.10553152901785715],[-0.12941545758928572,0.10655691964285714],[-0.12967354910714285,0.10758231026785714],[-0.129931640625,0.10860770089285714],[-0.13047223772321428,0.1099609375],[-0.13103376116071427,0.11163504464285715],[-0.13182896205357142,0.11298828125],[-0.13295549665178572,0.11550990513392857],[-0.13349260602678573,0.11685965401785714],[-0.13426339285714287,0.11788504464285714],[-0.13477957589285713,0.11891043526785715],[-0.13526785714285713,0.1196533203125],[-0.1355015345982143,0.1201171875],[-0.13573521205357142,0.1205810546875],[-0.13596888950892858,0.121044921875],[-0.1362025669642857,0.12127511160714285],[-0.13643624441964286,0.1215087890625],[-0.13643624441964286,0.121728515625],[-0.13665597098214285,0.1219482421875],[-0.13665597098214285,0.1219482421875],[-0.13687220982142856,0.12218191964285714],[-0.13733607700892858,0.122412109375],[-0.13756626674107142,0.12264578683035714],[-0.13803013392857144,0.12310965401785715],[-0.13877650669642858,0.12360142299107142],[-0.13924037388392857,0.12406529017857143],[-0.14052385602678572,0.12560337611607142],[-0.1415980747767857,0.1269566127232143],[-0.1426722935267857,0.12830984933035713],[-0.14384416852678572,0.13037109375],[-0.14496721540178573,0.1320521763392857],[-0.1460902622767857,0.13373325892857144],[-0.14698311941964284,0.13579450334821427],[-0.14810616629464285,0.1374755859375],[-0.1489501953125,0.1391566685267857],[-0.14979422433035713,0.14083775111607144],[-0.15091727120535714,0.14251883370535715],[-0.1517578125,0.14419642857142856],[-0.15254952566964286,0.14554617745535714],[-0.1533935546875,0.14722726004464284],[-0.15416085379464287,0.14824916294642856],[-0.1549560546875,0.14932338169642856],[-0.15570242745535715,0.15057896205357144],[-0.15616978236607143,0.15104631696428572],[-0.15663713727678572,0.151513671875],[-0.15687081473214284,0.15174734933035713],[-0.15733816964285716,0.1519810267857143],[-0.15757184709821428,0.1519810267857143],[-0.15802525111607144,0.15220075334821428],[-0.15849260602678572,0.15243443080357144],[-0.15895647321428572,0.15266810825892857],[-0.15970284598214285,0.1529261997767857],[-0.16072126116071428,0.15318080357142858],[-0.1617466517857143,0.15369698660714284],[-0.1627685546875,0.15395159040178572],[-0.16351143973214285,0.15418178013392858],[-0.16425432477678573,0.15441196986607142],[-0.16471819196428572,0.15441196986607142],[-0.165185546875,0.15464564732142858],[-0.16541573660714284,0.15464564732142858],[-0.16541573660714284,0.15464564732142858],[-0.16541573660714284,0.15464564732142858],[-0.164990234375,0.15464564732142858],[-0.16170131138392857,0.15464564732142858]]]",2,"[159,148]",space,14.33219,space,2.30091,0,0,0,6,1,right_left_2.jpg,right_left_2_path.jpg,,,,,,,,,,,,,,,,
Image_List_4,,,,,,,,,,,,,,,,44322,2020-11-20_16h00.42.886,analogCatScenes,2020.1.3,MacIntel,60,"[1792,1120]","[[[0.010145786830357143,-0.20048479352678572],[0.010145786830357143,-0.20048479352678572],[0.010145786830357143,-0.20048479352678572],[0.010145786830357143,-0.20048479352678572],[0.010145786830357143,-0.20048479352678572],[0.010145786830357143,-0.20048479352678572],[0.010145786830357143,-0.20048479352678572],[0.010145786830357143,-0.20048479352678572],[0.010145786830357143,-0.20048479352678572],[0.010145786830357143,-0.20048479352678572],[0.010145786830357143,-0.20048479352678572],[0.010145786830357143,-0.20048479352678572],[0.010145786830357143,-0.19901994977678572],[0.0092041015625,-0.19614955357142858],[0.007781110491071428,-0.19189453125],[0.005967494419642857,-0.18719656808035715],[0.0032156808035714284,-0.18172084263392857],[-0.0002685546875,-0.17439662388392857],[-0.005719866071428571,-0.1665980747767857],[-0.011321149553571429,-0.1577183314732143],[-0.017068917410714285,-0.14813755580357144],[-0.02210170200892857,-0.13944963727678572],[-0.026625279017857145,-0.13130929129464286],[-0.030991908482142855,-0.12388392857142858],[-0.034744698660714286,-0.11763741629464286],[-0.037353515625,-0.11348702566964286],[-0.0421630859375,-0.10628138950892857],[-0.04580775669642857,-0.10172991071428572],[-0.04827357700892857,-0.09784807477678571],[-0.050247628348214286,-0.09489048549107143],[-0.05255998883928571,-0.09224679129464286],[-0.054112025669642856,-0.09008440290178571],[-0.056093052455357145,-0.08744070870535714],[-0.05812290736607143,-0.0844482421875],[-0.059940011160714284,-0.08258579799107142],[-0.06192103794642857,-0.07994210379464285],[-0.06456473214285714,-0.07729840959821428],[-0.06736537388392858,-0.07411760602678572],[-0.07005440848214285,-0.07109026227678572],[-0.07339564732142857,-0.0677490234375],[-0.07626953125,-0.06417061941964286],[-0.0791015625,-0.06063058035714286],[-0.0823974609375,-0.05601981026785714],[-0.08478306361607142,-0.052957589285714285],[-0.08638392857142857,-0.05009068080357143],[-0.08836495535714285,-0.047119140625],[-0.09033900669642857,-0.04448590959821429],[-0.09232003348214286,-0.041845703125],[-0.0939208984375,-0.039303152901785716],[-0.0958984375,-0.036666434151785714],[-0.09749581473214286,-0.034134347098214286],[-0.09940359933035714,-0.031895228794642856],[-0.10094517299107143,-0.029746791294642857],[-0.10285295758928571,-0.02750767299107143],[-0.10445382254464286,-0.024965122767857142],[-0.106005859375,-0.022802734375],[-0.10758231026785714,-0.020291573660714286],[-0.10910993303571428,-0.0181640625],[-0.11071079799107143,-0.015621512276785715],[-0.11412179129464285,-0.011129324776785715],[-0.11661551339285714,-0.007230050223214286],[-0.11952427455357142,-0.003526088169642857],[-0.12186104910714286,-0.0008335658482142857],[-0.12459542410714286,0.0022530691964285712],[-0.12723911830357143,0.004896763392857143],[-0.1298828125,0.007540457589285714],[-0.13179059709821428,0.009776088169642858],[-0.13368443080357142,0.012001255580357143],[-0.1355922154017857,0.014240373883928572],[-0.137060546875,0.015987723214285713],[-0.138134765625,0.01734095982142857],[-0.1392578125,0.019022042410714285],[-0.14065987723214285,0.020424107142857143],[-0.14176897321428572,0.022084263392857142],[-0.14316755022321428,0.023482840401785714],[-0.14423828125,0.024832589285714284],[-0.145263671875,0.025857979910714285],[-0.14717843191964286,0.027772739955357142],[-0.14858049665178572,0.0291748046875],[-0.15000697544642858,0.030601283482142857],[-0.15140904017857143,0.032003348214285715],[-0.15274832589285714,0.03306361607142857],[-0.15422712053571427,0.03482142857142857],[-0.15535016741071428,0.036502511160714284],[-0.15674525669642858,0.03789760044642857],[-0.1578648158482143,0.0395751953125],[-0.15934361049107143,0.0413330078125],[-0.16041434151785713,0.04268275669642857],[-0.16153738839285714,0.04436383928571429],[-0.16261160714285713,0.045717075892857145],[-0.16381138392857142,0.04747488839285714],[-0.16492745535714284,0.049148995535714286],[-0.16604701450892856,0.05082310267857143],[-0.16721540178571428,0.05287388392857143],[-0.16868722098214287,0.05462123325892857],[-0.1708251953125,0.057979910714285716],[-0.17265973772321427,0.059814453125],[-0.17421177455357142,0.061976841517857144],[-0.1756870814732143,0.06373116629464286],[-0.17759486607142858,0.06597028459821429],[-0.17911551339285714,0.06810128348214285],[-0.18093959263392856,0.06992536272321428],[-0.18241489955357143,0.0716796875],[-0.18358328683035716,0.07373744419642857],[-0.18470633370535713,0.07541852678571428],[-0.18582938058035714,0.077099609375],[-0.18699776785714287,0.079150390625],[-0.18812081473214284,0.08083147321428572],[-0.189599609375,0.08258928571428571],[-0.19072265625,0.08427036830357143],[-0.19219796316964285,0.08602120535714286],[-0.19326869419642856,0.08737095424107143],[-0.19521135602678572,0.08931361607142857],[-0.1962855747767857,0.09066685267857143],[-0.19804338727678572,0.09214564732142858],[-0.19911760602678572,0.09349888392857143],[-0.20051967075892857,0.09490094866071429],[-0.2022739955357143,0.09637625558035715],[-0.20370396205357144,0.09780622209821428],[-0.20472237723214284,0.09882463727678571],[-0.20579659598214287,0.10017787388392857],[-0.20682198660714285,0.10120326450892857],[-0.207568359375,0.10194963727678572],[-0.20833565848214286,0.10297154017857142],[-0.2091029575892857,0.10399344308035714],[-0.20987025669642856,0.1047607421875],[-0.21063755580357144,0.10577915736607142],[-0.21140485491071428,0.10654645647321428],[-0.21217564174107142,0.10757184709821428],[-0.21320103236607144,0.1091064453125],[-0.21396833147321428,0.11012834821428572],[-0.21473911830357142,0.11115373883928571],[-0.21523088727678572,0.11190011160714286],[-0.21600167410714285,0.11292550223214286],[-0.216748046875,0.113671875],[-0.21751534598214287,0.11469377790178571],[-0.2185791015625,0.11577845982142858],[-0.2196044921875,0.11654924665178572],[-0.22037527901785714,0.11757463727678572],[-0.22086356026785714,0.11831752232142857],[-0.22135532924107143,0.11906389508928572],[-0.22184361049107143,0.11980678013392858],[-0.22233189174107143,0.12054966517857142],[-0.22279575892857142,0.12101353236607143],[-0.22325962611607142,0.12147739955357142],[-0.22372349330357144,0.12194126674107143],[-0.22419084821428573,0.12264229910714286],[-0.22442103794642856,0.12310616629464285],[-0.22465471540178572,0.12333635602678572],[-0.22465471540178572,0.12357003348214286],[-0.22444196428571428,0.12357003348214286],[-0.22157854352678572,0.12357003348214286],[-0.21632952008928572,0.12357003348214286]]]",1,[153],space,4.7114,space,0.7105,0,1,1,4,1,left_2.jpg,left_2_path.jpg,,,,,,,,,,,,,,,,
Image_List_4,,,,,,,,,,,,,,,,44322,2020-11-20_16h00.42.886,analogCatScenes,2020.1.3,MacIntel,60,"[1792,1120]","[[[0.008056640625,-0.20357491629464286],[0.008056640625,-0.20357491629464286],[0.008056640625,-0.20357491629464286],[0.008056640625,-0.20357491629464286],[0.008056640625,-0.20357491629464286],[0.008056640625,-0.20357491629464286],[0.008056640625,-0.20357491629464286],[0.008056640625,-0.20357491629464286],[0.008056640625,-0.20357491629464286],[0.008056640625,-0.20357491629464286],[0.008056640625,-0.20357491629464286],[0.008056640625,-0.2028529575892857],[0.008384486607142857,-0.19998256138392856],[0.011373465401785715,-0.1955287388392857],[0.014027622767857142,-0.19059361049107143],[0.018861607142857142,-0.1835693359375],[0.02373046875,-0.17649972098214287],[0.028846958705357143,-0.16807338169642858],[0.03492257254464286,-0.15967494419642858],[0.041172572544642856,-0.15054757254464285],[0.0471923828125,-0.14221888950892858],[0.05386439732142857,-0.13363560267857144],[0.059901646205357144,-0.1257359095982143],[0.06580287388392857,-0.11846749441964285],[0.07164829799107143,-0.11126185825892858],[0.08063267299107142,-0.10226702008928572],[0.08726632254464285,-0.09696219308035714],[0.09305594308035714,-0.09238978794642858],[0.09782017299107143,-0.088671875],[0.10254255022321429,-0.08515625],[0.10709054129464286,-0.08173828125],[0.11160714285714286,-0.07834821428571428],[0.11726422991071428,-0.07470703125],[0.12235281808035714,-0.07117396763392857],[0.12838657924107144,-0.06795131138392857],[0.13348911830357144,-0.06443568638392858],[0.13954729352678572,-0.060794503348214284],[0.1457275390625,-0.057080078125],[0.15236118861607142,-0.05333426339285714],[0.15940987723214287,-0.05001743861607143],[0.16587611607142858,-0.04678083147321429],[0.17190987723214285,-0.043558175223214285],[0.17737513950892858,-0.04080984933035714],[0.18548409598214285,-0.036924525669642855],[0.1907679966517857,-0.03465401785714286],[0.19463936941964285,-0.03290318080357143],[0.19888741629464285,-0.030775669642857145],[0.20439453125,-0.02763671875],[0.208642578125,-0.025509207589285713],[0.212890625,-0.02338169642857143],[0.217822265625,-0.02071010044642857],[0.22169363839285713,-0.018959263392857143],[0.22589634486607144,-0.017201450892857142],[0.22966657366071427,-0.015499441964285715],[0.23295549665178572,-0.013849748883928571],[0.23624790736607143,-0.0125244140625],[0.23908342633928573,-0.011265345982142858],[0.24151088169642856,-0.0103515625],[0.24393484933035714,-0.009437779017857143],[0.2475551060267857,-0.0082275390625],[0.24998256138392858,-0.007010323660714286],[0.25162876674107143,-0.006678989955357143],[0.2561279296875,-0.0050816127232142854],[0.25899135044642857,-0.00380859375],[0.2622837611607143,-0.0028145926339285714],[0.26658412388392855,-0.0013916015625],[0.27035435267857144,-0.0007045200892857143],[0.2741245814732143,0.0003383091517857143],[0.2778948102678571,0.001025390625],[0.2811837332589286,0.0016880580357142858],[0.28404715401785713,0.0020193917410714288],[0.28646763392857144,0.0023228236607142857],[0.2897356305803571,0.002650669642857143],[0.2945068359375,0.003030831473214286],[0.2978480747767857,0.0033377511160714284],[0.30159388950892857,0.0036900111607142856],[0.3048618861607143,0.0040178571428571425],[0.30704520089285714,0.0040178571428571425],[0.30778111049107143,0.004275948660714286],[0.30801130022321427,0.004509626116071429],[0.30777762276785714,0.004976981026785714],[0.30250767299107145,0.005458286830357143]]]",1,[82],space,3.32612,space,1.0114,0,2,2,5,1,right_2.jpg,right_2_path.jpg,,,,,,,,,,,,,,,,
Image_List_4,,,,,,,,,,,,,,,,44322,2020-11-20_16h00.42.886,analogCatScenes,2020.1.3,MacIntel,60,"[1792,1120]","[[[-0.0022635323660714288,-0.19334542410714287],[-0.0022635323660714288,-0.19334542410714287],[-0.0022635323660714288,-0.19334542410714287],[-0.0022635323660714288,-0.19334542410714287],[-0.0022635323660714288,-0.19334542410714287],[-0.0022635323660714288,-0.19334542410714287],[-0.0022635323660714288,-0.19334542410714287],[-0.0022635323660714288,-0.19334542410714287],[-0.0022635323660714288,-0.19334542410714287],[-0.0022635323660714288,-0.19334542410714287],[-0.0008579799107142857,-0.19009486607142856],[0.003271484375,-0.18392159598214286],[0.010724748883928572,-0.17397112165178572],[0.020267159598214287,-0.16286272321428572],[0.033565848214285716,-0.1490234375],[0.04285714285714286,-0.13970424107142856],[0.053257533482142856,-0.13136160714285713],[0.06186174665178571,-0.12465122767857142],[0.07118791852678572,-0.11778390066964285],[0.07930385044642857,-0.11237095424107142],[0.08636648995535715,-0.1074951171875],[0.0934326171875,-0.10265764508928571],[0.10062081473214286,-0.09725864955357143],[0.10768345424107142,-0.0923828125],[0.11474609375,-0.08750697544642858],[0.12057756696428572,-0.08290666852678572],[0.12564871651785714,-0.07901088169642857],[0.13074428013392858,-0.07587890625],[0.134228515625,-0.07375139508928572],[0.1395228794642857,-0.0708740234375],[0.14324776785714285,-0.06884765625],[0.14700404575892856,-0.06712820870535714],[0.15199148995535713,-0.06446358816964286],[0.15485142299107144,-0.06319056919642857],[0.15728585379464285,-0.06196986607142857],[0.15934012276785714,-0.06107700892857143],[0.1610107421875,-0.06051548549107143],[0.16175013950892858,-0.060257393973214286],[0.16221051897321428,-0.0597900390625],[0.1626708984375,-0.0597900390625],[0.1626708984375,-0.0595703125],[0.1626708984375,-0.0595703125],[0.1626708984375,-0.0595703125],[0.1626708984375,-0.05935756138392857],[0.16136648995535716,-0.05912388392857143]]]",1,[45],space,3.3995,space,1.29833,0,3,3,3,1,ahead_right_left_2.jpg,ahead_right_left_2_path.jpg,,,,,,,,,,,,,,,,
Image_List_4,,,,,,,,,,,,,,,,44322,2020-11-20_16h00.42.886,analogCatScenes,2020.1.3,MacIntel,60,"[1792,1120]","[[[-0.000006975446428571428,-0.19683314732142856],[-0.000006975446428571428,-0.19683314732142856],[-0.000006975446428571428,-0.19683314732142856],[-0.000006975446428571428,-0.19683314732142856],[-0.000006975446428571428,-0.19683314732142856],[-0.000006975446428571428,-0.19683314732142856],[-0.000006975446428571428,-0.19683314732142856],[-0.000006975446428571428,-0.19683314732142856],[-0.000006975446428571428,-0.19576939174107144],[-0.000006975446428571428,-0.18938337053571427],[-0.000006975446428571428,-0.17191685267857143],[-0.000006975446428571428,-0.15547572544642857],[-0.000006975446428571428,-0.13642229352678573],[-0.000006975446428571428,-0.11710728236607143],[-0.000006975446428571428,-0.09674595424107142],[-0.0012067522321428572,-0.07764020647321429],[-0.0023995535714285716,-0.05863211495535714],[-0.002975027901785714,-0.046177455357142856],[-0.0046630859375,-0.029736328125],[-0.006326729910714286,-0.014236886160714286],[-0.007892717633928572,-0.0013113839285714285],[-0.008904157366071428,0.010784040178571428],[-0.009803989955357143,0.0197265625],[-0.010665457589285714,0.027504185267857143],[-0.011094447544642857,0.03459821428571429],[-0.012308175223214285,0.04429408482142857],[-0.012712751116071428,0.047506277901785715],[-0.013926478794642858,0.05720912388392857],[-0.014306640625,0.061516462053571426],[-0.0150390625,0.06626325334821428],[-0.015370396205357142,0.06956263950892858],[-0.016008649553571428,0.07243303571428572],[-0.016622488839285715,0.07487444196428572],[-0.0171875,0.07655552455357142],[-0.017470005580357145,0.07790876116071428],[-0.017958286830357145,0.07865164620535714],[-0.018191964285714287,0.07939801897321429],[-0.018191964285714287,0.07962820870535714],[-0.018191964285714287,0.07984793526785715],[-0.018191964285714287,0.07984793526785715],[-0.018191964285714287,0.07984793526785715],[-0.018404715401785714,0.07984793526785715]],[[0.011349051339285715,-0.19595772879464285],[0.011349051339285715,-0.19595772879464285],[0.011349051339285715,-0.19595772879464285],[0.011349051339285715,-0.19595772879464285],[0.011349051339285715,-0.19595772879464285],[0.011349051339285715,-0.19595772879464285],[0.011349051339285715,-0.19595772879464285],[0.011349051339285715,-0.19595772879464285],[0.012412806919642857,-0.19595772879464285],[0.01892787388392857,-0.19309779575892858],[0.03913225446428571,-0.18388323102678572],[0.06473911830357143,-0.1734898158482143],[0.09656110491071429,-0.16461007254464285],[0.11963239397321429,-0.15985281808035715],[0.14987095424107144,-0.15481654575892856],[0.16510184151785715,-0.15418526785714284],[0.19036690848214285,-0.1528599330357143],[0.20179268973214284,-0.1528599330357143],[0.21729910714285713,-0.1528599330357143],[0.23980887276785715,-0.1528599330357143],[0.25443638392857143,-0.1528599330357143],[0.2656319754464286,-0.15332728794642858],[0.27161690848214287,-0.15375627790178573],[0.27811802455357143,-0.15413295200892857],[0.2824183872767857,-0.15450962611607144],[0.2852818080357143,-0.15483747209821427],[0.28770228794642855,-0.15514090401785716],[0.2893694196428571,-0.155419921875],[0.2907156808035714,-0.155419921875],[0.291455078125,-0.155419921875],[0.2916852678571429,-0.155419921875],[0.2916852678571429,-0.155419921875],[0.28763253348214285,-0.155419921875]]]",2,"[42,33]",space,4.69801,space,0.68118,0,4,4,2,1,ahead_right_2.jpg,ahead_right_2_path.jpg,,,,,,,,,,,,,,,,
Image_List_4,,,,,,,,,,,,,,,,44322,2020-11-20_16h00.42.886,analogCatScenes,2020.1.3,MacIntel,60,"[1792,1120]","[[[-0.006448800223214286,-0.20269601004464285],[-0.006448800223214286,-0.20269601004464285],[-0.006448800223214286,-0.20269601004464285],[-0.006448800223214286,-0.20269601004464285],[-0.006448800223214286,-0.20269601004464285],[-0.006448800223214286,-0.20269601004464285],[-0.006448800223214286,-0.20269601004464285],[-0.006448800223214286,-0.20269601004464285],[-0.006448800223214286,-0.2014404296875],[-0.006448800223214286,-0.19437081473214285],[-0.006448800223214286,-0.18134416852678573],[-0.006448800223214286,-0.15244140625],[-0.006448800223214286,-0.12936314174107144],[-0.006448800223214286,-0.09985002790178571],[-0.006448800223214286,-0.07737513950892858],[-0.006448800223214286,-0.06243024553571429],[-0.006448800223214286,-0.04598911830357143],[-0.006448800223214286,-0.030723353794642857],[-0.006448800223214286,-0.010089983258928572],[-0.006448800223214286,0.0012276785714285714],[-0.006448800223214286,0.010846819196428572],[-0.006448800223214286,0.019210379464285714],[-0.006448800223214286,0.0268310546875],[-0.006448800223214286,0.03455984933035714],[-0.006448800223214286,0.043624441964285714],[-0.005995396205357143,0.05270647321428571],[-0.00556640625,0.06043526785714286],[-0.005140904017857143,0.06814313616071428],[-0.004739815848214286,0.07461635044642857],[-0.004338727678571429,0.08106863839285715],[-0.003515625,0.08811383928571428],[-0.0031912667410714285,0.09361746651785714],[-0.0027134486607142856,0.10010811941964286],[-0.0023367745535714285,0.1053955078125],[-0.0019845145089285713,0.10965053013392857],[-0.0016566685267857143,0.113427734375],[-0.001353236607142857,0.11751883370535714],[-0.001353236607142857,0.11996023995535714],[-0.0007463727678571428,0.12240164620535714],[-0.00046735491071428573,0.124462890625],[-0.00016392299107142856,0.12652413504464285],[0.0004185267857142857,0.12858537946428572],[0.0009486607142857143,0.12993512834821427],[0.0012276785714285714,0.1316162109375],[0.0014822823660714285,0.13296595982142856],[0.002015904017857143,0.13431919642857143],[0.002294921875,0.13600027901785713],[0.002852957589285714,0.13768136160714287],[0.0034109933035714286,0.13936244419642857],[0.003965541294642857,0.14103655133928572],[0.004265485491071429,0.14308733258928572],[0.004840959821428572,0.14512765066964287],[0.0051164899553571425,0.14764578683035715],[0.0053955078125,0.14932686941964285],[0.005650111607142857,0.15066615513392856],[0.005650111607142857,0.15201939174107143],[0.005650111607142857,0.15303431919642857],[0.005650111607142857,0.1537806919642857],[0.005650111607142857,0.154248046875],[0.005650111607142857,0.15448172433035715],[0.005650111607142857,0.15470145089285714],[0.005650111607142857,0.15470145089285714],[0.004924665178571428,0.15491420200892858],[0.0035714285714285713,0.15545479910714285]]]",1,[64],space,2.494095,space,0.79569,0,5,5,0,1,ahead_2.jpg,ahead_2_path.jpg,,,,,,,,,,,,,,,,
Image_List_4,,,,,,,,,,,,,,,,44322,2020-11-20_16h00.42.886,analogCatScenes,2020.1.3,MacIntel,60,"[1792,1120]","[[[0.009981863839285714,-0.20272739955357144],[0.009981863839285714,-0.20272739955357144],[0.009981863839285714,-0.20272739955357144],[0.009981863839285714,-0.20272739955357144],[0.009981863839285714,-0.20272739955357144],[0.009981863839285714,-0.20272739955357144],[0.009981863839285714,-0.20272739955357144],[0.009981863839285714,-0.20272739955357144],[0.009981863839285714,-0.198046875],[0.009981863839285714,-0.18954031808035715],[0.009981863839285714,-0.17427455357142857],[0.014041573660714285,-0.12970493861607144],[0.018641880580357144,-0.09515904017857142],[0.0244140625,-0.05394112723214286],[0.027378627232142856,-0.026858956473214287],[0.03195452008928571,0.006403459821428571],[0.0347412109375,0.033401925223214286],[0.0369140625,0.04934779575892857],[0.03837193080357143,0.07433384486607143],[0.04012974330357143,0.09268275669642857],[0.041336495535714286,0.11201171875],[0.04292689732142857,0.12509765625],[0.0445068359375,0.13882882254464285],[0.0453125,0.14549734933035716],[0.046543666294642856,0.15199148995535713],[0.0471923828125,0.15531877790178572],[0.0471923828125,0.1573765345982143],[0.04744698660714286,0.15812290736607143],[0.04744698660714286,0.15859026227678572],[0.04744698660714286,0.15880650111607142],[0.04744698660714286,0.15880650111607142],[0.04744698660714286,0.15880650111607142],[0.04744698660714286,0.15880650111607142],[0.04744698660714286,0.15880650111607142],[0.04744698660714286,0.15880650111607142],[0.04744698660714286,0.15880650111607142]]]",1,[36],space,1.84911,space,0.8327,0,6,6,1,1,ahead_left_2.jpg,ahead_left_2_path.jpg,,,,,,,,,,,,,,,,
Image_List_4,,,,,,,,,,,,,,,,44322,2020-11-20_16h00.42.886,analogCatScenes,2020.1.3,MacIntel,60,"[1792,1120]","[[[0.0007847377232142857,-0.18935198102678572],[0.0007847377232142857,-0.18935198102678572],[0.0007847377232142857,-0.18935198102678572],[0.0007847377232142857,-0.18935198102678572],[0.0007847377232142857,-0.18935198102678572],[0.0007847377232142857,-0.18935198102678572],[0.0007847377232142857,-0.18935198102678572],[0.0007847377232142857,-0.18935198102678572],[0.0007847377232142857,-0.18935198102678572],[0.0007847377232142857,-0.18935198102678572],[0.0007847377232142857,-0.18935198102678572],[0.0016148158482142856,-0.18935198102678572],[0.004575892857142857,-0.18935198102678572],[0.009354073660714286,-0.18897181919642858],[0.020765904017857145,-0.18594447544642856],[0.0286865234375,-0.18412737165178572],[0.040774972098214284,-0.181103515625],[0.05369349888392857,-0.177978515625],[0.06661202566964286,-0.1748779296875],[0.07863071986607142,-0.17186802455357142],[0.09071916852678572,-0.1683384486607143],[0.1036376953125,-0.16523786272321428],[0.11653529575892857,-0.16164202008928572],[0.12937360491071428,-0.15806361607142858],[0.14312220982142856,-0.15488978794642858],[0.16047712053571428,-0.15093122209821427],[0.1700474330357143,-0.1486781529017857],[0.18055943080357142,-0.1472412109375],[0.19034249441964285,-0.14582868303571428],[0.1993687220982143,-0.14537876674107142],[0.2084019252232143,-0.14492885044642856],[0.2168003627232143,-0.14492885044642856],[0.2251918247767857,-0.14492885044642856],[0.2300537109375,-0.14492885044642856],[0.23541085379464285,-0.14528111049107142],[0.23965890066964285,-0.14598563058035716],[0.24295131138392856,-0.14664132254464285],[0.2457763671875,-0.147265625],[0.2505092075892857,-0.14836774553571427],[0.2543491908482143,-0.14942103794642858],[0.2576904296875,-0.15043247767857143],[0.2593366350446429,-0.1507603236607143],[0.2635009765625,-0.15191476004464285],[0.2642368861607143,-0.15216587611607144],[0.264697265625,-0.15239606584821427],[0.26492745535714285,-0.15239606584821427],[0.26492745535714285,-0.15239606584821427],[0.26492745535714285,-0.15239606584821427],[0.26492745535714285,-0.15239606584821427],[0.26427176339285713,-0.15174037388392858]]]",1,[50],,,,,,,,,,,,space,7.620675,lockerroom2.jpg,space,2.15362,0,0,0,68,1,liquorstore7.jpg,parkinglot.jpg,lightingstore4.jpg,hospitalroom3.jpg,,
Image_List_4,,,,,,,,,,,,,,,,44322,2020-11-20_16h00.42.886,analogCatScenes,2020.1.3,MacIntel,60,"[1792,1120]","[[[0.00615234375,-0.193115234375],[0.00615234375,-0.193115234375],[0.00615234375,-0.193115234375],[0.00615234375,-0.193115234375],[0.00615234375,-0.193115234375],[0.00615234375,-0.193115234375],[0.00615234375,-0.193115234375],[0.00615234375,-0.193115234375],[0.006780133928571429,-0.193115234375],[0.013246372767857144,-0.19268973214285715],[0.033370535714285714,-0.183251953125],[0.06446358816964286,-0.17026715959821428],[0.10149623325892858,-0.15657784598214286],[0.1277099609375,-0.1474888392857143],[0.15921805245535714,-0.13698381696428572],[0.1748011997767857,-0.13299386160714285],[0.20106375558035713,-0.12619977678571428],[0.21265345982142858,-0.122998046875],[0.22808314732142856,-0.11913364955357143],[0.24271065848214285,-0.11588309151785714],[0.2599400111607143,-0.11278948102678571],[0.2690638950892857,-0.1114013671875],[0.27383858816964285,-0.11066545758928571],[0.27589285714285716,-0.11007603236607143],[0.2766322544642857,-0.11007603236607143],[0.2768624441964286,-0.10984235491071428],[0.2768624441964286,-0.10962262834821429],[0.27662876674107145,-0.10916922433035714],[0.2752755301339286,-0.10862862723214285],[0.2744349888392857,-0.10806710379464286]]]",1,[30],,,,,,,,,,,,,,igloo4.jpg,space,2.06721,0,1,1,58,1,highway7.jpg,lab1.jpg,hedgemaze1.jpg,grocerystore2.jpg,,
Image_List_4,,,,,,,,,,,,,,,,44322,2020-11-20_16h00.42.886,analogCatScenes,2020.1.3,MacIntel,60,"[1792,1120]","[[[0.000027901785714285713,-0.19322684151785716],[0.000027901785714285713,-0.19322684151785716],[0.000027901785714285713,-0.19322684151785716],[0.000027901785714285713,-0.19322684151785716],[0.000027901785714285713,-0.19322684151785716],[0.000027901785714285713,-0.19322684151785716],[0.000027901785714285713,-0.19322684151785716],[0.000027901785714285713,-0.19322684151785716],[0.000027901785714285713,-0.19322684151785716],[0.000027901785714285713,-0.19322684151785716],[0.000027901785714285713,-0.19322684151785716],[0.000027901785714285713,-0.19322684151785716],[0.000027901785714285713,-0.19322684151785716],[0.000027901785714285713,-0.19322684151785716],[0.000027901785714285713,-0.19322684151785716],[0.000027901785714285713,-0.19322684151785716],[0.000027901785714285713,-0.19322684151785716],[0.000027901785714285713,-0.19322684151785716],[0.000027901785714285713,-0.193017578125],[0.000027901785714285713,-0.1925537109375],[0.000027901785714285713,-0.19120047433035714],[0.000027901785714285713,-0.18702915736607142],[0.000027901785714285713,-0.1822788783482143],[0.000027901785714285713,-0.17455008370535716],[-0.0005789620535714286,-0.15961565290178573],[-0.0005789620535714286,-0.14408133370535714],[-0.0011579241071428571,-0.12470005580357142],[-0.0024693080357142856,-0.10109514508928572],[-0.003846958705357143,-0.07427106584821429],[-0.004551478794642857,-0.046135602678571426],[-0.005255998883928571,-0.020267159598214287],[-0.0059361049107142854,0.0044189453125],[-0.0059361049107142854,0.026883370535714286],[-0.0059361049107142854,0.050439453125],[-0.0059361049107142854,0.07732631138392858],[-0.0059361049107142854,0.10682547433035715],[-0.0052385602678571425,0.13492954799107143],[-0.00263671875,0.15838448660714285],[-0.0006487165178571428,0.17051130022321428],[0.0007847377232142857,0.18004673549107142],[0.0029820033482142855,0.19227469308035713],[0.003721400669642857,0.1974853515625],[0.004425920758928572,0.20174037388392857],[0.0050816127232142854,0.20503976004464286],[0.0050816127232142854,0.20710100446428573],[0.0050816127232142854,0.20845424107142857],[0.0050816127232142854,0.20892159598214285],[0.0050816127232142854,0.20892159598214285],[0.0050816127232142854,0.20892159598214285],[0.004868861607142857,0.20892159598214285]]]",1,[50],,,,,,,,,,,,,,dugout1.jpg,space,2.81749,0,2,2,40,1,drycleaners4.jpg,farm1.jpg,drymountains.jpg,clothingstore3.jpg,,
Image_List_4,,,,,,,,,,,,,,,,44322,2020-11-20_16h00.42.886,analogCatScenes,2020.1.3,MacIntel,60,"[1792,1120]","[[[0.003773716517857143,-0.19955357142857144],[0.003773716517857143,-0.19955357142857144],[0.003773716517857143,-0.19955357142857144],[0.003773716517857143,-0.19955357142857144],[0.003773716517857143,-0.19955357142857144],[0.003773716517857143,-0.19955357142857144],[0.003773716517857143,-0.19955357142857144],[0.003773716517857143,-0.19955357142857144],[0.003773716517857143,-0.196142578125],[0.003773716517857143,-0.18633161272321427],[0.005922154017857143,-0.17271205357142858],[0.012161690848214286,-0.15684988839285716],[0.019827706473214284,-0.139697265625],[0.025777762276785715,-0.12862025669642857],[0.03335309709821429,-0.11559709821428571],[0.040073939732142856,-0.10423060825892858],[0.046951729910714286,-0.09488002232142857],[0.05365513392857143,-0.0862060546875],[0.06142926897321429,-0.07791922433035714],[0.06730259486607143,-0.07068219866071429],[0.0710205078125,-0.06695731026785715],[0.075146484375,-0.06282087053571428],[0.07621023995535714,-0.06147112165178571],[0.07669154575892857,-0.060728236607142855],[0.07669154575892857,-0.06050851004464286],[0.07669154575892857,-0.06027483258928571],[0.07669154575892857,-0.060055106026785716],[0.07669154575892857,-0.0598388671875],[0.07669154575892857,-0.0598388671875],[0.07669154575892857,-0.05962611607142857],[0.07669154575892857,-0.05940638950892857],[0.07669154575892857,-0.057540457589285714],[0.07669154575892857,-0.056703404017857145],[0.07669154575892857,-0.0538330078125],[0.07636021205357142,-0.050533621651785716],[0.07636021205357142,-0.0468017578125],[0.07602887834821428,-0.043502371651785714],[0.07602887834821428,-0.03972516741071429],[0.07602887834821428,-0.03477957589285714],[0.07602887834821428,-0.031490652901785716],[0.07602887834821428,-0.028627232142857142],[0.07602887834821428,-0.026946149553571427],[0.07602887834821428,-0.025596400669642857],[0.07602887834821428,-0.024571010044642856],[0.07602887834821428,-0.023824637276785715],[0.07602887834821428,-0.02307826450892857],[0.07602887834821428,-0.02233189174107143],[0.07602887834821428,-0.021864536830357145],[0.07602887834821428,-0.021400669642857143],[0.07602887834821428,-0.021400669642857143],[0.07602887834821428,-0.021400669642857143],[0.07602887834821428,-0.021400669642857143],[0.07560337611607143,-0.021400669642857143]]]",1,[53],,,,,,,,,,,,,,forestpath4.jpg,space,2.249415,0,3,3,45,1,fittingroom2.jpg,frontFoyer7.jpg,factory1.jpg,dock4.jpg,,
Image_List_4,,,,,,,,,,,,,,,,44322,2020-11-20_16h00.42.886,analogCatScenes,2020.1.3,MacIntel,60,"[1792,1120]","[[[0.005071149553571429,-0.19111676897321428],[0.005071149553571429,-0.19111676897321428],[0.005071149553571429,-0.19111676897321428],[0.005071149553571429,-0.19111676897321428],[0.005071149553571429,-0.19111676897321428],[0.005071149553571429,-0.19111676897321428],[0.005071149553571429,-0.19111676897321428],[0.005071149553571429,-0.19111676897321428],[0.005071149553571429,-0.19111676897321428],[0.005071149553571429,-0.19111676897321428],[0.005071149553571429,-0.19111676897321428],[0.005071149553571429,-0.19111676897321428],[0.005071149553571429,-0.19111676897321428],[0.005071149553571429,-0.19111676897321428],[0.005071149553571429,-0.19111676897321428],[0.005071149553571429,-0.19111676897321428],[0.005071149553571429,-0.19111676897321428],[0.005071149553571429,-0.19111676897321428],[0.005071149553571429,-0.19111676897321428],[0.005071149553571429,-0.19111676897321428],[0.005071149553571429,-0.19111676897321428],[0.005071149553571429,-0.19111676897321428],[0.005071149553571429,-0.19111676897321428],[0.005071149553571429,-0.19111676897321428],[0.005276925223214286,-0.19111676897321428],[0.005489676339285714,-0.19111676897321428],[0.005489676339285714,-0.19111676897321428],[0.005698939732142857,-0.19111676897321428],[0.005698939732142857,-0.19111676897321428],[0.005908203125,-0.19111676897321428],[0.005908203125,-0.19111676897321428],[0.005908203125,-0.19111676897321428],[0.006117466517857143,-0.19111676897321428],[0.006117466517857143,-0.19111676897321428],[0.006117466517857143,-0.19111676897321428],[0.006326729910714286,-0.19111676897321428],[0.006326729910714286,-0.19111676897321428],[0.006326729910714286,-0.19111676897321428],[0.006326729910714286,-0.19111676897321428],[0.006326729910714286,-0.19111676897321428],[0.006326729910714286,-0.19111676897321428],[0.006326729910714286,-0.19111676897321428],[0.005475725446428571,-0.19111676897321428],[0.002622767857142857,-0.19111676897321428],[-0.003330775669642857,-0.19111676897321428],[-0.0146728515625,-0.19264787946428572],[-0.028477260044642856,-0.19420340401785716],[-0.046393694196428574,-0.19593331473214284],[-0.06985212053571428,-0.19723074776785715],[-0.09453473772321429,-0.19723074776785715],[-0.121533203125,-0.19723074776785715],[-0.14715053013392856,-0.19723074776785715],[-0.17166922433035714,-0.19723074776785715],[-0.1886021205357143,-0.19723074776785715],[-0.20577566964285715,-0.19723074776785715],[-0.21370326450892857,-0.19723074776785715],[-0.2234619140625,-0.19723074776785715],[-0.22719377790178572,-0.19723074776785715],[-0.22962472098214284,-0.19753069196428572],[-0.2316859654017857,-0.19780970982142856],[-0.23336704799107144,-0.19780970982142856],[-0.23504813058035715,-0.19780970982142856],[-0.23639787946428573,-0.19780970982142856],[-0.23639787946428573,-0.19780970982142856],[-0.23639787946428573,-0.19780970982142856],[-0.23639787946428573,-0.19780970982142856]]]",1,[66],,,,,,,,,,,,,,pavilion3.jpg,space,2.40056,0,4,4,78,1,parkinglot3.jpg,poolhall1.jpg,pier5.jpg,observatory1.jpg,,
Image_List_4,,,,,,,,,,,,,,,,44322,2020-11-20_16h00.42.886,analogCatScenes,2020.1.3,MacIntel,60,"[1792,1120]","[[[0.0005510602678571429,-0.19586704799107144],[0.0005510602678571429,-0.19586704799107144],[0.0005510602678571429,-0.19586704799107144],[0.0005510602678571429,-0.19586704799107144],[0.0005510602678571429,-0.19586704799107144],[0.0005510602678571429,-0.19586704799107144],[0.003526088169642857,-0.19586704799107144],[0.012653459821428572,-0.19586704799107144],[0.03964494977678571,-0.19098423549107144],[0.07150530133928572,-0.1865513392857143],[0.09843401227678572,-0.1849400111607143],[0.13663504464285714,-0.18297293526785716],[0.17520577566964285,-0.18297293526785716],[0.1944545200892857,-0.18297293526785716],[0.2066685267857143,-0.18297293526785716],[0.22850864955357142,-0.18297293526785716],[0.24105050223214286,-0.18153250558035713],[0.2539690290178571,-0.17898646763392856],[0.2637730189732143,-0.1766636439732143],[0.26858607700892856,-0.17481166294642858],[0.2728759765625,-0.1730678013392857],[0.27454659598214287,-0.17222726004464287],[0.2750313895089286,-0.1714808872767857],[0.27525809151785713,-0.1710170200892857],[0.27525809151785713,-0.17079729352678572],[0.27525809151785713,-0.17005092075892858]]]",1,[26],,,,,,,,,,,,,,clothingstore5.jpg,space,1.619115,0,5,5,28,1,churchInside1.jpg,dancestudio5.jpg,citystreet10.jpg,bridalboutique2.jpg,,
Image_List_4,,,,,,,,,,,,,,,,44322,2020-11-20_16h00.42.886,analogCatScenes,2020.1.3,MacIntel,60,"[1792,1120]","[[[0.00029994419642857145,-0.19266880580357143],[0.00029994419642857145,-0.19266880580357143],[0.00029994419642857145,-0.19266880580357143],[0.00029994419642857145,-0.19266880580357143],[0.00029994419642857145,-0.19266880580357143],[0.00029994419642857145,-0.19266880580357143],[0.00029994419642857145,-0.19266880580357143],[0.00029994419642857145,-0.19266880580357143],[0.00029994419642857145,-0.19266880580357143],[0.00029994419642857145,-0.19266880580357143],[0.00029994419642857145,-0.19266880580357143],[0.00029994419642857145,-0.19266880580357143],[0.00029994419642857145,-0.19266880580357143],[0.00029994419642857145,-0.19266880580357143],[0.00029994419642857145,-0.19266880580357143],[0.00029994419642857145,-0.19266880580357143],[0.00029994419642857145,-0.19266880580357143],[0.00029994419642857145,-0.19266880580357143],[0.00029994419642857145,-0.19266880580357143],[0.00029994419642857145,-0.19266880580357143],[0.00029994419642857145,-0.19266880580357143],[0.00029994419642857145,-0.19266880580357143],[0.00029994419642857145,-0.19266880580357143],[0.00029994419642857145,-0.19266880580357143],[0.00029994419642857145,-0.19266880580357143],[0.00029994419642857145,-0.19266880580357143],[0.00029994419642857145,-0.19266880580357143],[0.00029994419642857145,-0.19266880580357143],[0.00029994419642857145,-0.19266880580357143],[0.00029994419642857145,-0.19266880580357143],[0.00029994419642857145,-0.19266880580357143],[0.00029994419642857145,-0.19266880580357143],[0.00029994419642857145,-0.19266880580357143],[0.00029994419642857145,-0.19266880580357143],[0.00029994419642857145,-0.19266880580357143],[0.00029994419642857145,-0.19266880580357143],[0.00029994419642857145,-0.19266880580357143],[0.00029994419642857145,-0.19266880580357143],[0.00029994419642857145,-0.19266880580357143],[0.00029994419642857145,-0.19266880580357143],[0.00029994419642857145,-0.19266880580357143],[0.00029994419642857145,-0.19266880580357143],[-0.003560965401785714,-0.19266880580357143],[-0.0100341796875,-0.19306989397321428],[-0.017714146205357145,-0.1939208984375],[-0.038309151785714285,-0.19673549107142857],[-0.052064732142857145,-0.19778878348214285],[-0.064990234375,-0.19934779575892858],[-0.07708565848214285,-0.20035226004464285],[-0.08991350446428571,-0.20087890625],[-0.101123046875,-0.20087890625],[-0.10764508928571428,-0.20087890625],[-0.11772112165178572,-0.20087890625],[-0.1239013671875,-0.20087890625],[-0.12777622767857144,-0.20087890625],[-0.13497488839285715,-0.20087890625],[-0.13884974888392856,-0.20087890625],[-0.1452915736607143,-0.20087890625],[-0.15118582589285715,-0.20087890625],[-0.1576904296875,-0.20087890625],[-0.16406947544642858,-0.20167061941964284],[-0.1711390904017857,-0.20249720982142858],[-0.18056640625,-0.20367954799107144],[-0.18675711495535716,-0.20446079799107142],[-0.19251883370535713,-0.20521763392857142],[-0.19586007254464285,-0.2055698939732143],[-0.20011509486607143,-0.2055698939732143],[-0.20337960379464284,-0.20589773995535715],[-0.20664760044642858,-0.20621861049107143],[-0.20908900669642858,-0.20621861049107143],[-0.21153041294642858,-0.20621861049107143],[-0.21359165736607144,-0.20621861049107143],[-0.21527273995535715,-0.20621861049107143],[-0.21662248883928573,-0.20621861049107143],[-0.2176478794642857,-0.20621861049107143],[-0.21867327008928572,-0.20621861049107143],[-0.21969168526785715,-0.20621861049107143],[-0.22076590401785715,-0.20621861049107143],[-0.222119140625,-0.20621861049107143],[-0.22502092633928572,-0.20621861049107143],[-0.22746233258928572,-0.20621861049107143],[-0.23076171875,-0.20621861049107143],[-0.23363211495535716,-0.20621861049107143],[-0.23650251116071427,-0.20591169084821428],[-0.23980189732142856,-0.20491768973214286],[-0.24224330357142856,-0.20400041852678572],[-0.24468470982142856,-0.20277971540178572],[-0.24722726004464285,-0.20117885044642858],[-0.24928850446428572,-0.20000697544642856],[-0.2509695870535714,-0.19888392857142856],[-0.2523193359375,-0.19781319754464285],[-0.25367257254464287,-0.1970179966517857],[-0.2546944754464286,-0.1965053013392857],[-0.2557163783482143,-0.19625069754464286],[-0.2561802455357143,-0.1960170200892857],[-0.25692313058035715,-0.19575892857142857],[-0.2571533203125,-0.19529506138392858],[-0.2571533203125,-0.1944545200892857]]]",1,[98],,,,,,,,,,,,,,greenhouse.jpg,space,2.98429,0,6,6,49,1,frontDoor3.jpg,greenhouse5.jpg,flowershop3.jpg,farm2.jpg,,
Image_List_4,,,,,,,,,,,,,,,,44322,2020-11-20_16h00.42.886,analogCatScenes,2020.1.3,MacIntel,60,"[1792,1120]","[[[0.0029017857142857144,-0.19798409598214287],[0.0029017857142857144,-0.19798409598214287],[0.0029017857142857144,-0.19798409598214287],[0.0029017857142857144,-0.19798409598214287],[0.0029017857142857144,-0.19798409598214287],[0.0029017857142857144,-0.19798409598214287],[0.0029017857142857144,-0.19798409598214287],[0.0029017857142857144,-0.19798409598214287],[0.0029017857142857144,-0.19798409598214287],[0.0029017857142857144,-0.19798409598214287],[0.0029017857142857144,-0.19777483258928572],[0.0031808035714285714,-0.19609375],[0.006755719866071428,-0.19288853236607142],[0.015363420758928572,-0.18667689732142856],[0.02210170200892857,-0.18318917410714286],[0.03238699776785714,-0.17829241071428573],[0.048793247767857144,-0.17071358816964285],[0.058370535714285715,-0.16632603236607144],[0.07230050223214286,-0.16041085379464284],[0.09192243303571429,-0.15083356584821428],[0.10812639508928572,-0.1433070591517857],[0.11996023995535714,-0.13759765625],[0.1395542689732143,-0.12806222098214284],[0.15867745535714287,-0.1194091796875],[0.1777308872767857,-0.11202218191964286],[0.19591587611607142,-0.10733119419642857],[0.20986328125,-0.10511300223214286],[0.22629743303571428,-0.10340053013392857],[0.23639439174107144,-0.10287039620535714],[0.24619838169642858,-0.10238909040178572],[0.251513671875,-0.10203334263392858],[0.25437709263392855,-0.10203334263392858],[0.25511648995535713,-0.10179966517857143],[0.2553466796875,-0.10133231026785715],[0.25148228236607145,-0.09961286272321429]]]",1,[35],,,,,,,,,,,,,,operatingroom1.jpg,space,1.800855,0,7,7,74,1,newsstand2.jpg,playground10.jpg,observatory4.jpeg,lightingstore2.jpg,,
Image_List_4,,,,,,,,,,,,,,,,44322,2020-11-20_16h00.42.886,analogCatScenes,2020.1.3,MacIntel,60,"[1792,1120]","[[[0.0034981863839285716,-0.19701450892857142],[0.0034981863839285716,-0.19701450892857142],[0.0034981863839285716,-0.19701450892857142],[0.0034981863839285716,-0.19701450892857142],[0.0034981863839285716,-0.19701450892857142],[0.0034981863839285716,-0.19701450892857142],[0.006246512276785714,-0.19701450892857142],[0.0226806640625,-0.19701450892857142],[0.052392578125,-0.194921875],[0.09244907924107143,-0.1924769810267857],[0.1384765625,-0.1924769810267857],[0.18301827566964285,-0.1924769810267857],[0.22602190290178573,-0.1924769810267857],[0.2521344866071429,-0.1924769810267857],[0.27271554129464287,-0.19441266741071428],[0.29308035714285713,-0.19931640625],[0.3029575892857143,-0.20132882254464285],[0.31056431361607145,-0.20345982142857144],[0.3143275669642857,-0.20482352120535716],[0.3163818359375,-0.20540597098214286],[0.3176304408482143,-0.2056605747767857],[0.31808384486607144,-0.2056605747767857],[0.31808384486607144,-0.2056605747767857],[0.3182931082589286,-0.2056605747767857],[0.31875,-0.2056605747767857],[0.31898018973214287,-0.2056605747767857],[0.31942661830357144,-0.2054408482142857],[0.3196568080357143,-0.20520717075892858],[0.3196568080357143,-0.20497349330357142],[0.3196568080357143,-0.20475725446428572],[0.3196568080357143,-0.20453752790178573],[0.31716657366071427,-0.20298549107142858]]]",1,[32],,,,,,,,,,,,,,closet.jpg,space,1.716075,0,8,8,27,1,castle3.jpg,courtroom3.jpg,churchInside4.jpg,brewery2.jpg,,
Image_List_4,,,,,,,,,,,,,,,,44322,2020-11-20_16h00.42.886,analogCatScenes,2020.1.3,MacIntel,60,"[1792,1120]","[[[0.004446847098214286,-0.20436314174107142],[0.004446847098214286,-0.20436314174107142],[0.004446847098214286,-0.20436314174107142],[0.004446847098214286,-0.20436314174107142],[0.004446847098214286,-0.20436314174107142],[0.004446847098214286,-0.20436314174107142],[0.004446847098214286,-0.2020298549107143],[0.0063581194196428575,-0.1927455357142857],[0.012067522321428572,-0.17524762834821428],[0.018477957589285714,-0.15277273995535715],[0.025544084821428573,-0.1302978515625],[0.031703404017857144,-0.1099365234375],[0.036331612723214286,-0.09251534598214285],[0.039979771205357145,-0.08117327008928571],[0.04349888392857143,-0.06858607700892858],[0.04732491629464286,-0.05799734933035714],[0.0505615234375,-0.04823521205357143],[0.05622209821428571,-0.03365304129464286],[0.05973074776785714,-0.025299944196428573],[0.061586216517857145,-0.020448521205357142],[0.06363351004464286,-0.016671316964285716],[0.06459612165178572,-0.013800920758928572],[0.06515415736607143,-0.012119838169642858],[0.06568429129464286,-0.010770089285714286],[0.06593540736607142,-0.009748186383928572],[0.06619001116071428,-0.009001813616071429],[0.06642020089285715,-0.008534458705357142],[0.06642020089285715,-0.008314732142857143],[0.06642020089285715,-0.008095005580357143],[0.06642020089285715,-0.007631138392857143],[0.06669921875,-0.005950055803571428],[0.06736886160714285,-0.002242606026785714],[0.06772112165178572,0.0010951450892857143],[0.06849190848214286,0.00693359375],[0.06914760044642858,0.010281808035714286],[0.06977887834821428,0.015251813616071428],[0.07008231026785715,0.017679268973214285],[0.07064034598214286,0.0193603515625],[0.07091936383928571,0.021041434151785714],[0.07147391183035715,0.022719029017857145],[0.07202845982142857,0.024396623883928572],[0.07253766741071428,0.02547084263392857],[0.07253766741071428,0.025983537946428572],[0.07253766741071428,0.02620326450892857],[0.07253766741071428,0.02620326450892857],[0.07253766741071428,0.02620326450892857]]]",1,[46],,,,,,,,,,,,,,staircase7.jpg,space,1.969325,0,9,9,89,1,ruralroad7.jpg,track5.jpg,ShowJumping7.jpg,sculpturegarden3.jpg,,
Image_List_4,,,,,,,,,,,,,,,,44322,2020-11-20_16h00.42.886,analogCatScenes,2020.1.3,MacIntel,60,"[1792,1120]","[[[-0.0052943638392857146,-0.1971923828125],[-0.0052943638392857146,-0.1971923828125],[-0.0052943638392857146,-0.1971923828125],[-0.0052943638392857146,-0.1971923828125],[-0.0052943638392857146,-0.1971923828125],[-0.0052943638392857146,-0.1971923828125],[-0.0052943638392857146,-0.1971923828125],[-0.0052943638392857146,-0.1971923828125],[-0.0052943638392857146,-0.1971923828125],[-0.0052943638392857146,-0.1971923828125],[-0.0052943638392857146,-0.1971923828125],[-0.0052943638392857146,-0.1971923828125],[-0.0052943638392857146,-0.1971923828125],[-0.0052943638392857146,-0.1971923828125],[-0.0052943638392857146,-0.1971923828125],[-0.0052943638392857146,-0.196142578125],[-0.0052943638392857146,-0.19410226004464284],[-0.0053257533482142854,-0.1903355189732143],[-0.0043212890625,-0.1870082310267857],[-0.003006417410714286,-0.1837158203125],[-0.0017020089285714286,-0.1803920200892857],[0.0007463727678571428,-0.17444545200892858],[0.002793666294642857,-0.17066824776785713],[0.005545479910714286,-0.16518205915178572],[0.008283342633928572,-0.15972377232142856],[0.009950474330357144,-0.1563755580357143],[0.011997767857142858,-0.1529261997767857],[0.013643973214285714,-0.14995465959821427],[0.015237862723214285,-0.147412109375],[0.018069893973214287,-0.14386160714285715],[0.020891462053571428,-0.14032505580357144],[0.024679129464285715,-0.13615025111607143],[0.027880859375,-0.13326939174107144],[0.03107212611607143,-0.13007114955357144],[0.033816964285714284,-0.12735072544642856],[0.03604910714285714,-0.12544294084821428],[0.037112862723214284,-0.12409319196428571],[0.038131277901785714,-0.12306780133928572],[0.038916015625,-0.12171805245535715],[0.03995884486607143,-0.11985212053571428],[0.0407958984375,-0.11817103794642857],[0.04191196986607143,-0.11648995535714286],[0.042724609375,-0.11513671875],[0.043788364955357144,-0.11378696986607142],[0.044248744419642855,-0.11331961495535714],[0.04470912388392857,-0.11285226004464285],[0.04493931361607143,-0.11261858258928571],[0.04493931361607143,-0.11238490513392857],[0.04493931361607143,-0.11238490513392857],[0.04514857700892857,-0.11217215401785714],[0.04564383370535714,-0.11111188616071428],[0.047234235491071426,-0.10824846540178572],[0.0506103515625,-0.1037353515625],[0.0551513671875,-0.09795619419642858],[0.05943777901785714,-0.09259207589285715],[0.06071079799107143,-0.09131556919642857],[0.06301967075892857,-0.08899623325892857],[0.06461704799107143,-0.08683384486607143],[0.06626325334821428,-0.08353445870535714],[0.06891741071428571,-0.07859933035714285],[0.07142159598214286,-0.07467215401785714],[0.07354213169642858,-0.07041713169642858],[0.0751220703125,-0.06757463727678571],[0.07600446428571428,-0.06551688058035714],[0.0765380859375,-0.06416364397321428],[0.07706821986607143,-0.06281389508928571],[0.07762276785714285,-0.061136300223214285],[0.07815638950892857,-0.05978306361607143],[0.07841099330357143,-0.05843331473214286],[0.07891671316964285,-0.05741141183035714],[0.07981654575892858,-0.054990931919642855],[0.08187779017857143,-0.0515869140625],[0.08388671875,-0.0486083984375],[0.08641880580357143,-0.044468470982142856],[0.08753138950892857,-0.04279436383928571],[0.08801618303571429,-0.04204799107142857],[0.08824637276785714,-0.04181431361607143],[0.08824637276785714,-0.04181431361607143],[0.08824637276785714,-0.04181431361607143],[0.08824637276785714,-0.04181431361607143],[0.08824637276785714,-0.04181431361607143],[0.08824637276785714,-0.04181431361607143],[0.08719656808035714,-0.04181431361607143],[0.085546875,-0.04181431361607143]]]",1,[84],,,,,,,,,,,,,,sandDunes_desert_outdoor.jpg,space,3.467955,0,10,10,84,1,readingroom5.jpg,sidewalk2.jpg,restaurant13.jpg,rooftop2.jpg,,
Image_List_4,,,,,,,,,,,,,,,,44322,2020-11-20_16h00.42.886,analogCatScenes,2020.1.3,MacIntel,60,"[1792,1120]","[[[0.003913225446428571,-0.19581473214285713],[0.003913225446428571,-0.19581473214285713],[0.003913225446428571,-0.19581473214285713],[0.003913225446428571,-0.19581473214285713],[0.003913225446428571,-0.19581473214285713],[0.003913225446428571,-0.19581473214285713],[0.003913225446428571,-0.19581473214285713],[0.003913225446428571,-0.19581473214285713],[0.003913225446428571,-0.19581473214285713],[0.004328264508928571,-0.19539620535714286],[0.009929547991071428,-0.1893345424107143],[0.017424665178571427,-0.18226143973214284],[0.03343680245535714,-0.16625279017857142],[0.04045758928571429,-0.159228515625],[0.05630580357142857,-0.14549386160714287],[0.06819196428571428,-0.1363246372767857],[0.07801339285714286,-0.12753208705357144],[0.08662806919642857,-0.12082170758928572],[0.09670061383928572,-0.11376255580357143],[0.10530133928571428,-0.10706263950892857],[0.113671875,-0.10099748883928572],[0.12129603794642857,-0.09560546875],[0.12855747767857142,-0.089697265625],[0.13623744419642858,-0.08426688058035714],[0.1422119140625,-0.07913992745535714],[0.14612862723214284,-0.07564522879464286],[0.15183803013392858,-0.06955217633928572],[0.15520717075892856,-0.06505650111607143],[0.1590541294642857,-0.06002720424107143],[0.16420200892857142,-0.054014369419642855],[0.17310616629464284,-0.043763950892857145],[0.17963518415178573,-0.03581891741071429],[0.18499581473214285,-0.028212193080357145],[0.1879917689732143,-0.023744419642857142],[0.19108537946428572,-0.018687220982142858],[0.19348842075892858,-0.015590122767857142],[0.1946533203125,-0.013528878348214285],[0.19576590401785715,-0.011854771205357143],[0.19625069754464286,-0.0111083984375],[0.19673200334821428,-0.010365513392857142],[0.19673200334821428,-0.0101318359375],[0.19673200334821428,-0.009678431919642858],[0.19589146205357144,-0.009116908482142857]]]",1,[43],,,,,,,,,,,,,,restaurant8.jpg,space,2.284675,0,11,11,83,1,readingroom1.jpg,sculpturegarden1.jpg,promenadeDeck6.jpg,readingroom2.jpg,,
Image_List_4,,,,,,,,,,,,,,,,44322,2020-11-20_16h00.42.886,analogCatScenes,2020.1.3,MacIntel,60,"[1792,1120]","[[[0.007184709821428571,-0.20656040736607142],[0.007184709821428571,-0.20656040736607142],[0.007184709821428571,-0.20656040736607142],[0.007184709821428571,-0.20656040736607142],[0.007184709821428571,-0.20656040736607142],[0.007184709821428571,-0.20656040736607142],[0.007184709821428571,-0.20656040736607142],[0.007184709821428571,-0.20656040736607142],[0.007184709821428571,-0.20656040736607142],[0.007184709821428571,-0.20656040736607142],[0.006769670758928571,-0.20656040736607142],[0.0034214564732142857,-0.2062046595982143],[-0.004251534598214286,-0.20211704799107144],[-0.016144670758928573,-0.19589146205357144],[-0.02997349330357143,-0.18814871651785714],[-0.046568080357142855,-0.17925851004464285],[-0.06657366071428572,-0.168310546875],[-0.08565848214285714,-0.15906808035714284],[-0.10790318080357143,-0.14990931919642858],[-0.12347586495535715,-0.14419642857142856],[-0.14029366629464285,-0.13724190848214285],[-0.15735560825892858,-0.12907366071428572],[-0.17003348214285716,-0.12273297991071429],[-0.17961774553571427,-0.11746303013392857],[-0.1877476283482143,-0.11248953683035715],[-0.19780970982142856,-0.10660226004464286],[-0.203857421875,-0.10297502790178571],[-0.20745675223214285,-0.10008719308035714],[-0.2113525390625,-0.097607421875],[-0.21432407924107144,-0.09529506138392857],[-0.21732352120535714,-0.09296177455357142],[-0.22133440290178572,-0.09005650111607143],[-0.22445242745535715,-0.08759765625],[-0.22713099888392857,-0.08527483258928571],[-0.23080008370535715,-0.08269391741071429],[-0.23389718191964284,-0.07995256696428571],[-0.23613630022321427,-0.07771344866071428],[-0.23804408482142858,-0.07547433035714286],[-0.23987862723214284,-0.07363978794642857],[-0.24175502232142856,-0.07143205915178572],[-0.24358258928571427,-0.0696044921875],[-0.24501255580357142,-0.06817452566964285],[-0.24669015066964287,-0.06705496651785714],[-0.24771554129464285,-0.0662841796875],[-0.24925362723214287,-0.06525530133928571],[-0.25,-0.06450892857142858],[-0.251025390625,-0.06373814174107142],[-0.25205078125,-0.06296735491071428],[-0.253076171875,-0.062451171875],[-0.2540980747767857,-0.06168387276785714],[-0.2551234654017857,-0.06142578125],[-0.25586983816964287,-0.060934012276785715],[-0.25633719308035713,-0.06046665736607143],[-0.25680454799107144,-0.06023297991071429],[-0.25680454799107144,-0.059765625],[-0.25703822544642857,-0.05929827008928571],[-0.2575753348214286,-0.057948521205357144]]]",1,[57],,,,,,,,,,,,,,airplanecabin5.jpg,space,3.58395,0,12,12,0,1,airplanecabin1.jpg,alley2.jpg,appleorchard4.jpg,airplanecabin3.jpg,,
Image_List_4,,,,,,,,,,,,,,,,44322,2020-11-20_16h00.42.886,analogCatScenes,2020.1.3,MacIntel,60,"[1792,1120]","[[[-0.002821568080357143,-0.20133928571428572],[-0.002821568080357143,-0.20133928571428572],[-0.002821568080357143,-0.20133928571428572],[-0.002821568080357143,-0.20133928571428572],[-0.002821568080357143,-0.20133928571428572],[-0.002821568080357143,-0.20133928571428572],[-0.002821568080357143,-0.20133928571428572],[-0.002821568080357143,-0.20133928571428572],[-0.002821568080357143,-0.19850725446428572],[-0.002821568080357143,-0.19000069754464285],[-0.002821568080357143,-0.16300223214285714],[-0.002821568080357143,-0.1270717075892857],[-0.002821568080357143,-0.09613909040178571],[-0.002821568080357143,-0.07221330915178571],[-0.002821568080357143,-0.04989885602678571],[-0.002821568080357143,-0.036167689732142856],[-0.002821568080357143,-0.026429966517857142],[-0.002821568080357143,-0.017410714285714286],[-0.002821568080357143,-0.007599748883928572],[-0.002821568080357143,0.0030796595982142856],[-0.002821568080357143,0.008907645089285715],[-0.002821568080357143,0.013187081473214285],[-0.0024937220982142855,0.01648646763392857],[-0.0024937220982142855,0.018167550223214285],[-0.0022391183035714284,0.01891392299107143],[-0.0022391183035714284,0.019381277901785714],[-0.0022391183035714284,0.019614955357142857],[-0.0022391183035714284,0.019614955357142857],[-0.0022391183035714284,0.019614955357142857],[-0.0022391183035714284,0.019614955357142857],[-0.0022391183035714284,0.019614955357142857],[-0.0022391183035714284,0.019614955357142857],[-0.0026820591517857143,0.019614955357142857]]]",1,[33],,,,,,,,,,,,,,readingroom4.jpg,space,3.21743,0,13,13,82,1,publicrestroom2.jpg,sandDunes_desert_outdoor9.jpg,promenadeDeck3.jpg,postoffice4.jpg,,
Image_List_4,,,,,,,,,,,,,,,,44322,2020-11-20_16h00.42.886,analogCatScenes,2020.1.3,MacIntel,60,"[1792,1120]","[[[-0.0021937779017857143,-0.20701381138392858],[-0.0021937779017857143,-0.20701381138392858],[-0.0021937779017857143,-0.20701381138392858],[-0.0021937779017857143,-0.20701381138392858],[-0.0021937779017857143,-0.20701381138392858],[-0.0021937779017857143,-0.20701381138392858],[-0.0021937779017857143,-0.20701381138392858],[-0.0021937779017857143,-0.20701381138392858],[-0.0021937779017857143,-0.20701381138392858],[-0.0021937779017857143,-0.20596400669642856],[-0.0021937779017857143,-0.19929547991071428],[-0.0021937779017857143,-0.18892299107142857],[-0.0021937779017857143,-0.1724818638392857],[-0.0021937779017857143,-0.15212053571428572],[-0.0021937779017857143,-0.13279157366071428],[-0.003407505580357143,-0.11346261160714285],[-0.0051722935267857146,-0.09511369977678572],[-0.007010323660714286,-0.07573590959821429],[-0.008946010044642858,-0.053348214285714284],[-0.010934012276785714,-0.028690011160714287],[-0.012088448660714285,-0.010954938616071429],[-0.013870675223214286,0.007275390625],[-0.015534319196428571,0.022788783482142857],[-0.017476981026785715,0.03397391183035714],[-0.018784877232142855,0.042337472098214285],[-0.020382254464285713,0.05106375558035714],[-0.021135602678571428,0.05636509486607143],[-0.02149135044642857,0.0606201171875],[-0.02149135044642857,0.06349051339285715],[-0.021773856026785714,0.06516462053571428],[-0.021773856026785714,0.06651785714285714],[-0.021773856026785714,0.06787109375],[-0.022031947544642858,0.06861746651785715],[-0.022031947544642858,0.06936383928571428],[-0.022265625,0.06983119419642857],[-0.022265625,0.06983119419642857],[-0.022265625,0.06983119419642857],[-0.022265625,0.06983119419642857],[-0.022265625,0.06983119419642857]]]",1,[39],,,,,,,,,,,,,,metroInside1.jpg,space,1.96662,0,14,14,69,1,liquorstore8.jpg,parkinglot2.jpg,livingroom.jpg,icecream2.jpg,,
Image_List_4,,,,,,,,,,,,,,,,44322,2020-11-20_16h00.42.886,analogCatScenes,2020.1.3,MacIntel,60,"[1792,1120]","[[[-0.002256556919642857,-0.19866420200892856],[-0.002256556919642857,-0.19866420200892856],[-0.002256556919642857,-0.19866420200892856],[-0.002256556919642857,-0.19866420200892856],[-0.002256556919642857,-0.19866420200892856],[-0.002256556919642857,-0.19866420200892856],[-0.002256556919642857,-0.19866420200892856],[-0.002256556919642857,-0.19866420200892856],[0.0013636997767857142,-0.19866420200892856],[0.008457728794642858,-0.19866420200892856],[0.02147739955357143,-0.19866420200892856],[0.03138253348214286,-0.19866420200892856],[0.04795968191964286,-0.19815848214285714],[0.05768694196428571,-0.19768415178571427],[0.06545758928571428,-0.19636928013392857],[0.07313755580357142,-0.19508579799107142],[0.08567940848214285,-0.19248744419642858],[0.09437779017857142,-0.18983328683035713],[0.10555245535714286,-0.18594796316964285],[0.11220354352678572,-0.1834228515625],[0.11866978236607142,-0.18099539620535715],[0.12515345982142856,-0.17852608816964285],[0.129931640625,-0.17705426897321427],[0.13700474330357143,-0.17495814732142856],[0.14400809151785715,-0.17330845424107144],[0.14949776785714286,-0.17179478236607143],[0.15484793526785715,-0.1706298828125],[0.15812639508928572,-0.16964285714285715],[0.15946916852678572,-0.1693603515625],[0.16132463727678573,-0.1688197544642857],[0.16417410714285716,-0.16785365513392858],[0.16842215401785715,-0.16678641183035714],[0.17229352678571427,-0.16541573660714284],[0.17938755580357144,-0.16376604352678573],[0.18322056361607142,-0.16301618303571427],[0.1890904017857143,-0.1622314453125],[0.19386509486607142,-0.16185128348214287],[0.19975237165178572,-0.16185128348214287],[0.20463169642857143,-0.16185128348214287],[0.21182338169642856,-0.16185128348214287],[0.21610630580357143,-0.16185128348214287],[0.22035435267857142,-0.16185128348214287],[0.22363978794642858,-0.16217912946428573],[0.22606724330357142,-0.16248256138392858],[0.22741001674107142,-0.16273367745535713],[0.22786690848214286,-0.16273367745535713],[0.22832380022321427,-0.16273367745535713],[0.22832380022321427,-0.16251395089285714]]]",1,[48],,,,,,,,,,,,,,constructionSite4.jpg,space,1.78538,0,15,15,29,1,cornfield2.jpg,deck2.jpg,cliff2.jpg,bridalboutique3.jpg,,
Image_List_4,,,,,,,,,,,,,,,,44322,2020-11-20_16h00.42.886,analogCatScenes,2020.1.3,MacIntel,60,"[1792,1120]","[[[-0.00013602120535714286,-0.196875],[-0.00013602120535714286,-0.196875],[-0.00013602120535714286,-0.196875],[-0.00013602120535714286,-0.196875],[-0.00013602120535714286,-0.196875],[-0.00013602120535714286,-0.196875],[0.00006975446428571428,-0.196875],[0.006473214285714286,-0.196875],[0.018613978794642858,-0.196875],[0.04420689174107143,-0.19532296316964284],[0.07090890066964285,-0.19406040736607144],[0.09234444754464285,-0.1927978515625],[0.1115234375,-0.18944614955357142],[0.1279575892857143,-0.18604561941964284],[0.14435686383928573,-0.18207310267857144],[0.160791015625,-0.17640555245535713],[0.17664620535714284,-0.17015904017857142],[0.19043666294642858,-0.16416364397321428],[0.2055908203125,-0.15685337611607142],[0.219091796875,-0.14984305245535715],[0.22942243303571427,-0.14444754464285714],[0.23525041852678572,-0.141650390625],[0.24247349330357143,-0.13737095424107143],[0.24696568080357142,-0.13399832589285715],[0.2517717633928571,-0.12918526785714285],[0.25795200892857145,-0.12254464285714285],[0.268310546875,-0.1107666015625],[0.27403738839285713,-0.1041259765625],[0.27767159598214286,-0.0984619140625],[0.2808279854910714,-0.09297223772321428],[0.2835658482142857,-0.08750697544642858],[0.28583984375,-0.08219168526785714],[0.2881103515625,-0.0766845703125],[0.290380859375,-0.07171805245535715],[0.29227469308035714,-0.06640276227678571],[0.29373953683035714,-0.06161760602678571],[0.29562290736607144,-0.05633021763392857],[0.29665876116071427,-0.052553013392857145],[0.2976806640625,-0.04881068638392857],[0.2986432756696429,-0.04594029017857143],[0.2991978236607143,-0.044210379464285715],[0.2997279575892857,-0.04286063058035714],[0.30025809151785715,-0.041510881696428574],[0.3005126953125,-0.040157645089285716],[0.3010219029017857,-0.038619559151785714],[0.30125209263392855,-0.03815220424107143],[0.30125209263392855,-0.03740583147321429],[0.3009695870535714,-0.03656529017857143]]]",1,[48],,,,,,,,,,,,,,baggageClaim3.jpg,space,1.751685,0,16,16,7,1,attic2.jpg,banquetHall4.jpg,backstage1.jpg,applestore2.jpg,,
Image_List_4,,,,,,,,,,,,,,,,44322,2020-11-20_16h00.42.886,analogCatScenes,2020.1.3,MacIntel,60,"[1792,1120]","[[[-0.0004568917410714286,-0.19445103236607142],[-0.0004568917410714286,-0.19445103236607142],[-0.0004568917410714286,-0.19445103236607142],[-0.0004568917410714286,-0.19445103236607142],[-0.0004568917410714286,-0.19445103236607142],[-0.0004568917410714286,-0.19445103236607142],[-0.0004568917410714286,-0.19445103236607142],[-0.0004568917410714286,-0.19445103236607142],[-0.0004568917410714286,-0.19445103236607142],[-0.0004568917410714286,-0.19445103236607142],[-0.0004568917410714286,-0.19445103236607142],[-0.0004568917410714286,-0.19445103236607142],[-0.0004568917410714286,-0.19445103236607142],[-0.0004568917410714286,-0.19445103236607142],[-0.0004568917410714286,-0.19242117745535714],[-0.003452845982142857,-0.1847202845982143],[-0.008792550223214285,-0.17147042410714286],[-0.01795131138392857,-0.14922572544642856],[-0.034308733258928574,-0.1121826171875],[-0.04526018415178571,-0.08912179129464286],[-0.06051897321428571,-0.06071079799107143],[-0.07653459821428571,-0.03377162388392857],[-0.09159109933035714,-0.010560825892857144],[-0.106494140625,0.011167689732142856],[-0.12051130022321428,0.031853376116071426],[-0.13886369977678573,0.059685407366071426],[-0.14483816964285715,0.07012067522321429],[-0.15139857700892856,0.08122907366071429],[-0.156396484375,0.08941824776785715],[-0.15867396763392858,0.093896484375],[-0.16134556361607144,0.09984305245535714],[-0.16347307477678572,0.10409807477678572],[-0.16446358816964285,0.10739397321428572],[-0.16535295758928573,0.10945172991071428],[-0.165869140625,0.11047712053571429],[-0.165869140625,0.11094098772321428],[-0.165869140625,0.11094098772321428],[-0.165869140625,0.11094098772321428],[-0.165869140625,0.11094098772321428],[-0.165869140625,0.11094098772321428]]]",1,[40],,,,,,,,,,,,,,homegarage3.jpg,space,1.917505,0,17,17,53,1,gazebo3.jpg,homeoffice.jpg,frontLawn3.jpg,fountain.jpg,,
Image_List_4,,,,,,,,,,,,,,,,44322,2020-11-20_16h00.42.886,analogCatScenes,2020.1.3,MacIntel,60,"[1792,1120]","[[[-0.005437360491071429,-0.18965541294642857],[-0.005437360491071429,-0.18965541294642857],[-0.005437360491071429,-0.18965541294642857],[-0.005437360491071429,-0.18965541294642857],[-0.005437360491071429,-0.18965541294642857],[-0.005437360491071429,-0.18965541294642857],[-0.005437360491071429,-0.18965541294642857],[-0.005437360491071429,-0.18965541294642857],[-0.001988002232142857,-0.18965541294642857],[0.012656947544642857,-0.18965541294642857],[0.02776576450892857,-0.1869384765625],[0.0447509765625,-0.18409249441964284],[0.062088448660714286,-0.181201171875],[0.07265973772321428,-0.17878766741071428],[0.09362095424107143,-0.1729736328125],[0.11135951450892857,-0.16645159040178573],[0.12909807477678573,-0.159326171875],[0.14859444754464285,-0.14988839285714287],[0.1620814732142857,-0.14215262276785715],[0.177734375,-0.13344029017857142],[0.18849748883928572,-0.12574288504464284],[0.19620884486607143,-0.12029157366071429],[0.2026402064732143,-0.11556919642857143],[0.20920758928571428,-0.10987025669642857],[0.21512625558035714,-0.10437360491071429],[0.22195870535714285,-0.0975341796875],[0.2279296875,-0.09155622209821429],[0.23558872767857142,-0.08389020647321428],[0.24598563058035713,-0.07393624441964286],[0.2526157924107143,-0.06727818080357142],[0.25858328683035714,-0.0613037109375],[0.26416015625,-0.055290876116071426],[0.26736886160714285,-0.051695033482142855],[0.2702008928571429,-0.04814453125],[0.27103794642857143,-0.046463448660714286],[0.2713657924107143,-0.04359305245535714]]]",1,[36],,,,,,,,,,,,,,carmechanic.jpg,space,1.584185,0,18,18,17,1,bikerack1.jpg,campsite6.jpg,breakroom4.jpg,baseball6.jpg,,
Image_List_4,,,,,,,,,,,,,,,,44322,2020-11-20_16h00.42.886,analogCatScenes,2020.1.3,MacIntel,60,"[1792,1120]","[[[0.0047607421875,-0.1962158203125],[0.0047607421875,-0.1962158203125],[0.0047607421875,-0.1962158203125],[0.0047607421875,-0.1962158203125],[0.0047607421875,-0.1962158203125],[0.0047607421875,-0.1962158203125],[0.0047607421875,-0.1962158203125],[0.005831473214285714,-0.19599958147321428],[0.012569754464285715,-0.19258858816964286],[0.02239467075892857,-0.18666294642857142],[0.03449358258928571,-0.17876325334821427],[0.04904087611607143,-0.1689418247767857],[0.0607421875,-0.15844029017857142],[0.0712646484375,-0.14624720982142858],[0.08040597098214286,-0.1313511439732143],[0.09046805245535715,-0.11177106584821428],[0.1000244140625,-0.08650251116071428],[0.11033412388392858,-0.05448172433035714],[0.11689453125,-0.023838588169642856],[0.11937779017857143,-0.006438337053571428],[0.12169015066964285,0.010982840401785715],[0.12204241071428572,0.021515764508928573],[0.12204241071428572,0.025760323660714287],[0.12204241071428572,0.028250558035714284],[0.12204241071428572,0.029324776785714286],[0.12204241071428572,0.029837472098214284],[0.12204241071428572,0.029837472098214284],[0.12204241071428572,0.029837472098214284],[0.12204241071428572,0.029837472098214284]],[[-0.002096121651785714,-0.1917445591517857],[-0.002096121651785714,-0.1917445591517857],[-0.002096121651785714,-0.1917445591517857],[-0.002096121651785714,-0.1917445591517857],[-0.002096121651785714,-0.1917445591517857],[-0.002096121651785714,-0.1917445591517857],[-0.002096121651785714,-0.1917445591517857],[-0.002096121651785714,-0.1917445591517857],[-0.002096121651785714,-0.1917445591517857],[-0.002096121651785714,-0.19215959821428572],[-0.004739815848214286,-0.19651576450892858],[-0.012604631696428571,-0.202978515625],[-0.02722865513392857,-0.21139439174107144],[-0.04804338727678571,-0.21958705357142858],[-0.07164829799107143,-0.22554757254464286],[-0.09453822544642858,-0.2279331752232143],[-0.11010044642857143,-0.22850864955357142],[-0.12297014508928572,-0.22850864955357142],[-0.13505161830357143,-0.22850864955357142],[-0.14636928013392858,-0.22606375558035716],[-0.1561279296875,-0.22330845424107143],[-0.1652099609375,-0.2205810546875],[-0.17353166852678573,-0.21707938058035714],[-0.18080705915178572,-0.21365792410714285],[-0.18747907366071428,-0.20989118303571427],[-0.19434988839285713,-0.2055943080357143],[-0.20135672433035715,-0.20076032366071428],[-0.20799734933035716,-0.19502650669642857],[-0.2154052734375,-0.18807198660714286],[-0.22142508370535716,-0.1802036830357143],[-0.22667410714285716,-0.17066476004464284],[-0.23329729352678572,-0.15284249441964284],[-0.23814174107142858,-0.12300153459821428],[-0.23944963727678573,-0.09950474330357142],[-0.23944963727678573,-0.08245675223214285],[-0.24008091517857144,-0.06307547433035714],[-0.24008091517857144,-0.048440987723214285],[-0.24008091517857144,-0.037318638392857144],[-0.24008091517857144,-0.028184291294642855],[-0.23965890066964285,-0.02051478794642857],[-0.23892996651785714,-0.015628487723214287],[-0.23780343191964284,-0.0103515625],[-0.23712332589285715,-0.006574358258928571],[-0.23652692522321428,-0.004171316964285714],[-0.23627232142857144,-0.0031459263392857144],[-0.23604213169642857,-0.0026820591517857143],[-0.23604213169642857,-0.0024483816964285714],[-0.23604213169642857,-0.0024483816964285714]]]",2,"[29,48]",,,,,,,,,,,,,,museum3.jpg,space,3.216705,0,19,19,71,1,metroInside2.jpg,pavilion5.jpg,metroInside3.jpg,jewelrystore.jpg,,
Image_List_4,,,,,,,,,,,,,,,,44322,2020-11-20_16h00.42.886,analogCatScenes,2020.1.3,MacIntel,60,"[1792,1120]","[[[-0.0011056082589285714,-0.20694754464285714],[-0.0011056082589285714,-0.20694754464285714],[-0.0011056082589285714,-0.20694754464285714],[-0.0011056082589285714,-0.20694754464285714],[-0.0011056082589285714,-0.20694754464285714],[-0.0011056082589285714,-0.20694754464285714],[-0.0011056082589285714,-0.20694754464285714],[-0.000038364955357142856,-0.20694754464285714],[0.009490094866071429,-0.2035400390625],[0.02840053013392857,-0.19524972098214285],[0.0563720703125,-0.18377511160714285],[0.08664899553571428,-0.17195870535714286],[0.10855189732142857,-0.16478794642857142],[0.13323102678571427,-0.15678362165178572],[0.15260532924107142,-0.15132184709821428],[0.16489606584821428,-0.14763881138392856],[0.17864467075892856,-0.14393484933035713],[0.19156319754464285,-0.14030412946428572],[0.20360630580357142,-0.13677455357142856],[0.21562848772321427,-0.132763671875],[0.22755301339285713,-0.1287841796875],[0.23735002790178572,-0.12505231584821427],[0.24434291294642857,-0.12178780691964286],[0.24720633370535713,-0.12018694196428571],[0.24822474888392856,-0.11916155133928572],[0.2486851283482143,-0.11869419642857143],[0.2486851283482143,-0.11794782366071428],[0.2486851283482143,-0.11743861607142857]]]",1,[28],,,,,,,,,,,,,,checkoutcounter2.jpg,space,1.58386,0,20,20,25,1,campsite7.jpg,conference3.jpg,church3.jpg,botanicalGarden4.jpg,,
Image_List_4,,,,,,,,,,,,,,,,44322,2020-11-20_16h00.42.886,analogCatScenes,2020.1.3,MacIntel,60,"[1792,1120]","[[[0.004373604910714286,-0.20181361607142856],[0.004373604910714286,-0.20181361607142856],[0.004373604910714286,-0.20181361607142856],[0.004373604910714286,-0.20181361607142856],[0.004373604910714286,-0.20181361607142856],[0.004373604910714286,-0.20181361607142856],[0.004373604910714286,-0.20181361607142856],[0.010055106026785714,-0.20181361607142856],[0.025760323660714287,-0.20181361607142856],[0.0551025390625,-0.20181361607142856],[0.0766357421875,-0.20181361607142856],[0.10569893973214285,-0.20181361607142856],[0.12903529575892858,-0.20181361607142856],[0.16083286830357144,-0.20181361607142856],[0.18020717075892856,-0.20181361607142856],[0.19952915736607144,-0.20181361607142856],[0.2118198939732143,-0.20181361607142856],[0.2246826171875,-0.20181361607142856],[0.2299560546875,-0.20181361607142856],[0.2342564174107143,-0.20181361607142856],[0.23502022879464285,-0.20130092075892858]]]",1,[21],,,,,,,,,,,,,,castle2.jpg,space,1.66761,0,21,21,18,1,bleachers5.jpg,casino1.jpg,brewery4.jpg,basement6.jpg,,
Image_List_4,,,,,,,,,,,,,,,,44322,2020-11-20_16h00.42.886,analogCatScenes,2020.1.3,MacIntel,60,"[1792,1120]","[[[-0.004171316964285714,-0.19508231026785713],[-0.004171316964285714,-0.19508231026785713],[-0.004171316964285714,-0.19508231026785713],[-0.004171316964285714,-0.19508231026785713],[-0.004171316964285714,-0.19508231026785713],[-0.004171316964285714,-0.19508231026785713],[-0.004171316964285714,-0.19508231026785713],[-0.004171316964285714,-0.19508231026785713],[-0.004171316964285714,-0.19508231026785713],[-0.004171316964285714,-0.19508231026785713],[-0.005671037946428571,-0.19508231026785713],[-0.012869698660714286,-0.19508231026785713],[-0.028128487723214284,-0.191259765625],[-0.05040108816964286,-0.18425641741071427],[-0.07460239955357142,-0.17484305245535714],[-0.10001395089285714,-0.16148158482142858],[-0.12557896205357144,-0.14486258370535715],[-0.13889508928571428,-0.13270438058035713],[-0.14695870535714287,-0.12262486049107142],[-0.15184151785714287,-0.11236049107142858],[-0.15462820870535715,-0.1026123046875],[-0.1563999720982143,-0.09420689174107143],[-0.1577113560267857,-0.08582589285714286],[-0.15900530133928573,-0.07809709821428572],[-0.1603724888392857,-0.06901506696428572],[-0.16133510044642857,-0.058475167410714284],[-0.16282435825892858,-0.04716796875],[-0.16383579799107142,-0.03508649553571429],[-0.164794921875,-0.024564034598214286],[-0.164794921875,-0.017654854910714286],[-0.16532505580357143,-0.007568359375],[-0.16532505580357143,-0.0016741071428571428],[-0.16532505580357143,0.004192243303571428],[-0.16431361607142858,0.007540457589285714],[-0.1618896484375,0.013438197544642858],[-0.16063755580357142,0.01627720424107143],[-0.15947265625,0.018338448660714286],[-0.15863560267857144,0.02001953125],[-0.15815080915178573,0.020765904017857145],[-0.15766950334821428,0.021275111607142856],[-0.15766950334821428,0.0215087890625],[-0.15766950334821428,0.021728515625],[-0.15766950334821428,0.0221923828125]]]",1,[43],,,,,,,,,,,,,,basement5.jpg,space,1.68539,0,22,22,9,1,auto_showroom3.jpg,bar2.jpg,ballroom2.jpg,arcade2.jpg,,
Image_List_4,,,,,,,,,,,,,,,,44322,2020-11-20_16h00.42.886,analogCatScenes,2020.1.3,MacIntel,60,"[1792,1120]","[[[0.0059047154017857146,-0.21055385044642858],[0.0059047154017857146,-0.21055385044642858],[0.0059047154017857146,-0.21055385044642858],[0.0059047154017857146,-0.21055385044642858],[0.0059047154017857146,-0.21055385044642858],[0.0059047154017857146,-0.21055385044642858],[0.0059047154017857146,-0.21055385044642858],[0.0059047154017857146,-0.21055385044642858],[0.0059047154017857146,-0.21055385044642858],[0.0059047154017857146,-0.21055385044642858],[0.009552873883928571,-0.21055385044642858],[0.025864955357142855,-0.20924246651785713],[0.049462890625,-0.20531180245535716],[0.0725341796875,-0.20385044642857142],[0.0895751953125,-0.20385044642857142],[0.11137346540178572,-0.20385044642857142],[0.12770298549107142,-0.20385044642857142],[0.14707728794642858,-0.2032191685267857],[0.16439732142857144,-0.19971749441964284],[0.19276646205357142,-0.19063895089285715],[0.2138950892857143,-0.18232770647321428],[0.23401925223214284,-0.17288992745535714],[0.25416434151785716,-0.16352887834821428],[0.2670131138392857,-0.15863560267857144],[0.281640625,-0.15321568080357142],[0.2921735491071429,-0.150341796875],[0.2976806640625,-0.14914899553571428],[0.30349818638392856,-0.14835728236607143],[0.30885532924107145,-0.14835728236607143],[0.31007254464285716,-0.14835728236607143]],[[-0.003724888392857143,-0.19508231026785713],[-0.003724888392857143,-0.19508231026785713],[-0.003724888392857143,-0.19508231026785713],[-0.003724888392857143,-0.19508231026785713],[-0.003724888392857143,-0.19508231026785713],[-0.003724888392857143,-0.19508231026785713],[-0.003724888392857143,-0.19508231026785713],[-0.003934151785714286,-0.19508231026785713],[-0.009915597098214286,-0.19508231026785713],[-0.022464425223214287,-0.19508231026785713],[-0.043680245535714285,-0.19508231026785713],[-0.06836635044642857,-0.19508231026785713],[-0.09069475446428571,-0.19508231026785713],[-0.10690569196428572,-0.19508231026785713],[-0.12154017857142857,-0.19508231026785713],[-0.12772739955357143,-0.19508231026785713],[-0.13686174665178572,-0.19508231026785713],[-0.14018903459821427,-0.19508231026785713],[-0.14559151785714286,-0.19373604910714284],[-0.14886648995535715,-0.19242117745535714],[-0.15130789620535715,-0.19120047433035714],[-0.1542724609375,-0.18955078125],[-0.15633370535714286,-0.18837890625],[-0.15877511160714286,-0.18746163504464286],[-0.16119559151785715,-0.1862513950892857],[-0.1640659877232143,-0.18530970982142858],[-0.1688511439732143,-0.1845738002232143],[-0.17362932477678572,-0.18421805245535713],[-0.17894461495535716,-0.183837890625],[-0.18470633370535713,-0.18338099888392856],[-0.19046805245535714,-0.18338099888392856],[-0.19576939174107144,-0.18338099888392856],[-0.20155901227678572,-0.18338099888392856],[-0.2073939732142857,-0.1829833984375],[-0.21170131138392856,-0.1829833984375],[-0.21648646763392856,-0.1829833984375],[-0.22335379464285715,-0.1829833984375],[-0.22722865513392856,-0.1829833984375],[-0.231005859375,-0.1829833984375],[-0.23478306361607143,-0.18262765066964284],[-0.23808244977678572,-0.18229631696428572],[-0.24095284598214287,-0.18229631696428572],[-0.24337332589285715,-0.18198939732142858],[-0.2454345703125,-0.18168247767857143],[-0.24711216517857143,-0.18140345982142858],[-0.24813755580357144,-0.18140345982142858],[-0.24915945870535713,-0.18114536830357142],[-0.2501848493303571,-0.18088727678571428],[-0.2509312220982143,-0.1803955078125],[-0.25167759486607144,-0.18016183035714287],[-0.25270298549107145,-0.1799037388392857],[-0.2537283761160714,-0.17964564732142857],[-0.25474679129464284,-0.17964564732142857],[-0.25577218191964285,-0.17964564732142857],[-0.2579554966517857,-0.17964564732142857],[-0.2596226283482143,-0.17936314174107143],[-0.2613037109375,-0.17936314174107143],[-0.2623291015625,-0.17936314174107143],[-0.2633544921875,-0.17936314174107143],[-0.2643798828125,-0.1791050502232143],[-0.26512625558035713,-0.1791050502232143],[-0.26559012276785715,-0.1791050502232143],[-0.2663364955357143,-0.1791050502232143],[-0.2668003627232143,-0.17887137276785714],[-0.2672677176339286,-0.17887137276785714],[-0.2672677176339286,-0.17887137276785714],[-0.2672677176339286,-0.17887137276785714],[-0.2672677176339286,-0.17887137276785714],[-0.2666224888392857,-0.17887137276785714],[-0.2645717075892857,-0.17887137276785714],[-0.2625174386160714,-0.17945382254464284],[-0.26084681919642855,-0.18000837053571428]]]",2,"[30,72]",,,,,,,,,,,,,,fountain4.jpg,space,4.15036,0,23,23,46,1,flowershop.jpg,frontLawn5.jpg,farmersmarket4.jpg,dormroom6.jpg,,
Image_List_4,,,,,,,,,,,,,,,,44322,2020-11-20_16h00.42.886,analogCatScenes,2020.1.3,MacIntel,60,"[1792,1120]","[[[0.003627232142857143,-0.19427664620535715],[0.003627232142857143,-0.19427664620535715],[0.003627232142857143,-0.19427664620535715],[0.003627232142857143,-0.19427664620535715],[0.003627232142857143,-0.19427664620535715],[0.003627232142857143,-0.19427664620535715],[0.003627232142857143,-0.19427664620535715],[0.003627232142857143,-0.19427664620535715],[0.003627232142857143,-0.19427664620535715],[0.003627232142857143,-0.19173409598214286],[0.003627232142857143,-0.17707868303571428],[0.003627232142857143,-0.1509730747767857],[0.006591796875,-0.12027762276785714],[0.011331612723214285,-0.09728655133928571],[0.02091587611607143,-0.06622837611607142],[0.028330775669642858,-0.04109584263392857],[0.03154994419642857,-0.027870396205357143],[0.03512834821428571,-0.015848214285714285],[0.036739676339285716,-0.009197126116071428],[0.039055524553571426,0.00008370535714285714],[0.040670340401785715,0.006605747767857143],[0.042679268973214286,0.013044084821428572],[0.04413364955357143,0.017909458705357144],[0.045647321428571426,0.023224748883928573],[0.0466064453125,0.026084681919642857],[0.047140066964285715,0.027437918526785714],[0.04739467075892857,0.028180803571428572],[0.04739467075892857,0.028414481026785714],[0.04739467075892857,0.028414481026785714],[0.04739467075892857,0.028414481026785714],[0.04696916852678571,0.028414481026785714],[0.045894949776785716,0.028414481026785714],[0.04374302455357143,0.028414481026785714]]]",1,[33],,,,,,,,,,,,,,farm4.jpg,space,4.13412,0,24,24,42,1,exerciseequipment3.jpg,firestation3.jpg,drymountains6.jpg,desertvegetation2.jpg,,
Image_List_4,,,,,,,,,,,,,,,,44322,2020-11-20_16h00.42.886,analogCatScenes,2020.1.3,MacIntel,60,"[1792,1120]","[[[0.005461774553571428,-0.19093191964285713],[0.005461774553571428,-0.19093191964285713],[0.005461774553571428,-0.19093191964285713],[0.005461774553571428,-0.19093191964285713],[0.005461774553571428,-0.19093191964285713],[0.005461774553571428,-0.19093191964285713],[0.005461774553571428,-0.19093191964285713],[0.008530970982142857,-0.19093191964285713],[0.017588588169642858,-0.19093191964285713],[0.05355747767857143,-0.183740234375],[0.08577706473214286,-0.17482561383928572],[0.10555594308035714,-0.16998814174107144],[0.120751953125,-0.16548897879464286],[0.13799176897321427,-0.16036202566964286],[0.15178920200892856,-0.15668247767857144],[0.16330915178571428,-0.15215192522321427],[0.18162667410714287,-0.14424874441964286],[0.1975062779017857,-0.13799525669642856],[0.21466587611607144,-0.13089425223214285],[0.22627999441964286,-0.12738560267857144],[0.2348353794642857,-0.12503487723214285],[0.24178641183035715,-0.12297014508928572],[0.24444056919642856,-0.12258998325892857],[0.24700404575892856,-0.12174246651785714],[0.2474609375,-0.12127859933035715],[0.2474609375,-0.1205322265625]]]",1,[26],,,,,,,,,,,,,,nursery4.jpg,space,1.667465,0,25,25,73,1,musicStore3.jpg,photographer_studio2.jpg,nursery.jpg,library_aisle9.jpg,,
Image_List_4,,,,,,,,,,,,,,,,44322,2020-11-20_16h00.42.886,analogCatScenes,2020.1.3,MacIntel,60,"[1792,1120]","[[[0.006204659598214286,-0.20014299665178573],[0.006204659598214286,-0.20014299665178573],[0.006204659598214286,-0.20014299665178573],[0.006204659598214286,-0.20014299665178573],[0.006204659598214286,-0.20014299665178573],[0.006204659598214286,-0.20014299665178573],[0.006204659598214286,-0.20014299665178573],[0.0095458984375,-0.19840611049107143],[0.01787109375,-0.19281877790178573],[0.03203822544642857,-0.18317522321428573],[0.04869559151785714,-0.17084263392857144],[0.06288713727678572,-0.15840890066964286],[0.07041364397321428,-0.15138811383928572],[0.07919921875,-0.14155970982142857],[0.08523297991071428,-0.13322405133928572],[0.09235491071428571,-0.12100655691964286],[0.09831194196428572,-0.107470703125],[0.10413992745535715,-0.08938337053571428],[0.11015625,-0.07553013392857143],[0.1160400390625,-0.062168666294642856],[0.11839773995535714,-0.0563232421875],[0.11981026785714285,-0.05206821986607143],[0.12066824776785715,-0.050338309151785714],[0.1208984375,-0.04935825892857143],[0.1208984375,-0.04913853236607143],[0.1208984375,-0.04913853236607143],[0.1208984375,-0.04913853236607143],[0.12046944754464285,-0.04913853236607143],[0.11939522879464286,-0.04913853236607143],[0.1185546875,-0.04885602678571429]]]",1,[30],,,,,,,,,,,,,,tvstudio2.jpg,space,2.215945,0,26,26,92,1,staircase.jpg,volleyballcourt.jpg,skatepark7.jpg,soccerfield2.jpg,,
