image_list,key_resp_intructions.keys,key_resp_intructions.rt,key_resp_intructions_3.keys,key_resp_intructions_3.rt,PracticeComplete_2.keys,PracticeComplete_2.rt,PracticeComplete_3.keys,PracticeComplete_3.rt,demo_trials.thisRepN,demo_trials.thisTrialN,demo_trials.thisN,demo_trials.thisIndex,demo_trials.ran,demo_images,path_images,participant,date,expName,psychopyVersion,OS,frameRate,windowSize,drawing,numDrawings,drawingSizes,practice_complete.keys,practice_complete.rt,PracticeComplete.keys,PracticeComplete.rt,practice_trials.thisRepN,practice_trials.thisTrialN,practice_trials.thisN,practice_trials.thisIndex,practice_trials.ran,practice_images,feedback_images,key_resp_intructions_2.keys,key_resp_intructions_2.rt,Image_List_4,trial_complete.keys,trial_complete.rt,trials.thisRepN,trials.thisTrialN,trials.thisN,trials.thisIndex,trials.ran,Image_List_1,Image_List_2,Image_List_3,Image_List_5,key_resp.keys,key_resp.rt
Image_List_4,space,25.215575,space,5.450815,space,11.423865,space,1.62333,0,0,0,5,1,right.jpg,right_path.jpg,44347,2020-11-20_11h02.45.701,analogCatScenes,2020.1.3,Win32,60,,,,,,,,,,,,,,,,,,,,,,,,,,,,,,,
Image_List_4,,,,,space,0.93935,space,1.245525,0,1,1,2,1,ahead_right.jpg,ahead_right_path.jpg,44347,2020-11-20_11h02.45.701,analogCatScenes,2020.1.3,Win32,60,,,,,,,,,,,,,,,,,,,,,,,,,,,,,,,
Image_List_4,,,,,space,0.577085,space,0.542315,0,2,2,0,1,ahead.jpg,ahead_path.jpg,44347,2020-11-20_11h02.45.701,analogCatScenes,2020.1.3,Win32,60,,,,,,,,,,,,,,,,,,,,,,,,,,,,,,,
Image_List_4,,,,,space,0.55138,space,0.59055,0,3,3,1,1,ahead_left.jpg,ahead_left_path.jpg,44347,2020-11-20_11h02.45.701,analogCatScenes,2020.1.3,Win32,60,,,,,,,,,,,,,,,,,,,,,,,,,,,,,,,
Image_List_4,,,,,space,0.580655,space,0.577455,0,4,4,6,1,right_left.jpg,right_left_path.jpg,44347,2020-11-20_11h02.45.701,analogCatScenes,2020.1.3,Win32,60,,,,,,,,,,,,,,,,,,,,,,,,,,,,,,,
Image_List_4,,,,,space,0.53536,space,0.559305,0,5,5,4,1,left.jpg,left_path.jpg,44347,2020-11-20_11h02.45.701,analogCatScenes,2020.1.3,Win32,60,,,,,,,,,,,,,,,,,,,,,,,,,,,,,,,
Image_List_4,,,,,space,0.713365,space,1.66103,0,6,6,3,1,ahead_right_left.jpg,ahead_right_left_path.jpg,44347,2020-11-20_11h02.45.701,analogCatScenes,2020.1.3,Win32,60,,,,,,,,,,,,,,,,,,,,,,,,,,,,,,,
Image_List_4,,,,,,,,,,,,,,,,44347,2020-11-20_11h02.45.701,analogCatScenes,2020.1.3,Win32,60,"[1280,720]",[],0,[],space,0.7433,space,0.56847,0,0,0,5,1,right_2.jpg,right_2_path.jpg,,,,,,,,,,,,,,,,
Image_List_4,,,,,,,,,,,,,,,,44347,2020-11-20_11h02.45.701,analogCatScenes,2020.1.3,Win32,60,"[1280,720]",[],0,[],space,0.570225,space,1.26548,0,1,1,1,1,ahead_left_2.jpg,ahead_left_2_path.jpg,,,,,,,,,,,,,,,,
Image_List_4,,,,,,,,,,,,,,,,44347,2020-11-20_11h02.45.701,analogCatScenes,2020.1.3,Win32,60,"[1280,720]",[],0,[],space,0.670765,space,0.639165,0,2,2,3,1,ahead_right_left_2.jpg,ahead_right_left_2_path.jpg,,,,,,,,,,,,,,,,
Image_List_4,,,,,,,,,,,,,,,,44347,2020-11-20_11h02.45.701,analogCatScenes,2020.1.3,Win32,60,"[1280,720]",[],0,[],space,0.51581,space,0.472775,0,3,3,2,1,ahead_right_2.jpg,ahead_right_2_path.jpg,,,,,,,,,,,,,,,,
Image_List_4,,,,,,,,,,,,,,,,44347,2020-11-20_11h02.45.701,analogCatScenes,2020.1.3,Win32,60,"[1280,720]",[],0,[],space,0.552795,space,0.48075,0,4,4,6,1,right_left_2.jpg,right_left_2_path.jpg,,,,,,,,,,,,,,,,
Image_List_4,,,,,,,,,,,,,,,,44347,2020-11-20_11h02.45.701,analogCatScenes,2020.1.3,Win32,60,"[1280,720]",[],0,[],space,1.06135,space,0.508625,0,5,5,0,1,ahead_2.jpg,ahead_2_path.jpg,,,,,,,,,,,,,,,,
Image_List_4,,,,,,,,,,,,,,,,44347,2020-11-20_11h02.45.701,analogCatScenes,2020.1.3,Win32,60,"[1280,720]",[],0,[],space,0.60998,space,0.72455,0,6,6,4,1,left_2.jpg,left_2_path.jpg,,,,,,,,,,,,,,,,
Image_List_4,,,,,,,,,,,,,,,,44347,2020-11-20_11h02.45.701,analogCatScenes,2020.1.3,Win32,60,"[1280,720]","[[[0.0009259524444739024,-0.20555557658274967],[0.0009259524444739024,-0.20555557658274967],[0.0009259524444739024,-0.20555557658274967],[0.0009259524444739024,-0.20555557658274967],[0.0009259524444739024,-0.20555557658274967],[0.0009259524444739024,-0.20555557658274967],[0.0009259524444739024,-0.20555557658274967],[0.0018519349120298203,-0.20462965062922903],[0.003703730305035909,-0.20370372467570835],[0.012963046354277847,-0.201851872768667],[0.04074082495989791,-0.19907409490810501],[0.07962965849373076,-0.19259261323346033],[0.11666669663455752,-0.19259261323346033],[0.17870373552044233,-0.19351853918698098],[0.19259262482325237,-0.19444446514050165],[0.20833336603310373,-0.19722224300106367],[0.23703707059224446,-0.20092594681514633],[0.2509259598950545,-0.20277779872218768],[0.2601852194302612,-0.20462965062922903],[0.27037040491898856,-0.20462965062922903],[0.2722222568260299,-0.20462965062922903],[0.2740741087330712,-0.20462965062922903],[0.2851852201753192,-0.20462965062922903],[0.29351855375700525,-0.201851872768667],[0.305555591152774,-0.19907409490810501],[0.3203704064091047,-0.19722224300106367],[0.3259259621302287,-0.196296317047543],[0.33611114761895605,-0.19537039109402232],[0.3462963331076834,-0.19537039109402232]],[[-0.008333307090732786,-0.20925928039683236],[-0.008333307090732786,-0.20925928039683236],[-0.008333307090732786,-0.20648150253627034],[-0.008333307090732786,-0.20277779872218768],[-0.007407381137212118,-0.19907409490810501],[0.00277780435151524,-0.18333335369825363],[0.006481508165597916,-0.17962964988417096],[0.01018526849371584,-0.17592594607008827],[0.01851860207540186,-0.1694444643954436],[0.022222249375449286,-0.16851853844192294],[0.02685193565708788,-0.1666666865348816],[0.034259286771217985,-0.16203705676727825],[0.04074082495989791,-0.15925927890671623],[0.048148176074028014,-0.15370372318559222],[0.06296299133035872,-0.1398148338827822],[0.07314817681908607,-0.12870372244053416],[0.07870373254021008,-0.12314816671941016],[0.08611114016837544,-0.11666668504476548],[0.08611114016837544,-0.11666668504476548],[0.08703706612189611,-0.11481483313772413],[0.08888891802893745,-0.1129629812306828],[0.08888891802893745,-0.1129629812306828],[0.08981484398245812,-0.1129629812306828],[0.08981484398245812,-0.11203705527716212],[0.09166669588949945,-0.11111112932364146],[0.09166669588949945,-0.11018520337012079],[0.09351854779654079,-0.10740742550955878],[0.09444447375006146,-0.10462964764899678],[0.09444447375006146,-0.1037037216954761],[0.09444447375006146,-0.10277779574195543],[0.09629632565710279,-0.1009259438349141],[0.09629632565710279,-0.1009259438349141],[0.09629632565710279,-0.09907409192787277]],[[0.0018519349120298203,-0.19537039109402232],[0.0018519349120298203,-0.19537039109402232],[-0.0018518254160881042,-0.19537039109402232],[-0.004629603276650111,-0.19537039109402232],[-0.020370287972466233,-0.19537039109402232],[-0.03611108569635285,-0.19722224300106367],[-0.05462960476676623,-0.19722224300106367],[-0.08888886504703097,-0.19722224300106367],[-0.13055553295546107,-0.19259261323346033],[-0.14074071844418842,-0.19166668727993966],[-0.15648140314000455,-0.18888890941937764],[-0.18425923825965987,-0.18611113155881565],[-0.1981481275624699,-0.18611113155881565],[-0.2074073870976766,-0.18611113155881565],[-0.2166666466328833,-0.18611113155881565],[-0.2222222023540073,-0.1842592796517743],[-0.22777775807513131,-0.1842592796517743],[-0.234259239749776,-0.18333335369825363],[-0.23611109165681732,-0.18333335369825363],[-0.2398147954709,-0.18240742774473295],[-0.24166664737794136,-0.18240742774473295],[-0.24444442523850335,-0.18240742774473295],[-0.24444442523850335,-0.18240742774473295],[-0.24722220309906537,-0.18240742774473295],[-0.2490740550061067,-0.18240742774473295],[-0.24999998095962736,-0.18240742774473295],[-0.25092590691314803,-0.18240742774473295],[-0.2527777588201894,-0.18240742774473295],[-0.25370368477371,-0.18240742774473295],[-0.25555553668075137,-0.18240742774473295],[-0.2574073885877927,-0.18333335369825363],[-0.25925924049483406,-0.18333335369825363],[-0.2629629443089167,-0.18333335369825363],[-0.26574072216947875,-0.18333335369825363],[-0.2675925740765201,-0.18333335369825363],[-0.27129627789060273,-0.18333335369825363],[-0.27592590765820607,-0.18333335369825363],[-0.27685183361172677,-0.18333335369825363],[-0.2805555374258094,-0.18333335369825363],[-0.2814814633793301,-0.18333335369825363],[-0.28240738933285076,-0.18333335369825363],[-0.28240738933285076,-0.18333335369825363],[-0.28240738933285076,-0.18333335369825363],[-0.28240738933285076,-0.18333335369825363],[-0.28240738933285076,-0.18333335369825363],[-0.28240738933285076,-0.18333335369825363]]]",3,"[29,33,46]",,,,,,,,,,,,space,2.402395,greenhouse.jpg,space,11.475715,0,0,0,49,1,frontDoor3.jpg,greenhouse5.jpg,flowershop3.jpg,farm2.jpg,,
Image_List_4,,,,,,,,,,,,,,,,44347,2020-11-20_11h02.45.701,analogCatScenes,2020.1.3,Win32,60,"[1280,720]","[[[-0.0009258429485321864,-0.19166668727993966],[-0.00555552923017078,-0.18888890941937764],[-0.019444418532980814,-0.18611113155881565],[-0.033333307835790846,-0.18333335369825363],[-0.04629627118508021,-0.17962964988417096],[-0.08518516123294831,-0.17407409416304695],[-0.10833331007096503,-0.16759261248840226],[-0.12314806881326047,-0.16574076058136092],[-0.14907405202587445,-0.15185187127855088],[-0.16481473672169059,-0.14629631555742686],[-0.1749999787244532,-0.14166668578982353],[-0.1925925718413459,-0.13611113006869952],[-0.1981481275624699,-0.13333335220813752],[-0.2046296092371146,-0.12962964839405483],[-0.21203701686527993,-0.12314816671941016],[-0.2166666466328833,-0.11851853695180681],[-0.21759257258640397,-0.11666668504476548],[-0.2185184985399246,-0.1157407590912448],[-0.2185184985399246,-0.11481483313772413],[-0.2185184985399246,-0.11481483313772413],[-0.2185184985399246,-0.1129629812306828],[-0.2185184985399246,-0.11203705527716212],[-0.2185184985399246,-0.11203705527716212],[-0.2185184985399246,-0.11203705527716212],[-0.2185184985399246,-0.11203705527716212]],[[0.00277780435151524,-0.19537039109402232],[0.00277780435151524,-0.1898148353728983],[0.00277780435151524,-0.1814815017912123],[0.00277780435151524,-0.1666666865348816],[0.00277780435151524,-0.15648150104615424],[0.00277780435151524,-0.1481481674644682],[0.009259286026159922,-0.12685187053349284],[0.012963046354277847,-0.11203705527716212],[0.01851860207540186,-0.10000001788139343],[0.021296379935963866,-0.09074075834618675],[0.023148175328969955,-0.08796298048562473],[0.024074157796525872,-0.08703705453210407],[0.024074157796525872,-0.0861111285785834],[0.024074157796525872,-0.08518520262506273],[0.024074157796525872,-0.08518520262506273],[0.024074157796525872,-0.08518520262506273],[0.024074157796525872,-0.08518520262506273],[0.024074157796525872,-0.08518520262506273],[0.024074157796525872,-0.08425927667154207],[0.024074157796525872,-0.08425927667154207],[0.024074157796525872,-0.08425927667154207],[0.024074157796525872,-0.08425927667154207],[0.024074157796525872,-0.08425927667154207]],[[0.007407490633153833,-0.2083333544433117],[0.03703706463177999,-0.2083333544433117],[0.07407410277260675,-0.21481483611795638],[0.15185188286834292,-0.23333335518836976],[0.17777780956692166,-0.24166668877005576]]]",3,"[25,23,5]",,,,,,,,,,,,,,winebarrel4.jpg,space,5.10858,0,1,1,98,1,weightroom5.jpg,wineVineyard8.jpg,warehouse3.jpg,winebarrel2.jpg,,
Image_List_4,,,,,,,,,,,,,,,,44347,2020-11-20_11h02.45.701,analogCatScenes,2020.1.3,Win32,60,"[1280,720]","[[[-0.004629603276650111,-0.20462965062922903],[-0.004629603276650111,-0.20462965062922903],[-0.004629603276650111,-0.20462965062922903],[-0.002777751369608773,-0.20462965062922903],[-0.0009258429485321864,-0.20370372467570835],[0.006481508165597916,-0.20092594681514633],[0.013888915793763267,-0.20000002086162566],[0.021296379935963866,-0.196296317047543],[0.039814842492342,-0.19259261323346033],[0.07129632491204474,-0.1898148353728983],[0.08703706612189611,-0.18703705751233632],[0.10740743709935083,-0.18240742774473295],[0.11574077068103684,-0.1787037239306503],[0.12500003021624354,-0.17500002011656762],[0.13148151189088822,-0.1694444643954436],[0.14814817905426025,-0.15740742699967492],[0.15370373477538427,-0.1546296491391129],[0.16296299431059097,-0.14907409341798888],[0.17777780956692166,-0.14166668578982353],[0.1861111431486077,-0.1398148338827822],[0.19351855077677302,-0.1370370560222202],[0.20092595840493838,-0.1370370560222202],[0.20555558817254171,-0.1370370560222202],[0.2092592919866244,-0.1370370560222202],[0.21388892175422775,-0.1370370560222202],[0.2157407736612691,-0.1370370560222202],[0.21666669961478974,-0.1370370560222202],[0.21666669961478974,-0.1370370560222202],[0.21666669961478974,-0.1370370560222202],[0.2175926255683104,-0.1370370560222202],[0.2175926255683104,-0.1370370560222202],[0.2175926255683104,-0.1370370560222202],[0.2175926255683104,-0.1370370560222202],[0.2175926255683104,-0.1370370560222202],[0.2175926255683104,-0.1370370560222202],[0.2175926255683104,-0.1370370560222202],[0.2175926255683104,-0.1370370560222202],[0.2175926255683104,-0.1370370560222202],[0.2175926255683104,-0.1370370560222202],[0.2175926255683104,-0.1370370560222202],[0.2175926255683104,-0.1370370560222202],[0.2175926255683104,-0.1370370560222202],[0.2175926255683104,-0.1370370560222202],[0.2175926255683104,-0.1370370560222202],[0.2175926255683104,-0.1370370560222202],[0.2175926255683104,-0.1370370560222202],[0.2175926255683104,-0.1370370560222202],[0.2175926255683104,-0.1370370560222202],[0.2175926255683104,-0.1370370560222202],[0.2175926255683104,-0.1370370560222202],[0.2175926255683104,-0.1370370560222202],[0.2175926255683104,-0.1370370560222202],[0.2175926255683104,-0.1370370560222202],[0.2175926255683104,-0.1370370560222202],[0.2175926255683104,-0.1370370560222202],[0.2175926255683104,-0.1370370560222202],[0.2175926255683104,-0.1370370560222202],[0.2175926255683104,-0.1370370560222202],[0.2175926255683104,-0.1370370560222202],[0.2175926255683104,-0.1370370560222202],[0.2175926255683104,-0.1370370560222202],[0.2175926255683104,-0.1370370560222202],[0.2175926255683104,-0.1370370560222202],[0.2175926255683104,-0.1370370560222202],[0.2175926255683104,-0.1370370560222202],[0.2175926255683104,-0.1370370560222202],[0.2175926255683104,-0.1370370560222202],[0.2175926255683104,-0.1370370560222202],[0.2175926255683104,-0.1370370560222202],[0.2175926255683104,-0.1370370560222202],[0.21481484770774842,-0.13240742625461685],[0.20185188435845905,-0.1277777964870135],[0.17870373552044233,-0.11111112932364146],[0.15740743858946693,-0.09074075834618675],[0.14907410500778093,-0.07870372095041805],[0.14259262333313624,-0.07314816522929403],[0.13518521570497088,-0.06851853546169069],[0.13333336379792954,-0.06666668355464936],[0.13055558593736755,-0.06481483164760801],[0.1287037340303262,-0.06388890569408735],[0.12777780807680553,-0.062037053787046006],[0.12500003021624354,-0.059259275926484],[0.12314817830920219,-0.058333349972963335],[0.12129632640216086,-0.05740742401944266],[0.12129632640216086,-0.05740742401944266],[0.12129632640216086,-0.05740742401944266],[0.12129632640216086,-0.05740742401944266],[0.12129632640216086,-0.05740742401944266],[0.12129632640216086,-0.05740742401944266],[0.12129632640216086,-0.05740742401944266],[0.12129632640216086,-0.05740742401944266],[0.12129632640216086,-0.05740742401944266],[0.12129632640216086,-0.05740742401944266],[0.12129632640216086,-0.05740742401944266]],[[-0.00555552923017078,-0.20277779872218768],[-0.00555552923017078,-0.20277779872218768],[-0.004629603276650111,-0.201851872768667],[-0.0018518254160881042,-0.20000002086162566],[0.01111113793320126,-0.20000002086162566],[0.025000027236011295,-0.19814816895458434],[0.0351852692387739,-0.196296317047543],[0.06574076919092073,-0.1898148353728983],[0.08611114016837544,-0.18703705751233632],[0.10185188137822682,-0.1842592796517743],[0.11296299282047484,-0.18240742774473295],[0.11666669663455752,-0.18055557583769163],[0.12129632640216086,-0.17962964988417096],[0.1287037340303262,-0.17592594607008827],[0.1324074378444089,-0.17500002011656762],[0.13611114165849156,-0.1722222422560056],[0.13981484547257422,-0.1694444643954436],[0.14259262333313624,-0.16759261248840226],[0.1444444752401776,-0.16388890867431957],[0.14722225310073958,-0.1601852048602369],[0.15185188286834292,-0.15740742699967492],[0.15370373477538427,-0.15370372318559222],[0.15740743858946693,-0.15000001937150956],[0.16018521645002895,-0.14722224151094754],[0.16296299431059097,-0.14629631555742686],[0.16944447598523563,-0.1425926117433442],[0.174074105752839,-0.14074075983630285],[0.17685188361340098,-0.13888890792926153],[0.179629661473963,-0.13796298197574086],[0.187962995055649,-0.13611113006869952],[0.19259262482325237,-0.13518520411517884],[0.1972222545908557,-0.13518520411517884],[0.2037037362655004,-0.13425927816165817],[0.20555558817254171,-0.13333335220813752],[0.20833336603310373,-0.13333335220813752],[0.2092592919866244,-0.13333335220813752],[0.21018521794014508,-0.13333335220813752],[0.21111114389366573,-0.13333335220813752],[0.2120370698471864,-0.13333335220813752],[0.2120370698471864,-0.13333335220813752],[0.2120370698471864,-0.13333335220813752],[0.2120370698471864,-0.13333335220813752],[0.2120370698471864,-0.13333335220813752],[0.2120370698471864,-0.13333335220813752],[0.21481484770774842,-0.13333335220813752],[0.21851855152183108,-0.13333335220813752],[0.22314818128943442,-0.13611113006869952],[0.2388889224992858,-0.15833335295319556],[0.2537037377556165,-0.17777779797712961],[0.26944447896546786,-0.19444446514050165],[0.2888889239894019,-0.2083333544433117],[0.2990741094781293,-0.2185185964460743],[0.302777813292212,-0.2240741521671983],[0.3101852209203773,-0.22962970788832232],[0.3129629987809393,-0.23333335518836976],[0.31388892473446,-0.23518526360944633],[0.3157407766415013,-0.23703705900245242],[0.3157407766415013,-0.23703705900245242],[0.3157407766415013,-0.23703705900245242],[0.3157407766415013,-0.23703705900245242],[0.3157407766415013,-0.23703705900245242],[0.3157407766415013,-0.23703705900245242],[0.3157407766415013,-0.23703705900245242],[0.3157407766415013,-0.23703705900245242],[0.3157407766415013,-0.23703705900245242],[0.3157407766415013,-0.23703705900245242]]]",2,"[94,66]",,,,,,,,,,,,,,liquorstore.jpg,space,7.088285,0,2,2,66,1,library_aisle10.jpg,office3.jpg,laundromat3.jpg,horsebarn9.jpg,,
Image_List_4,,,,,,,,,,,,,,,,44347,2020-11-20_11h02.45.701,analogCatScenes,2020.1.3,Win32,60,"[1280,720]","[[[0.0018519349120298203,-0.19166668727993966],[0.0018519349120298203,-0.19166668727993966],[0.0018519349120298203,-0.19166668727993966],[0.0018519349120298203,-0.17129631630248493],[-0.0009258429485321864,-0.14166668578982353],[-0.007407381137212118,0.018518504169252183],[-0.007407381137212118,0.077777765194575],[-0.007407381137212118,0.11574070103190479],[-0.0064813986696562,0.13888887812693915],[-0.0018518254160881042,0.16574073077903853],[0.00277780435151524,0.1935185093846586],[0.009259286026159922,0.22222221394379935],[0.016666693654325274,0.2444444368282954],[0.023148175328969955,0.25833332613110543],[0.02592595318953196,0.26203702994518807],[0.0277778050965733,0.26666665971279147],[0.0277778050965733,0.26851851161983276],[0.0277778050965733,0.26851851161983276],[0.0277778050965733,0.26851851161983276],[0.0277778050965733,0.26851851161983276],[0.0277778050965733,0.26851851161983276],[0.0277778050965733,0.26851851161983276],[0.0277778050965733,0.26851851161983276],[0.0277778050965733,0.26851851161983276],[0.0277778050965733,0.26851851161983276]]]",1,[25],,,,,,,,,,,,,,highway.jpg,space,2.467365,0,3,3,52,1,gasstation7.jpg,hardwarestore1.jpg,frontFoyer6.jpg,forestpath2.jpg,,
Image_List_4,,,,,,,,,,,,,,,,44347,2020-11-20_11h02.45.701,analogCatScenes,2020.1.3,Win32,60,"[1280,720]","[[[0.007407490633153833,-0.20462965062922903],[0.007407490633153833,-0.20462965062922903],[0.007407490633153833,-0.20462965062922903],[0.007407490633153833,-0.20462965062922903],[0.007407490633153833,-0.20462965062922903],[0.007407490633153833,-0.20462965062922903],[0.007407490633153833,-0.20462965062922903],[0.007407490633153833,-0.20462965062922903],[0.007407490633153833,-0.20462965062922903],[0.008333360072639254,-0.20462965062922903],[0.01851860207540186,-0.20370372467570835],[0.02870373105009397,-0.20555557658274967],[0.05092595393459002,-0.20740742848979102],[0.10277780733174748,-0.2129630407249503],[0.13333336379792954,-0.21759261397851837],[0.1648148462176323,-0.21759261397851837],[0.18518521719508702,-0.21759261397851837],[0.20740744007958306,-0.21759261397851837],[0.22222225533591378,-0.21759261397851837],[0.24074077440632713,-0.21759261397851837],[0.25833336752321984,-0.21759261397851837],[0.27037040491898856,-0.21574081858551228],[0.27685188659363325,-0.21574081858551228],[0.27962966445419524,-0.21574081858551228],[0.28240744231475723,-0.21574081858551228],[0.28240744231475723,-0.21574081858551228],[0.2861111461288399,-0.21574081858551228],[0.28796299803588127,-0.21574081858551228],[0.2898148499429226,-0.21574081858551228],[0.2898148499429226,-0.21574081858551228],[0.29074077589644326,-0.21574081858551228],[0.29074077589644326,-0.21574081858551228],[0.29074077589644326,-0.21574081858551228]],[[0.004629712772591827,-0.19907409490810501],[0.004629712772591827,-0.19907409490810501],[0.004629712772591827,-0.19907409490810501],[0.004629712772591827,-0.19907409490810501],[-0.012962936858336131,-0.20277779872218768],[-0.0824073833723863,-0.2111111323038737],[-0.1240740512808164,-0.21481483611795638],[-0.15648140314000455,-0.21481483611795638],[-0.1953703497019079,-0.21481483611795638],[-0.21481479472584195,-0.21481483611795638],[-0.24074072142442068,-0.2111111323038737],[-0.2564814626342721,-0.2083333544433117],[-0.2694444259835614,-0.20462965062922903],[-0.2740740557511648,-0.20462965062922903],[-0.27962961147228876,-0.201851872768667],[-0.28240738933285076,-0.201851872768667],[-0.2842592412398921,-0.20092594681514633],[-0.2879629450539748,-0.20092594681514633],[-0.2916666488680575,-0.19907409490810501],[-0.2962962786356608,-0.19907409490810501],[-0.2990740564962228,-0.19814816895458434],[-0.30092590840326416,-0.19814816895458434],[-0.3018518343567848,-0.19722224300106367],[-0.3018518343567848,-0.19722224300106367],[-0.3018518343567848,-0.196296317047543],[-0.3018518343567848,-0.196296317047543]]]",2,"[33,26]",,,,,,,,,,,,,,fountain4.jpg,space,4.06364,0,4,4,46,1,flowershop.jpg,frontLawn5.jpg,farmersmarket4.jpg,dormroom6.jpg,,
Image_List_4,,,,,,,,,,,,,,,,44347,2020-11-20_11h02.45.701,analogCatScenes,2020.1.3,Win32,60,"[1280,720]","[[[-0.004629603276650111,-0.196296317047543],[-0.004629603276650111,-0.196296317047543],[-0.004629603276650111,-0.196296317047543],[-0.004629603276650111,-0.196296317047543],[-0.004629603276650111,-0.196296317047543],[2.6490953233506943e-8,-0.19166668727993966],[0.007407490633153833,-0.18518520560529497],[0.01759261960784594,-0.17685187202360894],[0.03888891653882132,-0.15277779723207155],[0.05000002798106935,-0.13796298197574086],[0.07592595467964808,-0.11666668504476548],[0.12777780807680553,-0.05370372020535999],[0.1462963271472189,-0.02777779350678126],[0.15092595691482227,-0.021296311832136577],[0.15648151263594628,-0.015740756111012565],[0.15740743858946693,-0.012962978250450558],[0.16018521645002895,-0.010185200389888552],[0.16851855003171498,0.0027777629594008127],[0.17777780956692166,0.017592578215731514],[0.18055558742748368,0.02222220798333486],[0.18703706910212833,0.03055554156502088],[0.19629632863733504,0.03703702323966556],[0.20185188435845905,0.039814801100227566],[0.21388892175422775,0.045370356821351585],[0.22037040342887243,0.04722220872839292],[0.2277778110570378,0.04722220872839292],[0.23796299654576514,0.04722220872839292],[0.24444447822040982,0.04722220872839292],[0.24629633012745117,0.04722220872839292],[0.2509259598950545,0.04722220872839292],[0.2564815156161785,0.049074032378416635],[0.26203707133730253,0.050925912542475596],[0.2675926270584265,0.052777764449516935],[0.2685185530119472,0.0537036904030376],[0.2685185530119472,0.0537036904030376],[0.2685185530119472,0.0537036904030376],[0.2685185530119472,0.054629588099540646],[0.2685185530119472,0.054629588099540646],[0.2685185530119472,0.054629588099540646],[0.2685185530119472,0.05555554231007894],[0.2685185530119472,0.05555554231007894],[0.2685185530119472,0.05555554231007894],[0.2685185530119472,0.05555554231007894],[0.2685185530119472,0.05555554231007894]]]",1,[44],,,,,,,,,,,,,,restaurant8.jpg,space,3.1972,0,5,5,83,1,readingroom1.jpg,sculpturegarden1.jpg,promenadeDeck6.jpg,readingroom2.jpg,,
Image_List_4,,,,,,,,,,,,,,,,44347,2020-11-20_11h02.45.701,analogCatScenes,2020.1.3,Win32,60,"[1280,720]","[[[-0.00555552923017078,-0.20648150253627034],[-0.00555552923017078,-0.20648150253627034],[-0.00555552923017078,-0.19259261323346033],[-0.00555552923017078,-0.18055557583769163],[-0.00555552923017078,-0.16111113081375758],[-0.008333307090732786,-0.10462964764899678],[-0.008333307090732786,-0.07870372095041805],[-0.008333307090732786,-0.04537038662367397],[-0.010185158997774123,0.015740726308690178],[-0.012036954390780213,0.041666653007268906],[-0.018518492579460144,0.06851847740235067],[-0.019444418532980814,0.08611109877626101],[-0.020370287972466233,0.09444443235794703],[-0.020370287972466233,0.10648146975371572],[-0.020370287972466233,0.11296292317134278],[-0.020370287972466233,0.11296292317134278],[-0.020370287972466233,0.11666665524244309],[-0.020370287972466233,0.11851847889246679],[-0.020370287972466233,0.1194444331030051],[-0.020370287972466233,0.1194444331030051],[-0.020370287972466233,0.1194444331030051],[-0.020370287972466233,0.1194444331030051],[-0.020370287972466233,0.1194444331030051],[-0.020370287972466233,0.1194444331030051],[-0.020370287972466233,0.1194444331030051]]]",1,[25],,,,,,,,,,,,,,winebarrel3.jpg,space,2.014575,0,6,6,97,1,warehouseoutside4.jpg,wineVineyard2.jpg,waitingroom4.jpg,warehouseoutside3.jpg,,
Image_List_4,,,,,,,,,,,,,,,,44347,2020-11-20_11h02.45.701,analogCatScenes,2020.1.3,Win32,60,"[1280,720]","[[[-0.007407381137212118,-0.19814816895458434],[-0.007407381137212118,-0.19814816895458434],[-0.007407381137212118,-0.19814816895458434],[-0.007407381137212118,-0.19814816895458434],[-0.007407381137212118,-0.19814816895458434],[-0.009259176530218207,-0.19722224300106367],[-0.013888862811856799,-0.19444446514050165],[-0.02222219639354282,-0.19259261323346033],[-0.03240738188227018,-0.18888890941937764],[-0.06388886430197292,-0.1787037239306503],[-0.07777775360478295,-0.17500002011656762],[-0.097222198628717,-0.16759261248840226],[-0.1268518291413784,-0.15833335295319556],[-0.1416666443977091,-0.1481481674644682],[-0.15277775583995712,-0.1398148338827822],[-0.1712962749103705,-0.1277777964870135],[-0.18240738635261852,-0.12037038885884815],[-0.1953703497019079,-0.11388890718420347],[-0.21203701686527993,-0.09537038811379009],[-0.22314812830752798,-0.08055557285745939],[-0.228703684028652,-0.06111112783352534],[-0.23148146188921398,-0.047222238530715305],[-0.23240738784273465,-0.025000015646219252],[-0.23240738784273465,0.000925911052359475],[-0.23240738784273465,0.02870368965797954],[-0.23240738784273465,0.04722220872839292],[-0.23240738784273465,0.05555554231007894],[-0.22962960998217266,0.06388887589176497],[-0.2249999802145693,0.07037035756640964],[-0.22314812830752798,0.07314813542697164],[-0.22314812830752798,0.07407403312347469],[-0.21944442449344528,0.08148146900865767],[-0.2166666466328833,0.08240736670516072],[-0.21388886877232127,0.08518514456572272],[-0.2101851649582386,0.08888887663682302],[-0.2101851649582386,0.08981480259034369],[-0.2101851649582386,0.08981480259034369],[-0.20833331305119726,0.08981480259034369],[-0.20833331305119726,0.08981480259034369],[-0.20648146114415591,0.08981480259034369],[-0.20555553519063527,0.08981480259034369],[-0.2046296092371146,0.09074070028684673],[-0.2046296092371146,0.09166665449738502],[-0.2009259054230319,0.10833332166075707],[-0.2009259054230319,0.10833332166075707],[-0.2009259054230319,0.10833332166075707],[-0.2009259054230319,0.10833332166075707],[-0.2009259054230319,0.10833332166075707],[-0.2009259054230319,0.10833332166075707],[-0.2009259054230319,0.10833332166075707],[-0.2009259054230319,0.10833332166075707],[-0.2009259054230319,0.10833332166075707],[-0.2009259054230319,0.10833332166075707],[-0.2009259054230319,0.10833332166075707],[-0.2009259054230319,0.10833332166075707],[-0.2009259054230319,0.10833332166075707],[-0.2009259054230319,0.10833332166075707],[-0.2009259054230319,0.10833332166075707],[-0.2009259054230319,0.10833332166075707],[-0.2009259054230319,0.10833332166075707],[-0.2009259054230319,0.10833332166075707],[-0.2009259054230319,0.10833332166075707],[-0.2009259054230319,0.10833332166075707],[-0.19907405351599058,0.11851847889246679],[-0.19629627565542856,0.14722221170862515],[-0.19351849779486657,0.17499999031424524],[-0.1925925718413459,0.18796295366353458],[-0.1888888680272632,0.19814813915226195],[-0.1870370161202219,0.21018517654803065],[-0.18518516421318054,0.21851851012971665],[-0.18425923825965987,0.22314813989732002],[-0.1833333123061392,0.22777776966492336],[-0.18240738635261852,0.23425925133956804],[-0.18240738635261852,0.23425925133956804],[-0.18240738635261852,0.23425925133956804],[-0.18240738635261852,0.2351851772930887],[-0.18240738635261852,0.2351851772930887],[-0.18240738635261852,0.2351851772930887],[-0.18240738635261852,0.2351851772930887],[-0.18240738635261852,0.2351851772930887],[-0.18240738635261852,0.2351851772930887],[-0.18240738635261852,0.2351851772930887],[-0.18240738635261852,0.2351851772930887],[-0.18240738635261852,0.2351851772930887],[-0.18240738635261852,0.2351851772930887],[-0.18240738635261852,0.2351851772930887]],[[-0.00555552923017078,-0.1898148353728983],[-0.0009258429485321864,-0.18611113155881565],[0.015740824214839855,-0.16388890867431957],[0.03703706463177999,-0.13333335220813752],[0.06574076919092073,-0.11111112932364146],[0.08981484398245812,-0.08796298048562473],[0.11388891877399551,-0.06759260950817002],[0.1620370683570703,-0.03148149732086394],[0.17500003170635964,-0.0175926080180539],[0.18888892100916968,-0.006481496575805876],[0.19814818054437638,-1.4901161193847656e-8],[0.20185188435845905,0.000925911052359475],[0.20555558817254171,0.0018518370058801439],[0.20740744007958306,0.0027777629594008127],[0.21018521794014508,0.0027777629594008127],[0.21018521794014508,0.0037036889129214816],[0.21388892175422775,0.005555540819962819],[0.2175926255683104,0.008333318680524827],[0.22037040342887243,0.009259244634045495],[0.22314818128943442,0.012037022494607502],[0.22592595914999644,0.016666652262210847],[0.2277778110570378,0.020370356076293523],[0.23148151487112045,0.027777763704458874],[0.23703707059224446,0.034259245379103555],[0.23981484845280648,0.039814801100227566],[0.24629633012745117,0.04629625451785462],[0.2574074415696992,0.06388887589176497],[0.2685185530119472,0.07870369114809567],[0.27685188659363325,0.09351847814740874],[0.2851852201753192,0.10277776593963305],[0.29074077589644326,0.10740736745021877],[0.29444447971052595,0.10925924761427773],[0.2953704056640466,0.11111109952131908],[0.29722225757108794,0.11111109952131908],[0.2990741094781293,0.11111109952131908],[0.30000003543164994,0.11203702547483974],[0.30092596138517064,0.11203702547483974],[0.30092596138517064,0.11203702547483974],[0.3018518873386913,0.11203702547483974],[0.3018518873386913,0.11203702547483974],[0.3018518873386913,0.11203702547483974],[0.3018518873386913,0.11203702547483974]]]",2,"[86,42]",,,,,,,,,,,,,,driveway8.jpg,space,5.648955,0,7,7,38,1,dining_car2.jpg,elevatorOutside4.jpg,dock1.jpg,classroom1.jpg,,
Image_List_4,,,,,,,,,,,,,,,,44347,2020-11-20_11h02.45.701,analogCatScenes,2020.1.3,Win32,60,"[1280,720]","[[[0.006481508165597916,-0.1898148353728983],[0.01111113793320126,-0.18611113155881565],[0.024074157796525872,-0.16296298272079893],[0.04351860282045992,-0.1370370560222202],[0.0694444730050034,-0.12037038885884815],[0.19074077291621103,-0.06851853546169069],[0.23518521868520312,-0.050925942344797984],[0.26203707133730253,-0.04166668280959129],[0.2712963308725092,-0.04074075685607063],[0.2740741087330712,-0.04074075685607063],[0.2750000346865919,-0.04074075685607063],[0.27592596064011254,-0.04074075685607063],[0.27685188659363325,-0.04074075685607063],[0.27685188659363325,-0.04074075685607063],[0.2777778125471539,-0.04074075685607063],[0.2787037385006746,-0.039814830902549954],[0.27962966445419524,-0.03888890494902929],[0.27962966445419524,-0.03888890494902929],[0.2805555904077159,-0.03611112708846728],[0.2805555904077159,-0.03611112708846728],[0.2805555904077159,-0.033333349227905276],[0.2805555904077159,-0.0324074232743846],[0.2805555904077159,-0.03148149732086394],[0.2805555904077159,-0.030555571367343267],[0.2805555904077159,-0.029629645413822597],[0.2805555904077159,-0.029629645413822597],[0.2805555904077159,-0.029629645413822597],[0.2805555904077159,-0.029629645413822597]]]",1,[28],,,,,,,,,,,,,,lab5.jpg,space,4.33755,0,8,8,64,1,igloo2.jpg,newsstand5.jpg,jewelrystore8.jpg,homegarage2.jpg,,
Image_List_4,,,,,,,,,,,,,,,,44347,2020-11-20_11h02.45.701,analogCatScenes,2020.1.3,Win32,60,"[1280,720]","[[[0.006481508165597916,-0.196296317047543],[0.006481508165597916,-0.196296317047543],[0.006481508165597916,-0.196296317047543],[0.006481508165597916,-0.19166668727993966],[0.006481508165597916,-0.16203705676727825],[0.004629712772591827,-0.1546296491391129],[0.004629712772591827,-0.12314816671941016],[0.004629712772591827,-0.08240742476450072],[0.007407490633153833,-0.06111112783352534],[0.014814841747283935,-0.037962978995508614],[0.021296379935963866,0.008333318680524827],[0.021296379935963866,0.02129628202981419],[0.021296379935963866,0.03148146751854155],[0.01944447151488728,0.041666653007268906],[0.01759261960784594,0.04444443086783091],[0.015740824214839855,0.04629625451785462],[0.01203706388672193,0.0537036904030376],[0.01111113793320126,0.054629588099540646],[0.01111113793320126,0.054629588099540646],[0.01111113793320126,0.054629588099540646],[0.01111113793320126,0.054629588099540646],[0.01018526849371584,0.05555554231007894],[0.009259286026159922,0.05648146826359961],[0.009259286026159922,0.05833332017064095],[0.009259286026159922,0.05833332017064095],[0.008333360072639254,0.06111109803120295],[0.008333360072639254,0.06111109803120295],[0.008333360072639254,0.06111109803120295],[0.008333360072639254,0.06111109803120295],[0.007407490633153833,0.06203702398472362],[0.007407490633153833,0.06203702398472362],[0.007407490633153833,0.06203702398472362]]]",1,[32],,,,,,,,,,,,,,readingroom4.jpg,space,2.5488,0,9,9,82,1,publicrestroom2.jpg,sandDunes_desert_outdoor9.jpg,promenadeDeck3.jpg,postoffice4.jpg,,
Image_List_4,,,,,,,,,,,,,,,,44347,2020-11-20_11h02.45.701,analogCatScenes,2020.1.3,Win32,60,"[1280,720]","[[[0.005555582212077247,-0.19074076132641898],[0.005555582212077247,-0.18611113155881565],[0.007407490633153833,-0.17777779797712961],[0.01203706388672193,-0.17129631630248493],[0.013888915793763267,-0.16296298272079893],[0.01759261960784594,-0.15277779723207155],[0.01944447151488728,-0.13518520411517884],[0.02037039746840795,-0.12870372244053416],[0.023148175328969955,-0.11203705527716212],[0.0277778050965733,-0.0981481659743521],[0.029629713517649887,-0.0861111285785834],[0.03333336081769731,-0.06851853546169069],[0.0351852692387739,-0.058333349972963335],[0.03703706463177999,-0.05185186829831865],[0.04074082495989791,-0.0444444606701533],[0.042592620352904,-0.03611112708846728],[0.04444447225994534,-0.03148149732086394],[0.04537039821346601,-0.028703719460301928],[0.048148176074028014,-0.014814830157491896],[0.048148176074028014,-0.01111112634340922],[0.048148176074028014,-0.006481496575805876],[0.048148176074028014,-1.4901161193847656e-8],[0.048148176074028014,0.0018518370058801439],[0.048148176074028014,0.0018518370058801439],[0.048148176074028014,0.0018518370058801439],[0.048148176074028014,0.0018518370058801439],[0.048148176074028014,0.0018518370058801439]],[[0.003703730305035909,-0.201851872768667],[0.003703730305035909,-0.201851872768667],[0.004629712772591827,-0.196296317047543],[0.012963046354277847,-0.18518520560529497],[0.039814842492342,-0.15740742699967492],[0.057407492123269954,-0.13518520411517884],[0.07777780658668942,-0.10185186978843477],[0.12129632640216086,-0.05185186829831865],[0.13611114165849156,-0.04166668280959129],[0.15092595691482227,-0.028703719460301928],[0.16018521645002895,-0.02685186755326059],[0.16388892026411161,-0.02685186755326059],[0.16574077217115296,-0.025000015646219252],[0.16851855003171498,-0.025000015646219252],[0.16851855003171498,-0.025000015646219252],[0.16851855003171498,-0.025000015646219252],[0.1703704019387563,-0.025000015646219252],[0.17129632789227697,-0.025000015646219252],[0.17129632789227697,-0.025000015646219252],[0.17222225384579765,-0.025000015646219252],[0.17222225384579765,-0.025000015646219252],[0.17222225384579765,-0.025000015646219252],[0.17222225384579765,-0.025000015646219252],[0.17222225384579765,-0.025000015646219252],[0.17222225384579765,-0.025000015646219252]],[[-0.0009258429485321864,-0.19351853918698098],[-0.003703620809094193,-0.1898148353728983],[-0.008333307090732786,-0.1842592796517743],[-0.02129627044002215,-0.15277779723207155],[-0.02962960402170817,-0.13240742625461685],[-0.03611108569635285,-0.11666668504476548],[-0.042592510856962286,-0.10833335146307946],[-0.05740738262732824,-0.08055557285745939],[-0.06111108644141091,-0.07037038736873202],[-0.06759251160202034,-0.059259275926484],[-0.07314806732314436,-0.05000001639127731],[-0.07592584518370636,-0.04537038662367397],[-0.08148140090483037,-0.039814830902549954],[-0.09351849481463433,-0.033333349227905276],[-0.09999997648927901,-0.029629645413822597],[-0.10092584592876443,-0.028703719460301928],[-0.10277775434984102,-0.02685186755326059],[-0.10370362378932643,-0.02685186755326059],[-0.10370362378932643,-0.02685186755326059],[-0.10462960625688235,-0.02685186755326059],[-0.10462960625688235,-0.02685186755326059],[-0.10462960625688235,-0.02685186755326059],[-0.10555553221040302,-0.02685186755326059],[-0.10555553221040302,-0.02685186755326059],[-0.10555553221040302,-0.02685186755326059]]]",3,"[27,25,25]",,,,,,,,,,,,,,doctor1.jpg,space,8.107595,0,10,10,36,1,diner14.jpg,dormroom9.jpg,dining_car3.jpg,checkoutcounter9.jpg,,
Image_List_4,,,,,,,,,,,,,,,,44347,2020-11-20_11h02.45.701,analogCatScenes,2020.1.3,Win32,60,"[1280,720]","[[[-0.0018518254160881042,-0.19722224300106367],[-0.0018518254160881042,-0.19722224300106367],[-0.0018518254160881042,-0.19722224300106367],[-0.0018518254160881042,-0.19722224300106367],[-0.0018518254160881042,-0.19722224300106367],[-0.0018518254160881042,-0.19722224300106367],[-0.0018518254160881042,-0.19722224300106367],[-0.0018518254160881042,-0.19722224300106367],[-0.0018518254160881042,-0.19722224300106367],[-0.0018518254160881042,-0.19722224300106367],[-0.0018518254160881042,-0.19722224300106367],[-0.0018518254160881042,-0.19722224300106367],[-0.0018518254160881042,-0.19722224300106367],[-0.0018518254160881042,-0.19722224300106367],[-0.0018518254160881042,-0.19722224300106367],[-0.0018518254160881042,-0.19722224300106367],[-0.0018518254160881042,-0.19722224300106367],[-0.0018518254160881042,-0.19537039109402232],[-0.0018518254160881042,-0.19351853918698098],[0.0018519349120298203,-0.18888890941937764],[0.009259286026159922,-0.17685187202360894],[0.01203706388672193,-0.17037039034896426],[0.016666693654325274,-0.16388890867431957],[0.025000027236011295,-0.1546296491391129],[0.03333336081769731,-0.1481481674644682],[0.042592620352904,-0.14351853769686487],[0.05185193640214594,-0.13796298197574086],[0.053703731795152025,-0.13611113006869952],[0.05648150965571404,-0.13425927816165817],[0.06018521346979671,-0.12870372244053416],[0.06481484323740005,-0.12222224076588949],[0.06574076919092073,-0.11759261099828613],[0.06759262109796206,-0.11018520337012079],[0.06759262109796206,-0.10648149955603811],[0.06851854705148273,-0.10277779574195543],[0.06851854705148273,-0.09722224002083142],[0.06851854705148273,-0.09351853620674876],[0.06851854705148273,-0.0861111285785834],[0.06851854705148273,-0.07962964690393871],[0.06851854705148273,-0.0740740911828147],[0.06851854705148273,-0.06759260950817002],[0.07037039895852407,-0.062037053787046006],[0.07222225086556541,-0.058333349972963335],[0.07314817681908607,-0.05555557211240133],[0.07314817681908607,-0.05555557211240133],[0.07962965849373076,-0.049074090437756644],[0.0842592882613341,-0.04629631257719464],[0.08888891802893745,-0.0444444606701533],[0.09722225161062346,-0.04166668280959129],[0.10092595542470614,-0.04074075685607063],[0.10462965923878882,-0.039814830902549954],[0.10833336305287149,-0.037962978995508614],[0.11111114091343349,-0.03703705304198795],[0.11481484472751617,-0.03611112708846728],[0.11944447449511952,-0.033333349227905276],[0.12037040044864018,-0.03148149732086394],[0.12129632640216086,-0.030555571367343267],[0.12500003021624354,-0.02685186755326059],[0.12500003021624354,-0.02685186755326059],[0.12685188212328488,-0.024074089692698586],[0.1287037340303262,-0.021296311832136577],[0.1287037340303262,-0.02037038587861591],[0.12962965998384687,-0.01944445992509524],[0.13055558593736755,-0.01944445992509524],[0.13055558593736755,-0.01944445992509524],[0.13055558593736755,-0.01851853397157457],[0.13055558593736755,-0.01851853397157457]],[[-0.00555552923017078,-0.201851872768667],[-0.010185158997774123,-0.196296317047543],[-0.017592510111904228,-0.18240742774473295],[-0.0435184933245182,-0.14537038960390622],[-0.05925917802033433,-0.12962964839405483],[-0.07870362304426837,-0.10740742550955878],[-0.10833331007096503,-0.060185201880004674],[-0.11574071769913037,-0.04629631257719464],[-0.1314814023949465,-0.028703719460301928],[-0.15648140314000455,-0.006481496575805876],[-0.16944442300332918,-1.4901161193847656e-8],[-0.18148146039909788,0.015740726308690178],[-0.19074071993430455,0.024074059890376198],[-0.19999997946951126,0.037962920936168605],[-0.2046296092371146,0.045370356821351585],[-0.20648146114415591,0.04814813468191359],[-0.20833331305119726,0.05185181023897864],[-0.20833331305119726,0.05185181023897864],[-0.20833331305119726,0.05185181023897864],[-0.20833331305119726,0.05185181023897864],[-0.20833331305119726,0.05185181023897864],[-0.20833331305119726,0.05185181023897864],[-0.20833331305119726,0.05185181023897864],[-0.20833331305119726,0.05185181023897864],[-0.20833331305119726,0.05185181023897864],[-0.20833331305119726,0.05185181023897864]],[[-0.002777751369608773,-0.19537039109402232],[-0.002777751369608773,-0.19537039109402232],[-0.0009258429485321864,-0.19537039109402232],[0.004629712772591827,-0.19537039109402232],[0.03148150891065597,-0.19537039109402232],[0.05185193640214594,-0.19537039109402232],[0.07037039895852407,-0.196296317047543],[0.09722225161062346,-0.201851872768667],[0.10462965923878882,-0.20277779872218768],[0.11203706686695417,-0.20370372467570835],[0.11759262258807818,-0.20462965062922903],[0.12129632640216086,-0.20648150253627034],[0.12685188212328488,-0.2083333544433117],[0.13981484547257422,-0.2083333544433117],[0.14537040119369823,-0.20925928039683236],[0.14814817905426025,-0.20925928039683236],[0.14814817905426025,-0.20925928039683236],[0.14814817905426025,-0.20925928039683236],[0.14814817905426025,-0.20925928039683236],[0.14814817905426025,-0.20925928039683236],[0.15185188286834292,-0.20925928039683236],[0.15462966072890494,-0.20925928039683236],[0.15740743858946693,-0.20925928039683236],[0.16111114240354962,-0.20925928039683236],[0.16851855003171498,-0.20925928039683236],[0.18148151338100432,-0.20925928039683236],[0.19907410649789703,-0.20925928039683236],[0.20740744007958306,-0.20925928039683236],[0.21481484770774842,-0.20740742848979102],[0.22222225533591378,-0.20555557658274967],[0.22314818128943442,-0.20555557658274967],[0.22314818128943442,-0.20555557658274967],[0.22314818128943442,-0.20555557658274967],[0.22314818128943442,-0.20555557658274967],[0.22314818128943442,-0.20555557658274967],[0.22314818128943442,-0.20555557658274967],[0.22314818128943442,-0.20555557658274967]]]",3,"[67,26,37]",,,,,,,,,,,,,,sandDunes_desert_outdoor.jpg,space,12.22664,0,11,11,84,1,readingroom5.jpg,sidewalk2.jpg,restaurant13.jpg,rooftop2.jpg,,
Image_List_4,,,,,,,,,,,,,,,,44347,2020-11-20_11h02.45.701,analogCatScenes,2020.1.3,Win32,60,"[1280,720]","[[[-0.012036954390780213,-0.19722224300106367],[-0.012036954390780213,-0.19722224300106367],[-0.012036954390780213,-0.19722224300106367],[-0.012036954390780213,-0.19722224300106367],[-0.012036954390780213,-0.19722224300106367],[-0.010185158997774123,-0.18333335369825363],[2.6490953233506943e-8,-0.15555557509263357],[0.004629712772591827,-0.14629631555742686],[0.007407490633153833,-0.13611113006869952],[0.013888915793763267,-0.12685187053349284],[0.024074157796525872,-0.10185186978843477],[0.02870373105009397,-0.0888889064391454],[0.03888891653882132,-0.06944446141521136],[0.04537039821346601,-0.060185201880004674],[0.04907415854158393,-0.05370372020535999],[0.053703731795152025,-0.047222238530715305],[0.055555583702193365,-0.04351853471663263],[0.057407492123269954,-0.04166668280959129],[0.059259287516276044,-0.03888890494902929],[0.061111139423317376,-0.03518520113494661],[0.06203706537683805,-0.03425927518142594],[0.06481484323740005,-0.029629645413822597],[0.06851854705148273,-0.021296311832136577],[0.0694444730050034,-0.015740756111012565],[0.07129632491204474,-0.009259274436367882],[0.07314817681908607,0.000925911052359475],[0.07500002872612742,0.009259244634045495],[0.07500002872612742,0.018518504169252183],[0.07500002872612742,0.02685180949392058],[0.07500002872612742,0.034259245379103555],[0.07500002872612742,0.04074069879673061],[0.07500002872612742,0.04444443086783091],[0.07500002872612742,0.045370356821351585],[0.07500002872612742,0.045370356821351585],[0.07500002872612742,0.045370356821351585],[0.07500002872612742,0.045370356821351585],[0.07500002872612742,0.045370356821351585],[0.07500002872612742,0.04444443086783091],[0.07500002872612742,0.04444443086783091],[0.07500002872612742,0.04444443086783091],[0.07500002872612742,0.04444443086783091],[0.07500002872612742,0.04444443086783091],[0.07500002872612742,0.04444443086783091],[0.07500002872612742,0.04444443086783091],[0.07500002872612742,0.04444443086783091],[0.07500002872612742,0.04444443086783091],[0.07500002872612742,0.04444443086783091],[0.07500002872612742,0.04444443086783091],[0.07500002872612742,0.04444443086783091],[0.07500002872612742,0.04444443086783091],[0.07500002872612742,0.04444443086783091],[0.07500002872612742,0.04444443086783091],[0.057407492123269954,0.05555554231007894],[0.007407490633153833,0.07222220947345098],[-0.02407404830058416,0.08796292242628473],[-0.049074049045642214,0.09444443235794703],[-0.08611108718646897,0.12407403461359082],[-0.09999997648927901,0.13611110026637713],[-0.11574071769913037,0.15277776742974916],[-0.1342591802555085,0.16944443459312122],[-0.14629627416531246,0.17777776817480723],[-0.15740738560756048,0.18518517580297258],[-0.1657407191892465,0.18888887961705525],[-0.1703702924428146,0.1935185093846586],[-0.1749999787244532,0.19814813915226195],[-0.17777775658501518,0.2027777689198653],[-0.17870368253853586,0.20462962082690664],[-0.17870368253853586,0.20462962082690664],[-0.17962960849205653,0.20648147273394796],[-0.17962960849205653,0.2083333246409893],[-0.17962960849205653,0.2083333246409893],[-0.17962960849205653,0.20925925059450998],[-0.17962960849205653,0.20925925059450998],[-0.17962960849205653,0.20925925059450998],[-0.17962960849205653,0.20925925059450998],[-0.17962960849205653,0.20925925059450998],[-0.17962960849205653,0.20925925059450998],[-0.17962960849205653,0.20925925059450998],[-0.17962960849205653,0.20925925059450998],[-0.17962960849205653,0.20925925059450998],[-0.17962960849205653,0.20925925059450998],[-0.17962960849205653,0.20925925059450998]],[[0.005555582212077247,-0.20092594681514633],[0.00277780435151524,-0.20092594681514633],[-0.00555552923017078,-0.19814816895458434],[-0.016666640672418805,-0.196296317047543],[-0.044444419278038876,-0.19351853918698098],[-0.08611108718646897,-0.19074076132641898],[-0.15740738560756048,-0.18240742774473295],[-0.19629627565542856,-0.18055557583769163],[-0.2527777588201894,-0.16759261248840226],[-0.2814814633793301,-0.15370372318559222],[-0.3055555381708675,-0.1370370560222202],[-0.3222222053342395,-0.12314816671941016],[-0.34259257631169426,-0.1009259438349141]]]",2,"[82,13]",,,,,,,,,,,,,,staircase7.jpg,space,4.824175,0,12,12,89,1,ruralroad7.jpg,track5.jpg,ShowJumping7.jpg,sculpturegarden3.jpg,,
Image_List_4,,,,,,,,,,,,,,,,44347,2020-11-20_11h02.45.701,analogCatScenes,2020.1.3,Win32,60,"[1280,720]","[[[0.009259286026159922,-0.19722224300106367],[0.009259286026159922,-0.19722224300106367],[0.009259286026159922,-0.19722224300106367],[0.009259286026159922,-0.19722224300106367],[0.023148175328969955,-0.19074076132641898],[0.07962965849373076,-0.17962964988417096],[0.1500000309613016,-0.1722222422560056],[0.2777778125471539,-0.1722222422560056],[0.31851855450206334,-0.17685187202360894]]]",1,[9],,,,,,,,,,,,,,operatingroom1.jpg,space,3.37923,0,13,13,74,1,newsstand2.jpg,playground10.jpg,observatory4.jpeg,lightingstore2.jpg,,
Image_List_4,,,,,,,,,,,,,,,,44347,2020-11-20_11h02.45.701,analogCatScenes,2020.1.3,Win32,60,"[1280,720]","[[[-0.0009258429485321864,-0.19351853918698098],[0.00277780435151524,-0.19166668727993966],[0.014814841747283935,-0.18055557583769163],[0.08148151040077209,-0.1305555743475755],[0.1444444752401776,-0.10277779574195543],[0.28703707208236057,-0.04814816448423598]],[[0.0009259524444739024,-0.19814816895458434],[0.0009259524444739024,-0.19814816895458434],[0.0009259524444739024,-0.19814816895458434],[0.0009259524444739024,-0.19814816895458434],[0.0009259524444739024,-0.19814816895458434],[0.0009259524444739024,-0.19814816895458434],[0.0009259524444739024,-0.19814816895458434],[0.0009259524444739024,-0.1898148353728983],[-0.007407381137212118,-0.1370370560222202],[-0.01481473225134222,-0.09444446216026942],[-0.01481473225134222,-0.025925941599739922],[-0.01481473225134222,0.02685180949392058],[-0.004629603276650111,0.07870369114809567],[0.004629712772591827,0.13240736819527682],[0.01018526849371584,0.15740739719735253],[0.013888915793763267,0.17037036054664187],[0.014814841747283935,0.1907407315240966],[0.01759261960784594,0.2083333246409893],[0.01759261960784594,0.23981480706069205],[0.01759261960784594,0.24814814064237806],[0.01759261960784594,0.25740740017758473],[0.01759261960784594,0.26203702994518807],[0.01759261960784594,0.2638888818522294],[0.01851860207540186,0.2648147936772413],[0.01851860207540186,0.26574073375927076],[0.01851860207540186,0.2712962894803948],[0.01851860207540186,0.2731481272589273],[0.01851860207540186,0.27592590511948933],[0.01851860207540186,0.2787036829800513],[0.01851860207540186,0.27962962306208083],[0.01851860207540186,0.27962962306208083],[0.01851860207540186,0.27962962306208083],[0.01851860207540186,0.27962962306208083],[0.01851860207540186,0.27962962306208083],[0.01851860207540186,0.27962962306208083],[0.01851860207540186,0.27962962306208083],[0.01851860207540186,0.27962962306208083],[0.01851860207540186,0.27962962306208083],[0.01851860207540186,0.27962962306208083]]]",2,"[6,39]",,,,,,,,,,,,,,dugout1.jpg,space,4.58899,0,14,14,40,1,drycleaners4.jpg,farm1.jpg,drymountains.jpg,clothingstore3.jpg,,
Image_List_4,,,,,,,,,,,,,,,,44347,2020-11-20_11h02.45.701,analogCatScenes,2020.1.3,Win32,60,"[1280,720]","[[[-0.0009258429485321864,-0.19907409490810501],[-0.0009258429485321864,-0.19907409490810501],[-0.0009258429485321864,-0.196296317047543],[-0.0009258429485321864,-0.19537039109402232],[-0.0009258429485321864,-0.19259261323346033],[-0.0009258429485321864,-0.18703705751233632],[-0.0009258429485321864,-0.1842592796517743],[-0.0009258429485321864,-0.18055557583769163],[-0.0009258429485321864,-0.1666666865348816],[-0.002777751369608773,-0.15370372318559222],[-0.002777751369608773,-0.1398148338827822],[-0.002777751369608773,-0.12407409267293082],[-0.002777751369608773,-0.11111112932364146],[-0.002777751369608773,-0.1009259438349141],[-0.002777751369608773,-0.08981483239266608],[-0.004629603276650111,-0.07870372095041805],[-0.004629603276650111,-0.0740740911828147],[-0.004629603276650111,-0.06481483164760801],[-0.004629603276650111,-0.058333349972963335],[-0.004629603276650111,-0.054629646158880656],[-0.004629603276650111,-0.050925942344797984],[-0.004629603276650111,-0.04814816448423598],[-0.004629603276650111,-0.047222238530715305],[-0.004629603276650111,-0.0444444606701533],[-0.004629603276650111,-0.04351853471663263],[-0.004629603276650111,-0.04351853471663263],[-0.004629603276650111,-0.04351853471663263],[-0.004629603276650111,-0.04351853471663263],[-0.004629603276650111,-0.04351853471663263],[-0.004629603276650111,-0.04351853471663263],[-0.004629603276650111,-0.04351853471663263],[-0.004629603276650111,-0.04351853471663263],[-0.004629603276650111,-0.04351853471663263],[-0.004629603276650111,-0.04351853471663263],[-0.004629603276650111,-0.04351853471663263],[-0.004629603276650111,-0.04351853471663263],[-0.004629603276650111,-0.04351853471663263],[-0.004629603276650111,-0.04351853471663263],[-0.004629603276650111,-0.04351853471663263],[-0.004629603276650111,-0.04351853471663263],[-0.004629603276650111,-0.04351853471663263],[-0.004629603276650111,-0.04351853471663263],[-0.004629603276650111,-0.04351853471663263],[-0.004629603276650111,-0.04351853471663263],[-0.004629603276650111,-0.04351853471663263],[-0.004629603276650111,-0.04351853471663263],[-0.012962936858336131,-0.04351853471663263],[-0.02222219639354282,-0.04074075685607063],[-0.049074049045642214,-0.037962978995508614],[-0.06296293834845225,-0.03611112708846728],[-0.07129627193013827,-0.03518520113494661],[-0.07870362304426837,-0.03425927518142594],[-0.09259251234707841,-0.033333349227905276],[-0.10092584592876443,-0.033333349227905276],[-0.11018516197800636,-0.030555571367343267],[-0.12037029095269847,-0.028703719460301928],[-0.12592584667382248,-0.02685186755326059],[-0.12777775509489908,-0.02685186755326059],[-0.13240738486250242,-0.025000015646219252],[-0.13240738486250242,-0.025000015646219252],[-0.1333333108160231,-0.024074089692698586],[-0.1351851627230644,-0.022222237785657246],[-0.1351851627230644,-0.022222237785657246],[-0.1351851627230644,-0.022222237785657246],[-0.1351851627230644,-0.022222237785657246],[-0.1351851627230644,-0.022222237785657246],[-0.13611108867658508,-0.022222237785657246],[-0.13611108867658508,-0.022222237785657246]],[[0.0018519349120298203,-0.1898148353728983],[0.0018519349120298203,-0.18055557583769163],[0.003703730305035909,-0.17129631630248493],[0.01018526849371584,-0.14722224151094754],[0.012963046354277847,-0.1305555743475755],[0.016666693654325274,-0.11944446290532748],[0.02037039746840795,-0.09722224002083142],[0.022222249375449286,-0.09259261025322808],[0.024074157796525872,-0.08518520262506273],[0.025000027236011295,-0.0740740911828147],[0.02592595318953196,-0.07037038736873202],[0.02870373105009397,-0.06111112783352534],[0.030555582957135306,-0.04814816448423598],[0.030555582957135306,-0.04351853471663263],[0.030555582957135306,-0.037962978995508614],[0.03148150891065597,-0.033333349227905276],[0.03148150891065597,-0.029629645413822597],[0.03148150891065597,-0.029629645413822597],[0.03148150891065597,-0.028703719460301928],[0.03148150891065597,-0.028703719460301928],[0.03148150891065597,-0.02685186755326059],[0.030555582957135306,-0.02685186755326059],[0.030555582957135306,-0.02685186755326059],[0.030555582957135306,-0.02685186755326059],[0.030555582957135306,-0.02685186755326059],[0.030555582957135306,-0.02685186755326059],[0.030555582957135306,-0.02685186755326059],[0.030555582957135306,-0.02685186755326059],[0.030555582957135306,-0.02685186755326059],[0.030555582957135306,-0.02685186755326059],[0.030555582957135306,-0.02685186755326059],[0.030555582957135306,-0.02685186755326059],[0.030555582957135306,-0.02685186755326059],[0.030555582957135306,-0.02685186755326059],[0.030555582957135306,-0.02685186755326059],[0.030555582957135306,-0.02685186755326059],[0.030555582957135306,-0.02685186755326059],[0.055555583702193365,-0.02037038587861591],[0.09351854779654079,-0.016666682064533235],[0.11944447449511952,-0.016666682064533235],[0.17685188361340098,-0.012962978250450558],[0.1944444767302937,-0.01203705229692989],[0.20092595840493838,-0.010185200389888552],[0.20833336603310373,-0.010185200389888552],[0.21388892175422775,-0.010185200389888552],[0.21666669961478974,-0.009259274436367882],[0.22222225533591378,-0.007407422529326545],[0.22685188510351711,-0.007407422529326545],[0.22870373701055843,-0.007407422529326545],[0.23055558891759978,-0.007407422529326545],[0.23055558891759978,-0.007407422529326545],[0.23055558891759978,-0.007407422529326545],[0.23055558891759978,-0.007407422529326545],[0.23055558891759978,-0.007407422529326545]]]",2,"[68,54]",,,,,,,,,,,,,,courtroom2.jpg,space,5.10815,0,15,15,31,1,cubicle4.jpg,desertvegetation6.jpg,conference4.jpg,cabin3.jpg,,
Image_List_4,,,,,,,,,,,,,,,,44347,2020-11-20_11h02.45.701,analogCatScenes,2020.1.3,Win32,60,"[1280,720]","[[[-0.00555552923017078,-0.20000002086162566],[-0.00555552923017078,-0.20000002086162566],[-0.00555552923017078,-0.20000002086162566],[-0.00555552923017078,-0.20000002086162566],[-0.00555552923017078,-0.19814816895458434],[-0.00555552923017078,-0.196296317047543],[-0.00555552923017078,-0.19259261323346033],[-0.00555552923017078,-0.18518520560529497],[-0.004629603276650111,-0.17777779797712961],[-0.002777751369608773,-0.17314816820952628],[0.00277780435151524,-0.16388890867431957],[0.008333360072639254,-0.15833335295319556],[0.01111113793320126,-0.1546296491391129],[0.01851860207540186,-0.14722224151094754],[0.022222249375449286,-0.14074075983630285],[0.02592595318953196,-0.13796298197574086],[0.029629713517649887,-0.13425927816165817],[0.030555582957135306,-0.13240742625461685],[0.03333336081769731,-0.12962964839405483],[0.03611113867825932,-0.12870372244053416],[0.04722225012050735,-0.12407409267293082],[0.05462971426270795,-0.12222224076588949],[0.06296299133035872,-0.11851853695180681],[0.08240743635429276,-0.11388890718420347],[0.09166669588949945,-0.11203705527716212],[0.10555558519230948,-0.10925927741660012],[0.11296299282047484,-0.10648149955603811],[0.12314817830920219,-0.1037037216954761],[0.1324074378444089,-0.09907409192787277],[0.14907410500778093,-0.08796298048562473],[0.15740743858946693,-0.08148149881098006],[0.1648148462176323,-0.0740740911828147],[0.1759259576598803,-0.06481483164760801],[0.179629661473963,-0.059259275926484],[0.18703706910212833,-0.049074090437756644],[0.19259262482325237,-0.04166668280959129],[0.19907410649789703,-0.03611112708846728],[0.20462966221902107,-0.024074089692698586],[0.21296299580070707,-0.01111112634340922],[0.2212963293823931,-0.004629644668764538],[0.22870373701055843,0.000925911052359475],[0.2500000339415338,0.010185170587566164],[0.26203707133730253,0.01388887440164884],[0.2712963308725092,0.017592578215731514],[0.28333336826827793,0.018518504169252183],[0.2888889239894019,0.018518504169252183],[0.2916667018499639,0.018518504169252183],[0.2916667018499639,0.018518504169252183],[0.29351855375700525,0.018518504169252183],[0.2953704056640466,0.018518504169252183],[0.2962963316175673,0.019444430122772853],[0.2981481835246086,0.019444430122772853],[0.2990741094781293,0.019444430122772853],[0.2990741094781293,0.019444430122772853],[0.2990741094781293,0.019444430122772853],[0.2990741094781293,0.019444430122772853],[0.2990741094781293,0.019444430122772853],[0.2990741094781293,0.019444430122772853]]]",1,[58],,,,,,,,,,,,,,botanicalGarden5.jpg,space,6.151325,0,16,16,14,1,ballroom1.jpg,breakroom5.jpg,bistrooutdoor5.jpg,ballroom3.jpg,,
Image_List_4,,,,,,,,,,,,,,,,44347,2020-11-20_11h02.45.701,analogCatScenes,2020.1.3,Win32,60,"[1280,720]","[[[-0.008333307090732786,-0.19259261323346033],[-0.012962936858336131,-0.18888890941937764],[-0.02222219639354282,-0.18333335369825363],[-0.07592584518370636,-0.15648150104615424],[-0.10370362378932643,-0.14444446365038555],[-0.1314814023949465,-0.12407409267293082],[-0.18148146039909788,-0.08703705453210407],[-0.20370368328359392,-0.059259275926484],[-0.22037035044696596,-0.03703705304198795],[-0.237037017610338,-0.01851853397157457],[-0.24999998095962736,-0.005555570622285207],[-0.26203701835539606,0.01296294844812817],[-0.27592590765820607,0.039814801100227566],[-0.2814814633793301,0.05740736596010265],[-0.28333331528637146,0.06944443161288898],[-0.28333331528637146,0.07592591328753365],[-0.28333331528637146,0.083333320915699],[-0.28333331528637146,0.08888887663682302],[-0.2777777595652474,0.10277776593963305],[-0.2740740557511648,0.11111109952131908],[-0.27222220384412343,0.11574070103190479],[-0.27129627789060273,0.11759258119596375],[-0.27129627789060273,0.11759258119596375],[-0.27129627789060273,0.11759258119596375],[-0.27129627789060273,0.11759258119596375],[-0.27129627789060273,0.11759258119596375],[-0.27129627789060273,0.11759258119596375],[-0.27129627789060273,0.11759258119596375]],[[-0.002777751369608773,-0.19907409490810501],[-0.004629603276650111,-0.19537039109402232],[-0.011111084951294793,-0.1814815017912123],[-0.024999974254104825,-0.1481481674644682],[-0.0435184933245182,-0.10925927741660012],[-0.06203695588089633,-0.06759260950817002],[-0.07592584518370636,-0.022222237785657246],[-0.08518516123294831,0.000925911052359475],[-0.0870369566259544,0.017592578215731514],[-0.0870369566259544,0.02314813393685553],[-0.0870369566259544,0.025925911797417534],[-0.0870369566259544,0.02685180949392058],[-0.0870369566259544,0.02685180949392058],[-0.0870369566259544,0.02685180949392058],[-0.0870369566259544,0.027777763704458874],[-0.0870369566259544,0.029629587354482585],[-0.08611108718646897,0.03055554156502088],[-0.08333330932590696,0.03333331942558289],[-0.0824073833723863,0.036111097286144894],[-0.08148140090483037,0.03703702323966556],[-0.07870362304426837,0.0388888751467069],[-0.07499997574422095,0.041666653007268906],[-0.07407404979070027,0.04351847665729262],[-0.06944442002309693,0.04722220872839292],[-0.06574071620901425,0.0537036904030376],[-0.06111108644141091,0.05740736596010265],[-0.0555555307202869,0.06296292168122666],[-0.0481480665780863,0.06759257970584763],[-0.044444419278038876,0.06944443161288898],[-0.042592510856962286,0.07222220947345098],[-0.03981473299640028,0.07407403312347469],[-0.037036955135838275,0.07499998733401299],[-0.037036955135838275,0.07592591328753365],[-0.035185159742832185,0.07685181098403669],[-0.033333307835790846,0.07685181098403669],[-0.033333307835790846,0.07685181098403669],[-0.03240738188227018,0.077777765194575],[-0.03240738188227018,0.077777765194575],[-0.03240738188227018,0.077777765194575],[-0.03240738188227018,0.077777765194575],[-0.03240738188227018,0.077777765194575],[-0.03240738188227018,0.077777765194575],[-0.03240738188227018,0.077777765194575],[-0.03240738188227018,0.077777765194575],[-0.03240738188227018,0.077777765194575],[-0.03240738188227018,0.077777765194575],[-0.03240738188227018,0.077777765194575]]]",2,"[28,47]",,,,,,,,,,,,,,poolhall5.jpg,space,3.360465,0,17,17,80,1,pavilion2.jpg,racecarcourse2.jpg,porch.jpg,parkinggarage4.jpg,,
Image_List_4,,,,,,,,,,,,,,,,44347,2020-11-20_11h02.45.701,analogCatScenes,2020.1.3,Win32,60,"[1280,720]","[[[-0.004629603276650111,-0.19074076132641898],[-0.004629603276650111,-0.19074076132641898],[-0.004629603276650111,-0.19074076132641898],[-0.004629603276650111,-0.19074076132641898],[-0.004629603276650111,-0.19074076132641898],[-0.004629603276650111,-0.19074076132641898],[-0.003703620809094193,-0.19074076132641898],[-0.003703620809094193,-0.18611113155881565],[-0.00555552923017078,-0.1694444643954436],[-0.012962936858336131,-0.13425927816165817],[-0.02407404830058416,-0.07222223927577337],[-0.025925843693590245,-0.029629645413822597],[-0.025925843693590245,-0.010185200389888552],[-0.02129627044002215,0.037962920936168605],[-0.01481473225134222,0.08148146900865767],[-0.00555552923017078,0.11296292317134278],[-0.002777751369608773,0.13240736819527682],[0.00277780435151524,0.15740739719735253],[0.004629712772591827,0.1731481384072039],[0.004629712772591827,0.1935185093846586],[0.006481508165597916,0.19999999105930327],[0.006481508165597916,0.2027777689198653],[0.006481508165597916,0.2027777689198653],[0.006481508165597916,0.2027777689198653],[0.006481508165597916,0.2027777689198653],[0.006481508165597916,0.2027777689198653],[0.006481508165597916,0.2027777689198653],[0.006481508165597916,0.2027777689198653],[0.006481508165597916,0.2027777689198653],[0.006481508165597916,0.2027777689198653],[0.006481508165597916,0.2027777689198653],[0.006481508165597916,0.2027777689198653]],[[-0.0018518254160881042,-0.20648150253627034],[-0.0018518254160881042,-0.20370372467570835],[-0.0018518254160881042,-0.201851872768667],[-0.002777751369608773,-0.20000002086162566],[-0.00555552923017078,-0.19722224300106367],[-0.01481473225134222,-0.18611113155881565],[-0.017592510111904228,-0.1814815017912123],[-0.02314806583302824,-0.17685187202360894],[-0.03240738188227018,-0.16388890867431957],[-0.044444419278038876,-0.14444446365038555],[-0.049074049045642214,-0.13796298197574086],[-0.060185160487890244,-0.1277777964870135],[-0.06851849406957626,-0.11759261099828613],[-0.07407404979070027,-0.11388890718420347],[-0.0824073833723863,-0.10555557360251745],[-0.09074071695407232,-0.09722224002083142],[-0.09351849481463433,-0.08981483239266608],[-0.10277775434984102,-0.07592594308985604],[-0.10462960625688235,-0.07037038736873202],[-0.10740738411744435,-0.06759260950817002],[-0.10833331007096503,-0.06388890569408735],[-0.10833331007096503,-0.06388890569408735],[-0.10833331007096503,-0.06388890569408735],[-0.10925917951045044,-0.06388890569408735],[-0.10925917951045044,-0.06388890569408735],[-0.11018516197800636,-0.06388890569408735],[-0.11018516197800636,-0.06388890569408735],[-0.11388886579208904,-0.06388890569408735],[-0.11666664365265104,-0.06296297974056668],[-0.12129627342025438,-0.062037053787046006],[-0.1342591802555085,-0.06111112783352534],[-0.14074071844418842,-0.06111112783352534],[-0.14814806955831855,-0.06111112783352534],[-0.15740738560756048,-0.06111112783352534],[-0.16388886728220517,-0.06111112783352534],[-0.1712962749103705,-0.06111112783352534],[-0.18240738635261852,-0.059259275926484],[-0.18796294207374256,-0.058333349972963335],[-0.1925925718413459,-0.058333349972963335],[-0.19444442374838722,-0.058333349972963335],[-0.1981481275624699,-0.058333349972963335],[-0.19907405351599058,-0.058333349972963335],[-0.20185183137655258,-0.05740742401944266],[-0.20277775733007325,-0.05740742401944266],[-0.2046296092371146,-0.05740742401944266],[-0.20555553519063527,-0.05740742401944266],[-0.20833331305119726,-0.05740742401944266],[-0.20925923900471793,-0.05740742401944266],[-0.20925923900471793,-0.05740742401944266],[-0.20925923900471793,-0.05740742401944266]],[[0.003703730305035909,-0.19722224300106367],[0.003703730305035909,-0.19722224300106367],[0.003703730305035909,-0.19722224300106367],[0.003703730305035909,-0.19722224300106367],[0.003703730305035909,-0.19722224300106367],[0.003703730305035909,-0.19722224300106367],[0.003703730305035909,-0.19722224300106367],[0.003703730305035909,-0.19722224300106367],[0.003703730305035909,-0.19722224300106367],[0.003703730305035909,-0.19259261323346033],[0.009259286026159922,-0.17500002011656762],[0.012963046354277847,-0.1601852048602369],[0.01759261960784594,-0.14351853769686487],[0.02037039746840795,-0.1370370560222202],[0.023148175328969955,-0.13333335220813752],[0.02592595318953196,-0.12592594457997217],[0.034259286771217985,-0.10925927741660012],[0.03796304709933591,-0.09537038811379009],[0.04074082495989791,-0.09074075834618675],[0.04351860282045992,-0.08518520262506273],[0.04351860282045992,-0.08425927667154207],[0.04351860282045992,-0.08333335071802139],[0.04351860282045992,-0.08333335071802139],[0.04351860282045992,-0.08333335071802139],[0.04351860282045992,-0.08333335071802139],[0.04351860282045992,-0.08333335071802139],[0.04351860282045992,-0.08333335071802139],[0.04351860282045992,-0.08333335071802139],[0.04351860282045992,-0.08333335071802139],[0.04351860282045992,-0.08333335071802139],[0.04444447225994534,-0.08333335071802139],[0.04537039821346601,-0.08333335071802139],[0.04722225012050735,-0.08148149881098006],[0.05000002798106935,-0.07870372095041805],[0.055555583702193365,-0.0740740911828147],[0.061111139423317376,-0.0712963133222527],[0.06851854705148273,-0.06759260950817002],[0.07870373254021008,-0.06388890569408735],[0.08703706612189611,-0.06296297974056668],[0.09722225161062346,-0.06111112783352534],[0.11296299282047484,-0.060185201880004674],[0.12222225235568153,-0.060185201880004674],[0.12777780807680553,-0.06111112783352534],[0.12777780807680553,-0.06111112783352534],[0.13055558593736755,-0.06111112783352534],[0.13055558593736755,-0.06111112783352534],[0.13055558593736755,-0.06111112783352534],[0.13055558593736755,-0.06111112783352534],[0.13055558593736755,-0.06111112783352534],[0.13055558593736755,-0.06111112783352534],[0.13055558593736755,-0.06111112783352534],[0.13055558593736755,-0.06111112783352534],[0.13055558593736755,-0.06111112783352534]],[[0.005555582212077247,-0.18888890941937764],[0.005555582212077247,-0.18888890941937764],[0.005555582212077247,-0.18888890941937764],[0.005555582212077247,-0.18796298346585696],[-0.0009258429485321864,-0.17592594607008827],[-0.010185158997774123,-0.16296298272079893],[-0.019444418532980814,-0.15370372318559222],[-0.02962960402170817,-0.14351853769686487],[-0.03796293760339419,-0.12870372244053416],[-0.0407407154639562,-0.11388890718420347],[-0.044444419278038876,-0.09907409192787277],[-0.04629627118508021,-0.09259261025322808],[-0.04722219713860088,-0.0861111285785834],[-0.04999997499916289,-0.07777779499689738],[-0.051851826906204226,-0.07222223927577337],[-0.053703622299210316,-0.06851853546169069],[-0.05648140015977232,-0.060185201880004674],[-0.058333308580848904,-0.05740742401944266],[-0.05925917802033433,-0.056481498065921995],[-0.06111108644141091,-0.05277779425183932],[-0.06111108644141091,-0.05000001639127731],[-0.06296293834845225,-0.049074090437756644],[-0.06759251160202034,-0.04351853471663263],[-0.06944442002309693,-0.04074075685607063],[-0.07222219788365894,-0.037962978995508614],[-0.07592584518370636,-0.03518520113494661],[-0.07592584518370636,-0.03518520113494661],[-0.07777775360478295,-0.03148149732086394],[-0.08055553146534496,-0.023148163739177916],[-0.08055553146534496,-0.023148163739177916],[-0.0824073833723863,-0.016666682064533235],[-0.08333330932590696,-0.013888904203971228],[-0.08333330932590696,-0.013888904203971228],[-0.08333330932590696,-0.013888904203971228],[-0.08425917876539238,-0.01111112634340922],[-0.08425917876539238,-0.01111112634340922],[-0.08425917876539238,-0.01111112634340922],[-0.08425917876539238,-0.01111112634340922],[-0.08425917876539238,-0.01111112634340922],[-0.0870369566259544,-0.010185200389888552],[-0.08888886504703097,-0.010185200389888552],[-0.08888886504703097,-0.010185200389888552],[-0.09074071695407232,-0.009259274436367882],[-0.09074071695407232,-0.009259274436367882],[-0.09537029020764042,-0.007407422529326545],[-0.09907405053575834,-0.005555570622285207],[-0.10277775434984102,-0.005555570622285207],[-0.10648140164988844,-0.005555570622285207],[-0.11018516197800636,-0.0037037187152438693],[-0.11481473523157446,-0.0037037187152438693],[-0.11944442151321305,-0.0018518668082025316],[-0.12129627342025438,-0.0018518668082025316],[-0.12314806881326047,-0.0009259408546818627],[-0.1268518291413784,-0.0009259408546818627],[-0.1287036245343845,-1.4901161193847656e-8],[-0.13055553295546107,0.000925911052359475],[-0.1333333108160231,0.0037036889129214816],[-0.1351851627230644,0.005555540819962819],[-0.1351851627230644,0.006481466773483488],[-0.1388888665371471,0.012037022494607502],[-0.1388888665371471,0.01296294844812817],[-0.13981473597663252,0.015740726308690178],[-0.14074071844418842,0.018518504169252183],[-0.14074071844418842,0.018518504169252183],[-0.14074071844418842,0.018518504169252183],[-0.14074071844418842,0.019444430122772853],[-0.14074071844418842,0.020370356076293523],[-0.14074071844418842,0.020370356076293523]],[[2.6490953233506943e-8,-0.19722224300106367],[2.6490953233506943e-8,-0.19722224300106367],[2.6490953233506943e-8,-0.19722224300106367],[2.6490953233506943e-8,-0.19722224300106367],[2.6490953233506943e-8,-0.19722224300106367],[2.6490953233506943e-8,-0.19722224300106367],[2.6490953233506943e-8,-0.19722224300106367],[2.6490953233506943e-8,-0.19722224300106367],[2.6490953233506943e-8,-0.17592594607008827],[2.6490953233506943e-8,-0.15740742699967492],[0.0009259524444739024,-0.1370370560222202],[0.003703730305035909,-0.11111112932364146],[0.01018526849371584,-0.0861111285785834],[0.014814841747283935,-0.07314816522929403],[0.021296379935963866,-0.05740742401944266],[0.029629713517649887,-0.02777779350678126],[0.032407491378211896,-0.015740756111012565],[0.03333336081769731,-0.004629644668764538],[0.034259286771217985,0.000925911052359475],[0.034259286771217985,0.0037036889129214816],[0.034259286771217985,0.005555540819962819],[0.0351852692387739,0.007407392727004157],[0.03611113867825932,0.008333318680524827],[0.03611113867825932,0.009259244634045495],[0.03703706463177999,0.012037022494607502],[0.03796304709933591,0.014814800355169508],[0.03888891653882132,0.016666652262210847],[0.03888891653882132,0.016666652262210847],[0.03888891653882132,0.016666652262210847],[0.039814842492342,0.018518504169252183],[0.04074082495989791,0.020370356076293523],[0.04074082495989791,0.020370356076293523],[0.04074082495989791,0.020370356076293523],[0.04074082495989791,0.020370356076293523],[0.041666694399383336,0.02129628202981419],[0.041666694399383336,0.02129628202981419],[0.04444447225994534,0.02129628202981419],[0.05185193640214594,0.02129628202981419],[0.059259287516276044,0.02129628202981419],[0.07314817681908607,0.02129628202981419],[0.08333336230781344,0.02129628202981419],[0.08981484398245812,0.02129628202981419],[0.09166669588949945,0.02129628202981419],[0.09537039970358213,0.02129628202981419],[0.09722225161062346,0.02129628202981419],[0.0990741035176648,0.02222220798333486],[0.10462965923878882,0.02222220798333486],[0.10648151114583015,0.02222220798333486],[0.10648151114583015,0.02222220798333486],[0.10648151114583015,0.02222220798333486],[0.10648151114583015,0.02222220798333486],[0.10648151114583015,0.02222220798333486],[0.10648151114583015,0.02222220798333486],[0.10648151114583015,0.02222220798333486],[0.10648151114583015,0.02222220798333486]],[[-0.002777751369608773,-0.19444446514050165]]]",6,"[32,50,53,68,55,1]",,,,,,,,,,,,,,cemetery3.jpg,,,0,18,18,23,1,bus_shelter.jpg,church8.jpg,carmechanic4.jpeg,bleachers6.jpg,,
Image_List_4,,,,,,,,,,,,,,,,44347,2020-11-20_11h02.45.701,analogCatScenes,2020.1.3,Win32,60,"[1280,720]","[[[-0.003703620809094193,-0.19444446514050165],[-0.004629603276650111,-0.19444446514050165],[-0.012036954390780213,-0.19444446514050165],[-0.028703621554152254,-0.19444446514050165],[-0.0435184933245182,-0.19444446514050165],[-0.06666664216253493,-0.19537039109402232],[-0.09629627267519633,-0.19537039109402232],[-0.12129627342025438,-0.19537039109402232],[-0.14907405202587445,-0.19074076132641898],[-0.1703702924428146,-0.18518520560529497],[-0.18981479398078388,-0.18703705751233632],[-0.20925923900471793,-0.19074076132641898],[-0.22685183212161064,-0.19537039109402232],[-0.234259239749776,-0.196296317047543],[-0.2398147954709,-0.196296317047543],[-0.24999998095962736,-0.196296317047543],[-0.25370368477371,-0.196296317047543],[-0.2564814626342721,-0.196296317047543],[-0.25833331454131336,-0.196296317047543],[-0.25833331454131336,-0.196296317047543],[-0.25833331454131336,-0.196296317047543],[-0.25833331454131336,-0.196296317047543],[-0.25833331454131336,-0.196296317047543],[-0.25833331454131336,-0.196296317047543],[-0.25833331454131336,-0.196296317047543],[-0.25833331454131336,-0.196296317047543],[-0.25833331454131336,-0.196296317047543],[-0.25833331454131336,-0.196296317047543],[-0.25833331454131336,-0.196296317047543],[-0.25833331454131336,-0.196296317047543],[-0.25833331454131336,-0.196296317047543],[-0.25833331454131336,-0.196296317047543],[-0.25833331454131336,-0.196296317047543],[-0.25833331454131336,-0.196296317047543],[-0.25833331454131336,-0.196296317047543],[-0.25833331454131336,-0.196296317047543]],[[0.007407490633153833,-0.19351853918698098],[0.01018526849371584,-0.18888890941937764],[0.01944447151488728,-0.18055557583769163],[0.041666694399383336,-0.1481481674644682],[0.05833336156275537,-0.12314816671941016],[0.07962965849373076,-0.09629631406731076],[0.11388891877399551,-0.05740742401944266],[0.1342592897514502,-0.030555571367343267],[0.14907410500778093,-0.0027777927617232004],[0.15925929049650828,0.010185170587566164],[0.16574077217115296,0.014814800355169508],[0.17222225384579765,0.019444430122772853],[0.17870373552044233,0.02222220798333486],[0.182407439334525,0.02222220798333486],[0.1861111431486077,0.02314813393685553],[0.1916666988697317,0.024074059890376198],[0.19629632863733504,0.02685180949392058],[0.20185188435845905,0.02685180949392058],[0.20555558817254171,0.02685180949392058],[0.20740744007958306,0.02685180949392058],[0.2092592919866244,0.02685180949392058],[0.21111114389366573,0.02685180949392058],[0.21111114389366573,0.02685180949392058],[0.21111114389366573,0.02685180949392058],[0.21111114389366573,0.02685180949392058],[0.21111114389366573,0.02685180949392058],[0.2120370698471864,0.02685180949392058],[0.2120370698471864,0.02685180949392058],[0.2120370698471864,0.025925911797417534],[0.2120370698471864,0.025925911797417534],[0.21296299580070707,0.025925911797417534],[0.21296299580070707,0.025925911797417534],[0.21296299580070707,0.025925911797417534]]]",2,"[36,33]",,,,,,,,,,,,,,copyroom2.jpg,space,3.08273,0,19,19,30,1,courthouse1.jpg,desertvegetation3.jpg,clothingstore2.jpg,bus_shelter3.jpg,,
Image_List_4,,,,,,,,,,,,,,,,44347,2020-11-20_11h02.45.701,analogCatScenes,2020.1.3,Win32,60,"[1280,720]","[[[-0.0018518254160881042,-0.19537039109402232],[-0.00555552923017078,-0.18888890941937764],[-0.016666640672418805,-0.14351853769686487],[-0.02407404830058416,-0.10277779574195543],[-0.026851826161146165,-0.08148149881098006],[-0.031481399414714256,-0.05185186829831865],[-0.03888886355691486,0.008333318680524827],[-0.04722219713860088,0.02314813393685553],[-0.05740738262732824,0.041666653007268906],[-0.07037028946258235,0.07129625526291268],[-0.07685182765126228,0.08703702472978168],[-0.07962960551182428,0.09907403386853275],[-0.08611108718646897,0.11388887738188108],[-0.08888886504703097,0.11851847889246679],[-0.09166664290759298,0.1249999888241291],[-0.09629627267519633,0.12962959033471483],[-0.09814806806820242,0.13240736819527682],[-0.10092584592876443,0.13518514605583884],[-0.10277775434984102,0.13888887812693915],[-0.10370362378932643,0.13888887812693915],[-0.10370362378932643,0.13888887812693915],[-0.10462960625688235,0.13981480408045982],[-0.10555553221040302,0.14074070177696285],[-0.10555553221040302,0.14166665598750114],[-0.10648140164988844,0.14351847963752487],[-0.10648140164988844,0.14351847963752487],[-0.10648140164988844,0.14351847963752487],[-0.10648140164988844,0.14351847963752487]],[[0.0018519349120298203,-0.20370372467570835],[0.01203706388672193,-0.20000002086162566],[0.02870373105009397,-0.19907409490810501],[0.0694444730050034,-0.19722224300106367],[0.10925928900639216,-0.19259261323346033],[0.1342592897514502,-0.1898148353728983],[0.17500003170635964,-0.18518520560529497],[0.2000000324514177,-0.18055557583769163],[0.2157407736612691,-0.17500002011656762],[0.2453704041739305,-0.16296298272079893],[0.2629629972908232,-0.1546296491391129],[0.27685188659363325,-0.14907409341798888],[0.2925926278034846,-0.1370370560222202],[0.29722225757108794,-0.13425927816165817],[0.30000003543164994,-0.13240742625461685],[0.3046296651992533,-0.1305555743475755],[0.305555591152774,-0.12962964839405483],[0.3064815171062946,-0.12962964839405483],[0.3074074430598153,-0.12962964839405483],[0.3074074430598153,-0.12962964839405483],[0.3074074430598153,-0.12962964839405483],[0.3074074430598153,-0.12962964839405483],[0.3074074430598153,-0.12962964839405483],[0.3074074430598153,-0.12962964839405483],[0.3074074430598153,-0.12962964839405483]]]",2,"[28,25]",,,,,,,,,,,,,,cemetery5.jpg,space,4.573085,0,20,20,24,1,campsite.jpg,cliff3.jpg,cave6.jpg,boardwalk.jpg,,
Image_List_4,,,,,,,,,,,,,,,,44347,2020-11-20_11h02.45.701,analogCatScenes,2020.1.3,Win32,60,"[1280,720]","[[[-0.012036954390780213,-0.19722224300106367],[-0.012036954390780213,-0.19722224300106367],[-0.012036954390780213,-0.19722224300106367],[-0.012036954390780213,-0.19722224300106367],[-0.012036954390780213,-0.19722224300106367],[-0.012036954390780213,-0.19722224300106367],[-0.012036954390780213,-0.19722224300106367],[-0.012036954390780213,-0.19722224300106367],[-0.012036954390780213,-0.19722224300106367],[-0.012036954390780213,-0.19722224300106367],[-0.012036954390780213,-0.19722224300106367],[-0.012036954390780213,-0.19722224300106367],[-0.012036954390780213,-0.18888890941937764],[-0.012962936858336131,-0.1694444643954436],[-0.016666640672418805,-0.14629631555742686],[-0.019444418532980814,-0.1370370560222202],[-0.02222219639354282,-0.12037038885884815],[-0.024999974254104825,-0.07037038736873202],[-0.024999974254104825,-0.04259260876311196],[-0.024999974254104825,-0.022222237785657246],[-0.024999974254104825,0.008333318680524827],[-0.024999974254104825,0.016666652262210847],[-0.024999974254104825,0.02129628202981419],[-0.025925843693590245,0.02685180949392058],[-0.025925843693590245,0.032407365215044594],[-0.025925843693590245,0.032407365215044594],[-0.025925843693590245,0.032407365215044594],[-0.025925843693590245,0.032407365215044594],[-0.025925843693590245,0.032407365215044594],[-0.025925843693590245,0.032407365215044594],[-0.025925843693590245,0.032407365215044594],[-0.025925843693590245,0.032407365215044594],[-0.025925843693590245,0.032407365215044594],[-0.025925843693590245,0.032407365215044594]]]",1,[34],,,,,,,,,,,,,,churchInside3.jpg,space,2.27484,0,21,21,26,1,campusquad2.jpg,cornfield4.jpg,church4.jpg,botanicalGarden7.jpg,,
Image_List_4,,,,,,,,,,,,,,,,44347,2020-11-20_11h02.45.701,analogCatScenes,2020.1.3,Win32,60,"[1280,720]","[[[-0.00555552923017078,-0.20555557658274967],[-0.007407381137212118,-0.20555557658274967],[-0.02222219639354282,-0.20462965062922903],[-0.03240738188227018,-0.20370372467570835],[-0.04537028871752429,-0.20092594681514633],[-0.08611108718646897,-0.20092594681514633],[-0.11111108793152703,-0.20462965062922903],[-0.13055553295546107,-0.2083333544433117],[-0.15092584741888054,-0.2111111323038737],[-0.1759258481639386,-0.2111111323038737],[-0.18240738635261852,-0.2111111323038737],[-0.1925925718413459,-0.2111111323038737],[-0.19907405351599058,-0.21018520635035304],[-0.20277775733007325,-0.20925928039683236],[-0.20925923900471793,-0.2083333544433117],[-0.21203701686527993,-0.2083333544433117],[-0.21203701686527993,-0.2083333544433117],[-0.21481479472584195,-0.2083333544433117],[-0.21574072067936262,-0.2083333544433117],[-0.2166666466328833,-0.2083333544433117],[-0.2166666466328833,-0.2083333544433117],[-0.21944442449344528,-0.2083333544433117],[-0.22037035044696596,-0.2083333544433117],[-0.22037035044696596,-0.2083333544433117],[-0.2222222023540073,-0.2083333544433117],[-0.2222222023540073,-0.2083333544433117],[-0.22314812830752798,-0.2083333544433117],[-0.2249999802145693,-0.2083333544433117],[-0.22592590616808997,-0.2083333544433117],[-0.22592590616808997,-0.2083333544433117],[-0.22592590616808997,-0.2083333544433117]],[[0.003703730305035909,-0.20555557658274967],[0.003703730305035909,-0.20555557658274967],[0.003703730305035909,-0.20555557658274967],[0.008333360072639254,-0.20277779872218768],[0.01944447151488728,-0.20092594681514633],[0.046296380681021924,-0.20092594681514633],[0.05648150965571404,-0.201851872768667],[0.06666669514444139,-0.20462965062922903],[0.0842592882613341,-0.20648150253627034],[0.09166669588949945,-0.20925928039683236],[0.09722225161062346,-0.21018520635035304],[0.10833336305287149,-0.21018520635035304],[0.11574077068103684,-0.21018520635035304],[0.12314817830920219,-0.21018520635035304],[0.13055558593736755,-0.2111111323038737],[0.1379629935655329,-0.2111111323038737],[0.14351854928665692,-0.2129630407249503],[0.15092595691482227,-0.2129630407249503],[0.1583333645429876,-0.2129630407249503],[0.1648148462176323,-0.2138889101644357],[0.174074105752839,-0.21666668802499772],[0.179629661473963,-0.21759261397851837],[0.1861111431486077,-0.21944446588555971],[0.19351855077677302,-0.2203703918390804],[0.20092595840493838,-0.22129637430663632],[0.20555558817254171,-0.22129637430663632],[0.2092592919866244,-0.22129637430663632],[0.21481484770774842,-0.22129637430663632],[0.2157407736612691,-0.22129637430663632],[0.2175926255683104,-0.22129637430663632],[0.21944447747535176,-0.22129637430663632],[0.21944447747535176,-0.22129637430663632],[0.21944447747535176,-0.22129637430663632]]]",2,"[31,33]",,,,,,,,,,,,,,castle2.jpg,space,6.474295,0,22,22,18,1,bleachers5.jpg,casino1.jpg,brewery4.jpg,basement6.jpg,,
Image_List_4,,,,,,,,,,,,,,,,44347,2020-11-20_11h02.45.701,analogCatScenes,2020.1.3,Win32,60,"[1280,720]","[[[-0.004629603276650111,-0.196296317047543],[-0.004629603276650111,-0.196296317047543],[-0.004629603276650111,-0.196296317047543],[-0.004629603276650111,-0.196296317047543],[-0.004629603276650111,-0.196296317047543],[-0.004629603276650111,-0.196296317047543],[-0.004629603276650111,-0.196296317047543],[-0.004629603276650111,-0.196296317047543],[-0.004629603276650111,-0.196296317047543],[-0.004629603276650111,-0.196296317047543],[-0.004629603276650111,-0.196296317047543],[-0.009259176530218207,-0.196296317047543],[-0.018518492579460144,-0.196296317047543],[-0.026851826161146165,-0.196296317047543],[-0.03888886355691486,-0.19537039109402232],[-0.04629627118508021,-0.19444446514050165],[-0.0509258444386483,-0.19444446514050165],[-0.058333308580848904,-0.19444446514050165],[-0.060185160487890244,-0.19444446514050165],[-0.06296293834845225,-0.19444446514050165],[-0.06851849406957626,-0.19537039109402232],[-0.07222219788365894,-0.19537039109402232],[-0.07314806732314436,-0.19537039109402232],[-0.07592584518370636,-0.19537039109402232],[-0.07592584518370636,-0.19537039109402232],[-0.07870362304426837,-0.19259261323346033],[-0.08148140090483037,-0.18611113155881565],[-0.08333330932590696,-0.18055557583769163],[-0.08611108718646897,-0.17685187202360894],[-0.09259251234707841,-0.16574076058136092],[-0.09629627267519633,-0.15833335295319556],[-0.09814806806820242,-0.14907409341798888],[-0.09907405053575834,-0.14629631555742686],[-0.10185182839632034,-0.14074075983630285],[-0.10370362378932643,-0.13888890792926153],[-0.10462960625688235,-0.13518520411517884],[-0.10648140164988844,-0.13333335220813752],[-0.10740738411744435,-0.13148150030109618],[-0.10833331007096503,-0.1305555743475755],[-0.10833331007096503,-0.1305555743475755],[-0.10833331007096503,-0.1305555743475755],[-0.10833331007096503,-0.1305555743475755],[-0.10833331007096503,-0.1305555743475755],[-0.10833331007096503,-0.1305555743475755],[-0.10833331007096503,-0.1305555743475755],[-0.10833331007096503,-0.1305555743475755],[-0.10833331007096503,-0.1305555743475755],[-0.10833331007096503,-0.1305555743475755],[-0.10833331007096503,-0.1305555743475755]]]",1,[49],,,,,,,,,,,,,,hut5.jpg,space,2.64583,0,23,23,57,1,hayfield5.jpg,jail1.jpg,hallway4.jpg,gazebo.jpg,,
Image_List_4,,,,,,,,,,,,,,,,44347,2020-11-20_11h02.45.701,analogCatScenes,2020.1.3,Win32,60,"[1280,720]","[[[0.0018519349120298203,-0.201851872768667],[-0.00555552923017078,-0.19814816895458434],[-0.011111084951294793,-0.19537039109402232],[-0.025925843693590245,-0.1898148353728983],[-0.04999997499916289,-0.17777779797712961],[-0.06574071620901425,-0.16574076058136092],[-0.07870362304426837,-0.15277779723207155],[-0.11388886579208904,-0.1305555743475755],[-0.1333333108160231,-0.12129631481236881],[-0.15092584741888054,-0.11851853695180681],[-0.17222220086389117,-0.10648149955603811],[-0.18425923825965987,-0.1009259438349141],[-0.20277775733007325,-0.09444446216026942],[-0.2222222023540073,-0.08055557285745939],[-0.23518516570329667,-0.0712963133222527],[-0.24166664737794136,-0.06759260950817002],[-0.2490740550061067,-0.058333349972963335],[-0.25370368477371,-0.05370372020535999],[-0.2574073885877927,-0.049074090437756644],[-0.2601851664483547,-0.04351853471663263],[-0.26203701835539606,-0.04166668280959129],[-0.26203701835539606,-0.04166668280959129],[-0.26203701835539606,-0.04166668280959129],[-0.26203701835539606,-0.04166668280959129],[-0.26203701835539606,-0.04166668280959129],[-0.26203701835539606,-0.04166668280959129],[-0.26203701835539606,-0.04166668280959129]],[[0.005555582212077247,-0.20462965062922903],[0.005555582212077247,-0.20462965062922903],[0.008333360072639254,-0.20462965062922903],[0.012963046354277847,-0.20462965062922903],[0.02685193565708788,-0.20462965062922903],[0.04722225012050735,-0.20277779872218768],[0.08240743635429276,-0.20277779872218768],[0.15185188286834292,-0.20462965062922903],[0.20092595840493838,-0.20462965062922903],[0.23796299654576514,-0.20462965062922903],[0.2787037385006746,-0.20462965062922903],[0.2990741094781293,-0.20462965062922903],[0.31481485068798065,-0.20370372467570835],[0.33240744380487336,-0.20370372467570835],[0.33888892547951804,-0.20370372467570835],[0.34259262929360074,-0.20370372467570835],[0.34537040715416273,-0.20370372467570835],[0.3462963331076834,-0.20370372467570835],[0.3462963331076834,-0.20370372467570835],[0.3472222590612041,-0.20370372467570835],[0.3481481850147247,-0.20370372467570835],[0.3481481850147247,-0.20370372467570835],[0.3481481850147247,-0.20370372467570835],[0.3481481850147247,-0.20370372467570835],[0.3481481850147247,-0.20370372467570835],[0.3481481850147247,-0.20370372467570835],[0.3481481850147247,-0.20370372467570835],[0.3481481850147247,-0.20370372467570835],[0.3481481850147247,-0.20370372467570835],[0.3481481850147247,-0.20370372467570835],[0.3481481850147247,-0.20370372467570835],[0.3481481850147247,-0.20370372467570835]]]",2,"[27,32]",,,,,,,,,,,,,,closet.jpg,space,3.63582,0,24,24,27,1,castle3.jpg,courtroom3.jpg,churchInside4.jpg,brewery2.jpg,,
Image_List_4,,,,,,,,,,,,,,,,44347,2020-11-20_11h02.45.701,analogCatScenes,2020.1.3,Win32,60,"[1280,720]","[[[-0.004629603276650111,-0.19259261323346033],[-0.004629603276650111,-0.19259261323346033],[-0.004629603276650111,-0.19259261323346033],[-0.004629603276650111,-0.19259261323346033],[-0.0009258429485321864,-0.1898148353728983],[0.003703730305035909,-0.18703705751233632],[0.022222249375449286,-0.17962964988417096],[0.07870373254021008,-0.1694444643954436],[0.14537040119369823,-0.16481483462784025],[0.2000000324514177,-0.1601852048602369],[0.24074077440632713,-0.16296298272079893],[0.2546296637091372,-0.16388890867431957],[0.25925929347674054,-0.16388890867431957],[0.2648148491978645,-0.16388890867431957],[0.2685185530119472,-0.16388890867431957],[0.2712963308725092,-0.16388890867431957],[0.2722222568260299,-0.16388890867431957],[0.2740741087330712,-0.16388890867431957],[0.2750000346865919,-0.16388890867431957],[0.2750000346865919,-0.16388890867431957],[0.27592596064011254,-0.16388890867431957],[0.27592596064011254,-0.16388890867431957],[0.27685188659363325,-0.16388890867431957],[0.27685188659363325,-0.16388890867431957],[0.27685188659363325,-0.16388890867431957],[0.27685188659363325,-0.16388890867431957],[0.27685188659363325,-0.16388890867431957],[0.27685188659363325,-0.16388890867431957],[0.27685188659363325,-0.16388890867431957]],[[-0.0018518254160881042,-0.2111111323038737],[-0.0018518254160881042,-0.2111111323038737],[-0.0018518254160881042,-0.2111111323038737],[-0.0018518254160881042,-0.2111111323038737],[-0.0018518254160881042,-0.2111111323038737],[-0.0018518254160881042,-0.2111111323038737],[-0.0018518254160881042,-0.2111111323038737],[-0.0018518254160881042,-0.2111111323038737],[-0.0018518254160881042,-0.2111111323038737],[-0.024999974254104825,-0.21018520635035304],[-0.05462960476676623,-0.21018520635035304],[-0.10277775434984102,-0.21018520635035304],[-0.13796294058362643,-0.21018520635035304],[-0.1731480703033766,-0.20648150253627034],[-0.2129629428188006,-0.19722224300106367],[-0.23518516570329667,-0.18888890941937764],[-0.24166664737794136,-0.1814815017912123],[-0.2527777588201894,-0.17314816820952628],[-0.2564814626342721,-0.16759261248840226],[-0.25833331454131336,-0.16481483462784025],[-0.2638888702624374,-0.16203705676727825],[-0.26481479621595805,-0.16111113081375758],[-0.26574072216947875,-0.16111113081375758],[-0.2666666481229994,-0.16111113081375758],[-0.2666666481229994,-0.16111113081375758],[-0.2666666481229994,-0.16111113081375758],[-0.2666666481229994,-0.16111113081375758],[-0.2666666481229994,-0.16111113081375758],[-0.2666666481229994,-0.16111113081375758],[-0.2666666481229994,-0.16111113081375758],[-0.2666666481229994,-0.16111113081375758],[-0.2666666481229994,-0.16111113081375758],[-0.2666666481229994,-0.16111113081375758],[-0.2666666481229994,-0.16111113081375758],[-0.2666666481229994,-0.16111113081375758],[-0.2666666481229994,-0.16111113081375758],[-0.2666666481229994,-0.16111113081375758]],[[-0.010185158997774123,-0.20000002086162566],[-0.010185158997774123,-0.19444446514050165],[-0.016666640672418805,-0.1842592796517743],[-0.028703621554152254,-0.16111113081375758],[-0.03796293760339419,-0.1398148338827822],[-0.04537028871752429,-0.1277777964870135],[-0.051851826906204226,-0.11759261099828613],[-0.06203695588089633,-0.09259261025322808],[-0.06759251160202034,-0.07500001713633538],[-0.06759251160202034,-0.060185201880004674],[-0.06759251160202034,-0.0444444606701533],[-0.06574071620901425,-0.03425927518142594],[-0.06296293834845225,-0.022222237785657246],[-0.05648140015977232,-0.0018518668082025316],[-0.05462960476676623,0.0037036889129214816],[-0.04999997499916289,0.015740726308690178],[-0.04629627118508021,0.024999985843896864],[-0.044444419278038876,0.032407365215044594],[-0.044444419278038876,0.0351851430756066],[-0.042592510856962286,0.04259257896078957],[-0.042592510856962286,0.04444443086783091],[-0.042592510856962286,0.04444443086783091],[-0.042592510856962286,0.04444443086783091],[-0.042592510856962286,0.04444443086783091],[-0.042592510856962286,0.045370356821351585],[-0.042592510856962286,0.045370356821351585],[-0.042592510856962286,0.045370356821351585],[-0.042592510856962286,0.045370356821351585],[-0.042592510856962286,0.045370356821351585],[-0.042592510856962286,0.045370356821351585],[-0.04629627118508021,0.045370356821351585]]]",3,"[29,37,31]",,,,,,,,,,,,,,bleachers7.jpg,space,5.35597,0,25,25,12,1,baggageClaim4.jpg,bedroom6.jpg,bambooforest5.jpg,backyard5.jpg,,
Image_List_4,,,,,,,,,,,,,,,,44347,2020-11-20_11h02.45.701,analogCatScenes,2020.1.3,Win32,60,"[1280,720]","[[[-0.0009258429485321864,-0.2083333544433117],[-0.0009258429485321864,-0.2083333544433117],[-0.0009258429485321864,-0.2083333544433117],[-0.0009258429485321864,-0.20555557658274967],[-0.0009258429485321864,-0.20462965062922903],[-0.0009258429485321864,-0.20092594681514633],[2.6490953233506943e-8,-0.19166668727993966],[0.003703730305035909,-0.18611113155881565],[0.008333360072639254,-0.1814815017912123],[0.02592595318953196,-0.1601852048602369],[0.034259286771217985,-0.14722224151094754],[0.04537039821346601,-0.13425927816165817],[0.059259287516276044,-0.1157407590912448],[0.06574076919092073,-0.10740742550955878],[0.07314817681908607,-0.0981481659743521],[0.08055558444725143,-0.0740740911828147],[0.08333336230781344,-0.062037053787046006],[0.08703706612189611,-0.05185186829831865],[0.09074076993597878,-0.04259260876311196],[0.10185188137822682,-0.029629645413822597],[0.11296299282047484,-0.02037038587861591],[0.12314817830920219,-0.01111112634340922],[0.1259259561697642,-0.008333348482847214],[0.12777780807680553,-0.005555570622285207],[0.12962965998384687,-0.0027777927617232004],[0.13055558593736755,-1.4901161193847656e-8],[0.13055558593736755,0.0037036889129214816],[0.13055558593736755,0.007407392727004157],[0.13055558593736755,0.009259244634045495],[0.13055558593736755,0.009259244634045495],[0.13055558593736755,0.009259244634045495],[0.13055558593736755,0.009259244634045495],[0.13055558593736755,0.009259244634045495],[0.13055558593736755,0.009259244634045495],[0.13055558593736755,0.009259244634045495],[0.13055558593736755,0.009259244634045495]],[[-0.0018518254160881042,-0.20462965062922903],[-0.0018518254160881042,-0.20462965062922903],[-0.0018518254160881042,-0.20462965062922903],[0.0018519349120298203,-0.20462965062922903],[0.014814841747283935,-0.20462965062922903],[0.02592595318953196,-0.20462965062922903],[0.05000002798106935,-0.20370372467570835],[0.08333336230781344,-0.19907409490810501],[0.13703706761201223,-0.19907409490810501],[0.174074105752839,-0.19537039109402232],[0.2092592919866244,-0.1898148353728983],[0.24444447822040982,-0.1898148353728983],[0.2648148491978645,-0.1898148353728983],[0.27962966445419524,-0.1898148353728983],[0.2925926278034846,-0.18703705751233632],[0.2990741094781293,-0.18703705751233632],[0.302777813292212,-0.18703705751233632],[0.3046296651992533,-0.18703705751233632],[0.305555591152774,-0.18703705751233632],[0.305555591152774,-0.18703705751233632],[0.305555591152774,-0.18703705751233632],[0.305555591152774,-0.18703705751233632],[0.305555591152774,-0.18703705751233632],[0.3064815171062946,-0.18703705751233632],[0.3064815171062946,-0.18703705751233632],[0.3064815171062946,-0.18703705751233632],[0.3064815171062946,-0.18703705751233632],[0.3064815171062946,-0.18703705751233632]]]",2,"[36,28]",,,,,,,,,,,,,,carmechanic.jpg,space,3.96067,0,26,26,17,1,bikerack1.jpg,campsite6.jpg,breakroom4.jpg,baseball6.jpg,,
Image_List_4,,,,,,,,,,,,,,,,44347,2020-11-20_11h02.45.701,analogCatScenes,2020.1.3,Win32,60,"[1280,720]","[[[0.006481508165597916,-0.19537039109402232],[0.006481508165597916,-0.19537039109402232],[0.006481508165597916,-0.19537039109402232],[0.006481508165597916,-0.19537039109402232],[2.6490953233506943e-8,-0.18333335369825363],[-0.02222219639354282,-0.14351853769686487],[-0.03611108569635285,-0.11944446290532748],[-0.04629627118508021,-0.1009259438349141],[-0.058333308580848904,-0.08055557285745939],[-0.06574071620901425,-0.062037053787046006],[-0.07685182765126228,-0.03888890494902929],[-0.08148140090483037,-0.013888904203971228],[-0.08333330932590696,0.0037036889129214816],[-0.08333330932590696,0.019444430122772853],[-0.08333330932590696,0.037962920936168605],[-0.08333330932590696,0.045370356821351585],[-0.08333330932590696,0.05648146826359961],[-0.08333330932590696,0.06666665375232697],[-0.0870369566259544,0.077777765194575],[-0.08796293909351031,0.08148146900865767],[-0.08888886504703097,0.08518514456572272],[-0.0898147344865164,0.08888887663682302],[-0.0898147344865164,0.08888887663682302],[-0.0898147344865164,0.08888887663682302],[-0.0898147344865164,0.08888887663682302],[-0.0898147344865164,0.08888887663682302],[-0.0898147344865164,0.08888887663682302],[-0.0898147344865164,0.08888887663682302],[-0.0898147344865164,0.08888887663682302],[-0.0898147344865164,0.08888887663682302],[-0.0898147344865164,0.08888887663682302],[-0.0898147344865164,0.08888887663682302]]]",1,[32],,,,,,,,,,,,,,sandDunes_desert_outdoor8.jpg,space,2.3121,0,27,27,86,1,restaurant14.jpg,stripmall.jpg,ruralroad3.jpg,rooftop4.jpg,,
