image_list,key_resp_intructions.keys,key_resp_intructions.rt,key_resp_intructions_3.keys,key_resp_intructions_3.rt,PracticeComplete_2.keys,PracticeComplete_2.rt,PracticeComplete_3.keys,PracticeComplete_3.rt,demo_trials.thisRepN,demo_trials.thisTrialN,demo_trials.thisN,demo_trials.thisIndex,demo_trials.ran,demo_images,path_images,participant,date,expName,psychopyVersion,OS,frameRate,windowSize,practice_complete.keys,practice_complete.rt,boxes_checked,PracticeComplete.keys,PracticeComplete.rt,practice_trials.thisRepN,practice_trials.thisTrialN,practice_trials.thisN,practice_trials.thisIndex,practice_trials.ran,practice_images,feedback_images,key_resp_intructions_2.keys,key_resp_intructions_2.rt,Image_List_2,trial_complete.keys,trial_complete.rt,trial_mouse.x,trial_mouse.y,trial_mouse.leftButton,trial_mouse.midButton,trial_mouse.rightButton,trial_mouse.time,trial_mouse.clicked_name,trials.thisRepN,trials.thisTrialN,trials.thisN,trials.thisIndex,trials.ran,Image_List_1,Image_List_3,Image_List_4,Image_List_5,key_resp.keys,key_resp.rt
Image_List_2,space,4.13659,space,2.797965,space,16.816305,space,5.230445,0,0,0,2,1,ahead_right.jpg,ahead_right_path.jpg,44429,2020-11-19_16h34.00.322,lingCatScenes,2020.1.3,Win32,60,,,,,,,,,,,,,,,,,,,,,,,,,,,,,,,,,,,,
Image_List_2,,,,,space,12.287335,space,2.090155,0,1,1,3,1,ahead_right_left.jpg,ahead_right_left_path.jpg,44429,2020-11-19_16h34.00.322,lingCatScenes,2020.1.3,Win32,60,,,,,,,,,,,,,,,,,,,,,,,,,,,,,,,,,,,,
Image_List_2,,,,,space,10.22336,space,1.43816,0,2,2,4,1,left.jpg,left_path.jpg,44429,2020-11-19_16h34.00.322,lingCatScenes,2020.1.3,Win32,60,,,,,,,,,,,,,,,,,,,,,,,,,,,,,,,,,,,,
Image_List_2,,,,,space,0.953165,space,4.584235,0,3,3,5,1,right.jpg,right_path.jpg,44429,2020-11-19_16h34.00.322,lingCatScenes,2020.1.3,Win32,60,,,,,,,,,,,,,,,,,,,,,,,,,,,,,,,,,,,,
Image_List_2,,,,,space,0.045195,space,0.438195,0,4,4,1,1,ahead_left.jpg,ahead_left_path.jpg,44429,2020-11-19_16h34.00.322,lingCatScenes,2020.1.3,Win32,60,,,,,,,,,,,,,,,,,,,,,,,,,,,,,,,,,,,,
Image_List_2,,,,,space,3.81834,space,0.192925,0,5,5,0,1,ahead.jpg,ahead_path.jpg,44429,2020-11-19_16h34.00.322,lingCatScenes,2020.1.3,Win32,60,,,,,,,,,,,,,,,,,,,,,,,,,,,,,,,,,,,,
Image_List_2,,,,,space,0.133155,space,0.204325,0,6,6,6,1,right_left.jpg,right_left_path.jpg,44429,2020-11-19_16h34.00.322,lingCatScenes,2020.1.3,Win32,60,,,,,,,,,,,,,,,,,,,,,,,,,,,,,,,,,,,,
Image_List_2,,,,,,,,,,,,,,,,44429,2020-11-19_16h34.00.322,lingCatScenes,2020.1.3,Win32,60,"[1366,768]",space,0.13546,[],space,0.189615,0,0,0,1,1,ahead_left_2.jpg,ahead_left_2_path.jpg,,,,,,,,,,,,,,,,,,,,,,,
Image_List_2,,,,,,,,,,,,,,,,44429,2020-11-19_16h34.00.322,lingCatScenes,2020.1.3,Win32,60,"[1366,768]",space,27.76441,"[""slight_right_box"",""right_box"",""ahead_box""]",space,1.7499,0,1,1,4,1,left_2.jpg,left_2_path.jpg,,,,,,,,,,,,,,,,,,,,,,,
Image_List_2,,,,,,,,,,,,,,,,44429,2020-11-19_16h34.00.322,lingCatScenes,2020.1.3,Win32,60,"[1366,768]",space,9.268375,"[""ahead_box"",""slight_right_box"",""slight_left_box""]",space,0.953895,0,2,2,0,1,ahead_2.jpg,ahead_2_path.jpg,,,,,,,,,,,,,,,,,,,,,,,
Image_List_2,,,,,,,,,,,,,,,,44429,2020-11-19_16h34.00.322,lingCatScenes,2020.1.3,Win32,60,"[1366,768]",space,2.056115,"[""ahead_box""]",space,5.2781,0,3,3,2,1,ahead_right_2.jpg,ahead_right_2_path.jpg,,,,,,,,,,,,,,,,,,,,,,,
Image_List_2,,,,,,,,,,,,,,,,44429,2020-11-19_16h34.00.322,lingCatScenes,2020.1.3,Win32,60,"[1366,768]",space,8.941075,"[""left_box"",""slight_right_box""]",space,2.248755,0,4,4,6,1,right_left_2.jpg,right_left_2_path.jpg,,,,,,,,,,,,,,,,,,,,,,,
Image_List_2,,,,,,,,,,,,,,,,44429,2020-11-19_16h34.00.322,lingCatScenes,2020.1.3,Win32,60,"[1366,768]",space,11.54905,"[""sharp_left_box"",""right_box""]",space,1.994755,0,5,5,3,1,ahead_right_left_2.jpg,ahead_right_left_2_path.jpg,,,,,,,,,,,,,,,,,,,,,,,
Image_List_2,,,,,,,,,,,,,,,,44429,2020-11-19_16h34.00.322,lingCatScenes,2020.1.3,Win32,60,"[1366,768]",space,14.26763,"[""slight_left_box"",""ahead_box""]",space,3.46949,0,6,6,5,1,right_2.jpg,right_2_path.jpg,,,,,,,,,,,,,,,,,,,,,,,
Image_List_2,,,,,,,,,,,,,,,,44429,2020-11-19_16h34.00.322,lingCatScenes,2020.1.3,Win32,60,"[1366,768]",,,"[""trial_left_box"",""trial_ahead_box""]",,,,,,,,,,space,3.70276,bedroom6.jpg,space,5.74808,"[-0.3932291666666667,0.014322916666666666]","[-0.3111979166666667,-0.296875]","[1,1]","[0,0]","[0,0]","[4.200414999970235,5.43632500001695]","[""trial_left_box"",""trial_ahead_box""]",0,0,0,12,1,baggageClaim4.jpg,bambooforest5.jpg,bleachers7.jpg,backyard5.jpg,,
Image_List_2,,,,,,,,,,,,,,,,44429,2020-11-19_16h34.00.322,lingCatScenes,2020.1.3,Win32,60,"[1366,768]",,,"[""trial_slight_right_box""]",,,,,,,,,,,,poolhall1.jpg,space,3.149915,"[0.23046875,0.19921875,-0.1875]","[-0.3190104166666667,-0.2981770833333333,-0.2721354166666667]","[1,1,1]","[0,0,0]","[0,0,0]","[1.4792849999503233,1.8136549999471754,2.7938149999827147]","[""trial_slight_right_box""]",0,1,1,78,1,parkinglot3.jpg,pier5.jpg,pavilion3.jpg,observatory1.jpg,,
Image_List_2,,,,,,,,,,,,,,,,44429,2020-11-19_16h34.00.322,lingCatScenes,2020.1.3,Win32,60,"[1366,768]",,,"[""trial_slight_left_box"",""trial_left_box""]",,,,,,,,,,,,volleyballcourt4.jpg,space,3.989085,"[-0.20833333333333334,-0.0013020833333333333,-0.0078125,-0.3971354166666667]","[-0.3151041666666667,-0.3111979166666667,-0.3059895833333333,-0.2942708333333333]","[1,1,1,1]","[0,0,0,0]","[0,0,0,0]","[1.0702499999897555,2.167959999991581,2.9005400000023656,3.5990699999965727]","[""trial_slight_left_box"",""trial_ahead_box"",""trial_ahead_box"",""trial_left_box""]",0,2,2,93,1,tollbooth8.jpg,staircase4.jpg,warehouseoutside2.jpg,tenniscourt.jpg,,
Image_List_2,,,,,,,,,,,,,,,,44429,2020-11-19_16h34.00.322,lingCatScenes,2020.1.3,Win32,60,"[1366,768]",,,"[""trial_right_box"",""trial_slight_right_box""]",,,,,,,,,,,,racecarcourse2.jpg,space,3.749245,"[0.4036458333333333,0.20442708333333334,0.026041666666666668]","[-0.3072916666666667,-0.31640625,-0.2994791666666667]","[1,1,1]","[0,0,0]","[0,0,0]","[2.2681250000023283,2.88349500001641,3.449190000013914]","[""trial_right_box"",""trial_slight_right_box""]",0,3,3,80,1,pavilion2.jpg,porch.jpg,poolhall5.jpg,parkinggarage4.jpg,,
Image_List_2,,,,,,,,,,,,,,,,44429,2020-11-19_16h34.00.322,lingCatScenes,2020.1.3,Win32,60,"[1366,768]",,,"[""trial_left_box""]",,,,,,,,,,,,volleyballcourt.jpg,space,2.58618,"[-0.38671875,-0.028645833333333332]","[-0.3072916666666667,-0.29296875]","[1,1]","[0,0]","[0,0]","[1.5822150000021793,2.215054999978747]","[""trial_left_box""]",0,4,4,92,1,staircase.jpg,skatepark7.jpg,tvstudio2.jpg,soccerfield2.jpg,,
Image_List_2,,,,,,,,,,,,,,,,44429,2020-11-19_16h34.00.322,lingCatScenes,2020.1.3,Win32,60,"[1366,768]",,,"[""trial_ahead_box""]",,,,,,,,,,,,frontLawn5.jpg,space,1.442,[0.0013020833333333333],[-0.2942708333333333],[1],[0],[0],[1.1419899999746121],"[""trial_ahead_box""]",0,5,5,46,1,flowershop.jpg,farmersmarket4.jpg,fountain4.jpg,dormroom6.jpg,,
Image_List_2,,,,,,,,,,,,,,,,44429,2020-11-19_16h34.00.322,lingCatScenes,2020.1.3,Win32,60,"[1366,768]",,,"[""trial_ahead_box""]",,,,,,,,,,,,sidewalk5.jpg,space,1.729285,[0.01171875],[-0.2877604166666667],[1],[0],[0],[1.4526649999897927],"[""trial_ahead_box""]",0,6,6,85,1,recordingstudio4.jpg,ruralroad2.jpg,sandDunes_desert_outdoor3.jpg,rooftop3.jpg,,
Image_List_2,,,,,,,,,,,,,,,,44429,2020-11-19_16h34.00.322,lingCatScenes,2020.1.3,Win32,60,"[1366,768]",,,"[""trial_ahead_box""]",,,,,,,,,,,,deck2.jpg,space,1.298145,[0.0078125],[-0.2877604166666667],[1],[0],[0],[1.0575299999909475],"[""trial_ahead_box""]",0,7,7,29,1,cornfield2.jpg,cliff2.jpg,constructionSite4.jpg,bridalboutique3.jpg,,
Image_List_2,,,,,,,,,,,,,,,,44429,2020-11-19_16h34.00.322,lingCatScenes,2020.1.3,Win32,60,"[1366,768]",,,"[""trial_slight_left_box"",""trial_slight_right_box"",""trial_ahead_box""]",,,,,,,,,,,,homeoffice.jpg,space,3.96159,"[-0.20703125,-0.44140625,0.19791666666666666,0.00390625]","[-0.3020833333333333,-0.2994791666666667,-0.29296875,-0.32421875]","[1,1,1,1]","[0,0,0,0]","[0,0,0,0]","[1.5850850000279024,2.167075000004843,2.9665050000185147,3.7307950000395067]","[""trial_slight_left_box"",""trial_slight_right_box"",""trial_ahead_box""]",0,8,8,53,1,gazebo3.jpg,frontLawn3.jpg,homegarage3.jpg,fountain.jpg,,
Image_List_2,,,,,,,,,,,,,,,,44429,2020-11-19_16h34.00.322,lingCatScenes,2020.1.3,Win32,60,"[1366,768]",,,"[""trial_left_box"",""trial_slight_right_box"",""trial_ahead_box""]",,,,,,,,,,,,campsite6.jpg,space,2.987355,"[-0.3971354166666667,0.16145833333333334,0.17838541666666666,0.014322916666666666]","[-0.29296875,-0.3059895833333333,-0.3046875,-0.2955729166666667]","[1,1,1,1]","[0,0,0,0]","[0,0,0,0]","[1.4187899999669753,2.100304999970831,2.4321800000034273,2.849049999960698]","[""trial_left_box"",""trial_slight_right_box"",""trial_ahead_box""]",0,9,9,17,1,bikerack1.jpg,breakroom4.jpg,carmechanic.jpg,baseball6.jpg,,
Image_List_2,,,,,,,,,,,,,,,,44429,2020-11-19_16h34.00.322,lingCatScenes,2020.1.3,Win32,60,"[1366,768]",,,"[""trial_slight_left_box"",""trial_left_box""]",,,,,,,,,,,,sculpturegarden1.jpg,space,3.335805,"[-0.21744791666666666,-0.4375,-0.40234375]","[-0.3059895833333333,-0.2955729166666667,-0.2942708333333333]","[1,1,1]","[0,0,0]","[0,0,0]","[1.708779999986291,2.407729999977164,2.834900000016205]","[""trial_slight_left_box"",""trial_left_box""]",0,10,10,83,1,readingroom1.jpg,promenadeDeck6.jpg,restaurant8.jpg,readingroom2.jpg,,
Image_List_2,,,,,,,,,,,,,,,,44429,2020-11-19_16h34.00.322,lingCatScenes,2020.1.3,Win32,60,"[1366,768]",,,"[""trial_slight_left_box"",""trial_ahead_box"",""trial_slight_right_box""]",,,,,,,,,,,,diningroom5.jpg,space,3.453845,"[-0.022135416666666668,-0.17578125,0.06901041666666667,0.01171875,0.22005208333333334]","[-0.2747395833333333,-0.28125,-0.2721354166666667,-0.27734375,-0.30859375]","[1,1,1,1,1]","[0,0,0,0,0]","[0,0,0,0,0]","[1.1461899999994785,1.728339999972377,2.3274149999488145,2.60954999999376,3.2942499999771826]","[""trial_slight_left_box"",""trial_ahead_box"",""trial_slight_right_box""]",0,11,11,34,1,deck4.jpg,courthouse4.jpg,diner11.jpg,campusquad1.jpg,,
Image_List_2,,,,,,,,,,,,,,,,44429,2020-11-19_16h34.00.322,lingCatScenes,2020.1.3,Win32,60,"[1366,768]",,,"[""trial_ahead_box"",""trial_slight_left_box""]",,,,,,,,,,,,playroom6.jpg,space,2.545395,"[-0.00390625,-0.16796875,-0.19921875]","[-0.3033854166666667,-0.30078125,-0.2981770833333333]","[1,1,1]","[0,0,0]","[0,0,0]","[1.4405599999590777,2.0438349999603815,2.34130999998888]","[""trial_ahead_box"",""trial_slight_left_box""]",0,12,12,77,1,parkinggarage2.jpg,pasture9.jpg,park8.jpg,mallindoor6.jpg,,
Image_List_2,,,,,,,,,,,,,,,,44429,2020-11-19_16h34.00.322,lingCatScenes,2020.1.3,Win32,60,"[1366,768]",,,[],,,,,,,,,,,,cafeteria6.jpg,space,1.64285,[-0.3736979166666667],[-0.30078125],[1],[0],[0],[1.1439249999821186],[],0,13,13,16,1,basement.jpg,breakroom2.jpg,campusquad4.jpg,barbershop2.jpg,,
Image_List_2,,,,,,,,,,,,,,,,44429,2020-11-19_16h34.00.322,lingCatScenes,2020.1.3,Win32,60,"[1366,768]",,,"[""trial_left_box""]",,,,,,,,,,,,bambooforest.jpg,space,1.39063,[-0.3971354166666667],[-0.30078125],[1],[0],[0],[1.007839999976568],"[""trial_left_box""]",0,14,14,5,1,artStudio3.jpg,auto_showroom4.jpg,attic4.jpg,amusement3.jpg,,
Image_List_2,,,,,,,,,,,,,,,,44429,2020-11-19_16h34.00.322,lingCatScenes,2020.1.3,Win32,60,"[1366,768]",,,"[""trial_slight_left_box""]",,,,,,,,,,,,diner12.jpg,space,1.878575,"[-0.16536458333333334,-0.1953125]","[-0.2955729166666667,-0.296875]","[1,1]","[0,0]","[0,0]","[1.2540400000289083,1.6719450000091456]","[""trial_slight_left_box""]",0,15,15,32,1,dancestudio6.jpg,constructionSite2.jpg,dentist4.jpg,cabin4.jpg,,
Image_List_2,,,,,,,,,,,,,,,,44429,2020-11-19_16h34.00.322,lingCatScenes,2020.1.3,Win32,60,"[1366,768]",,,"[""trial_ahead_box""]",,,,,,,,,,,,barbershop3.jpg,space,1.420155,[0.01171875],[-0.3098958333333333],[1],[0],[0],[1.152170000015758],"[""trial_ahead_box""]",0,16,16,10,1,backstage2.jpg,ballroom4.jpg,basketballcourt3.jpg,ATM4.jpg,,
Image_List_2,,,,,,,,,,,,,,,,44429,2020-11-19_16h34.00.322,lingCatScenes,2020.1.3,Win32,60,"[1366,768]",,,"[""trial_slight_right_box"",""trial_right_box"",""trial_ahead_box""]",,,,,,,,,,,,greenhouse5.jpg,space,3.06757,"[0.203125,0.39453125,-0.016927083333333332]","[-0.3072916666666667,-0.3098958333333333,-0.2864583333333333]","[1,1,1]","[0,0,0]","[0,0,0]","[1.1246500000124797,2.3230900000198744,2.8387300000176765]","[""trial_slight_right_box"",""trial_right_box"",""trial_ahead_box""]",0,17,17,49,1,frontDoor3.jpg,flowershop3.jpg,greenhouse.jpg,farm2.jpg,,
Image_List_2,,,,,,,,,,,,,,,,44429,2020-11-19_16h34.00.322,lingCatScenes,2020.1.3,Win32,60,"[1366,768]",,,"[""trial_slight_left_box""]",,,,,,,,,,,,sidewalk2.jpg,space,1.138955,[-0.19140625],[-0.2942708333333333],[1],[0],[0],[0.8523300000233576],"[""trial_slight_left_box""]",0,18,18,84,1,readingroom5.jpg,restaurant13.jpg,sandDunes_desert_outdoor.jpg,rooftop2.jpg,,
Image_List_2,,,,,,,,,,,,,,,,44429,2020-11-19_16h34.00.322,lingCatScenes,2020.1.3,Win32,60,"[1366,768]",,,"[""trial_ahead_box""]",,,,,,,,,,,,stripmall.jpg,space,1.591415,[-0.005208333333333333],[-0.3098958333333333],[1],[0],[0],[1.121465000032913],"[""trial_ahead_box""]",0,19,19,86,1,restaurant14.jpg,ruralroad3.jpg,sandDunes_desert_outdoor8.jpg,rooftop4.jpg,,
Image_List_2,,,,,,,,,,,,,,,,44429,2020-11-19_16h34.00.322,lingCatScenes,2020.1.3,Win32,60,"[1366,768]",,,"[""trial_left_box"",""trial_slight_left_box""]",,,,,,,,,,,,pharmacy4.jpg,space,2.79175,"[-0.3841145833333333,-0.19921875]","[-0.2916666666666667,-0.3046875]","[1,1]","[0,0]","[0,0]","[1.7063599999528378,2.536924999963958]","[""trial_left_box"",""trial_slight_left_box""]",0,20,20,72,1,museum5.jpg,musicStore1.jpg,museum4.jpg,kindergarten_classroom.jpg,,
Image_List_2,,,,,,,,,,,,,,,,44429,2020-11-19_16h34.00.322,lingCatScenes,2020.1.3,Win32,60,"[1366,768]",,,"[""trial_ahead_box"",""trial_slight_right_box""]",,,,,,,,,,,,bar2.jpg,space,1.896855,"[0.006510416666666667,0.18098958333333334]","[-0.2981770833333333,-0.3046875]","[1,1]","[0,0]","[0,0]","[0.9539849999709986,1.6045799999847077]","[""trial_ahead_box"",""trial_slight_right_box""]",0,21,21,9,1,auto_showroom3.jpg,ballroom2.jpg,basement5.jpg,arcade2.jpg,,
Image_List_2,,,,,,,,,,,,,,,,44429,2020-11-19_16h34.00.322,lingCatScenes,2020.1.3,Win32,60,"[1366,768]",,,"[""trial_slight_left_box"",""trial_ahead_box"",""trial_slight_right_box""]",,,,,,,,,,,,conference3.jpg,space,2.274085,"[-0.11328125,-0.17838541666666666,0.006510416666666667,0.21614583333333334]","[-0.30078125,-0.3020833333333333,-0.3190104166666667,-0.2903645833333333]","[1,1,1,1]","[0,0,0,0]","[0,0,0,0]","[1.0062050000415184,1.3218800000031479,1.7228150000446476,2.0875100000412203]","[""trial_slight_left_box"",""trial_ahead_box"",""trial_slight_right_box""]",0,22,22,25,1,campsite7.jpg,church3.jpg,checkoutcounter2.jpg,botanicalGarden4.jpg,,
Image_List_2,,,,,,,,,,,,,,,,44429,2020-11-19_16h34.00.322,lingCatScenes,2020.1.3,Win32,60,"[1366,768]",,,"[""trial_slight_right_box"",""trial_ahead_box""]",,,,,,,,,,,,church6.jpg,space,2.290695,"[0.18489583333333334,0.02734375,0.0026041666666666665]","[-0.2916666666666667,-0.28125,-0.2877604166666667]","[1,1,1]","[0,0,0]","[0,0,0]","[0.9237300000386313,1.656554999994114,2.070609999995213]","[""trial_slight_right_box"",""trial_ahead_box""]",0,23,23,22,1,bowlingalley5.jpg,cargo5.jpg,cemetery.jpg,bistrooutdoor6.jpg,,
Image_List_2,,,,,,,,,,,,,,,,44429,2020-11-19_16h34.00.322,lingCatScenes,2020.1.3,Win32,60,"[1366,768]",,,"[""trial_ahead_box"",""trial_slight_left_box""]",,,,,,,,,,,,sandDunes_desert_outdoor9.jpg,space,1.859725,"[0.0013020833333333333,-0.140625,-0.19270833333333334]","[-0.2890625,-0.3111979166666667,-0.296875]","[1,1,1]","[0,0,0]","[0,0,0]","[0.8489950000075623,1.4142899999860674,1.6477999999769963]","[""trial_ahead_box"",""trial_slight_left_box""]",0,24,24,82,1,publicrestroom2.jpg,promenadeDeck3.jpg,readingroom4.jpg,postoffice4.jpg,,
Image_List_2,,,,,,,,,,,,,,,,44429,2020-11-19_16h34.00.322,lingCatScenes,2020.1.3,Win32,60,"[1366,768]",,,"[""trial_left_box"",""trial_slight_right_box""]",,,,,,,,,,,,trainStation5.jpg,space,2.0441,"[-0.41015625,0.22005208333333334]","[-0.3020833333333333,-0.30078125]","[1,1]","[0,0]","[0,0]","[0.9876700000022538,1.8694649999961257]","[""trial_left_box"",""trial_slight_right_box""]",0,25,25,91,1,shoestore2.jpg,skatepark5.jpg,ticket_counter6.jpg,sidewalk3.jpg,,
Image_List_2,,,,,,,,,,,,,,,,44429,2020-11-19_16h34.00.322,lingCatScenes,2020.1.3,Win32,60,"[1366,768]",,,"[""trial_slight_right_box""]",,,,,,,,,,,,poolhall2.jpeg,space,1.22515,[0.22265625],[-0.30078125],[1],[0],[0],[0.9707699999562465],"[""trial_slight_right_box""]",0,26,26,79,1,pasture.jpg,playground9.jpg,pier2.jpg,observatory2.jpg,,
Image_List_2,,,,,,,,,,,,,,,,44429,2020-11-19_16h34.00.322,lingCatScenes,2020.1.3,Win32,60,"[1366,768]",,,"[""trial_ahead_box"",""trial_slight_left_box""]",,,,,,,,,,,,dock3.jpg,space,2.2552,"[-0.016927083333333332,-0.17838541666666666]","[-0.3138020833333333,-0.3046875]","[1,1]","[0,0]","[0,0]","[1.1539900000207126,2.0031000000308268]","[""trial_ahead_box"",""trial_slight_left_box""]",0,27,27,35,1,deck5.jpg,cubicle7.jpg,dining_car6.jpg,carmechanic2.jpg,,
Image_List_2,,,,,,,,,,,,,,,,44429,2020-11-19_16h34.00.322,lingCatScenes,2020.1.3,Win32,60,"[1366,768]",,,"[""trial_slight_right_box""]",,,,,,,,,,,,church8.jpg,space,2.187475,"[0.2421875,0.18489583333333334]","[-0.26171875,-0.2942708333333333]","[1,1]","[0,0]","[0,0]","[1.3374949999852106,1.6755249999696389]","[""trial_slight_right_box""]",0,28,28,23,1,bus_shelter.jpg,carmechanic4.jpeg,cemetery3.jpg,bleachers6.jpg,,
Image_List_2,,,,,,,,,,,,,,,,44429,2020-11-19_16h34.00.322,lingCatScenes,2020.1.3,Win32,60,"[1366,768]",,,"[""trial_ahead_box"",""trial_slight_left_box""]",,,,,,,,,,,,warehouseoutside1.jpg,space,2.45464,"[0.006510416666666667,-0.17447916666666666,-0.1796875]","[-0.2981770833333333,-0.29296875,-0.29296875]","[1,1,1]","[0,0,0]","[0,0,0]","[0.9835549999843352,1.7486199999693781,2.1987049999879673]","[""trial_ahead_box"",""trial_slight_left_box""]",0,29,29,96,1,warehouse4.jpg,tenniscourt3.jpg,windmill1.jpg,warehouse1.jpg,,
Image_List_2,,,,,,,,,,,,,,,,44429,2020-11-19_16h34.00.322,lingCatScenes,2020.1.3,Win32,60,"[1366,768]",,,"[""trial_slight_left_box"",""trial_ahead_box""]",,,,,,,,,,,,desertvegetation6.jpg,space,1.47032,"[-0.20182291666666666,-0.013020833333333334]","[-0.2890625,-0.30859375]","[1,1]","[0,0]","[0,0]","[0.8219900000258349,1.1529750000336207]","[""trial_slight_left_box"",""trial_ahead_box""]",0,30,30,31,1,cubicle4.jpg,conference4.jpg,courtroom2.jpg,cabin3.jpg,,
Image_List_2,,,,,,,,,,,,,,,,44429,2020-11-19_16h34.00.322,lingCatScenes,2020.1.3,Win32,60,"[1366,768]",,,"[""trial_slight_right_box"",""trial_ahead_box"",""trial_right_box""]",,,,,,,,,,,,minigolf.jpg,space,1.84572,"[0.20833333333333334,-0.006510416666666667,0.3958333333333333]","[-0.30859375,-0.3203125,-0.3111979166666667]","[1,1,1]","[0,0,0]","[0,0,0]","[0.4759999999660067,0.7922099999850616,1.5904049999662675]","[""trial_slight_right_box"",""trial_ahead_box"",""trial_right_box""]",0,31,31,62,1,hotellobby2.jpg,horsebarn8.jpg,lab3.jpg,hayfield7.jpg,,
Image_List_2,,,,,,,,,,,,,,,,44429,2020-11-19_16h34.00.322,lingCatScenes,2020.1.3,Win32,60,"[1366,768]",,,"[""trial_ahead_box""]",,,,,,,,,,,,metroInside4.jpg,space,1.708685,"[-0.24869791666666666,-0.0078125]","[-0.30078125,-0.3216145833333333]","[1,1]","[0,0]","[0,0]","[0.586669999989681,1.1188700000056997]","[""trial_ahead_box""]",0,32,32,61,1,HorseRaceTrack.jpg,homegarden6.jpg,kindergarten_classroom7.jpg,hayfield6.jpg,,
Image_List_2,,,,,,,,,,,,,,,,44429,2020-11-19_16h34.00.322,lingCatScenes,2020.1.3,Win32,60,"[1366,768]",,,[],,,,,,,,,,,,theater2.jpg,space,0.917475,"[-0.15885416666666666,-0.028645833333333332]","[-0.2864583333333333,-0.2903645833333333]","[1,1]","[0,0]","[0,0]","[0.47064499999396503,0.6530450000427663]",[],0,33,33,87,1,restaurantkitchen2.jpg,savanna.jpg,sculpturegarden2.jpg,RVinside2.jpg,,
Image_List_2,,,,,,,,,,,,,,,,44429,2020-11-19_16h34.00.322,lingCatScenes,2020.1.3,Win32,60,"[1366,768]",,,"[""trial_ahead_box""]",,,,,,,,,,,,pavilion5.jpg,space,0.9612,[0],[-0.3046875],[1],[0],[0],[0.5192350000143051],"[""trial_ahead_box""]",0,34,34,71,1,metroInside2.jpg,metroInside3.jpg,museum3.jpg,jewelrystore.jpg,,
Image_List_2,,,,,,,,,,,,,,,,44429,2020-11-19_16h34.00.322,lingCatScenes,2020.1.3,Win32,60,"[1366,768]",,,"[""trial_left_box"",""trial_slight_left_box"",""trial_slight_right_box""]",,,,,,,,,,,,yogastudio4.jpg,space,2.292485,"[-0.16666666666666666,-0.4075520833333333,-0.19140625,0.1953125]","[-0.3125,-0.3033854166666667,-0.2981770833333333,-0.3177083333333333]","[1,1,1,1]","[0,0,0,0]","[0,0,0,0]","[0.7245199999888428,1.0238099999842234,1.4398700000019744,1.819614999985788]","[""trial_left_box"",""trial_slight_left_box"",""trial_slight_right_box""]",0,35,35,99,1,wineVineyard9.jpg,windmill2.jpg,wrestlingring7.jpg,yogastudio1.jpg,,
Image_List_2,,,,,,,,,,,,,,,,44429,2020-11-19_16h34.00.322,lingCatScenes,2020.1.3,Win32,60,"[1366,768]",,,"[""trial_ahead_box"",""trial_slight_left_box""]",,,,,,,,,,,,frontFoyer4.jpg,space,0.97298,"[-0.0026041666666666665,-0.2109375]","[-0.3151041666666667,-0.3111979166666667]","[1,1]","[0,0]","[0,0]","[0.453719999990426,0.7894949999754317]","[""trial_ahead_box"",""trial_slight_left_box""]",0,36,36,44,1,firestation2.jpg,elevatorOutside1.jpg,foodcourt6.jpg,dock2.jpg,,
Image_List_2,,,,,,,,,,,,,,,,44429,2020-11-19_16h34.00.322,lingCatScenes,2020.1.3,Win32,60,"[1366,768]",,,"[""trial_slight_right_box"",""trial_left_box"",""trial_slight_left_box""]",,,,,,,,,,,,office3.jpg,space,1.719945,"[0.20833333333333334,-0.18098958333333334,-0.4166666666666667,-0.19401041666666666]","[-0.3072916666666667,-0.3255208333333333,-0.3072916666666667,-0.3059895833333333]","[1,1,1,1]","[0,0,0,0]","[0,0,0,0]","[0.32961499999510124,0.8124149999930523,1.0952950000064448,1.5611100000096485]","[""trial_slight_right_box"",""trial_left_box"",""trial_slight_left_box""]",0,37,37,66,1,library_aisle10.jpg,laundromat3.jpg,liquorstore.jpg,horsebarn9.jpg,,
Image_List_2,,,,,,,,,,,,,,,,44429,2020-11-19_16h34.00.322,lingCatScenes,2020.1.3,Win32,60,"[1366,768]",,,"[""trial_ahead_box"",""trial_slight_left_box"",""trial_slight_right_box""]",,,,,,,,,,,,casino3.jpg,space,1.28424,"[-0.0078125,-0.21744791666666666,0.1953125]","[-0.3046875,-0.2942708333333333,-0.3203125]","[1,1,1]","[0,0,0]","[0,0,0]","[0.39829000004101545,0.7144550000084564,1.1139149999944493]","[""trial_ahead_box"",""trial_slight_left_box"",""trial_slight_right_box""]",0,38,38,19,1,boardwalk2.jpg,cafeteria1.jpg,castle4.jpg,basketballcourt.jpg,,
Image_List_2,,,,,,,,,,,,,,,,44429,2020-11-19_16h34.00.322,lingCatScenes,2020.1.3,Win32,60,"[1366,768]",,,"[""trial_right_box"",""trial_left_box""]",,,,,,,,,,,,jail1.jpg,space,2.081675,"[0.3984375,-0.2994791666666667,-0.3958333333333333,0.041666666666666664,0.01953125]","[-0.2786458333333333,-0.2955729166666667,-0.3098958333333333,-0.3463541666666667,-0.33203125]","[1,1,1,1,1]","[0,0,0,0,0]","[0,0,0,0,0]","[0.2774599999538623,0.8264299999573268,1.0762249999679625,1.525229999970179,1.8415149999782443]","[""trial_right_box"",""trial_left_box""]",0,39,39,57,1,hayfield5.jpg,hallway4.jpg,hut5.jpg,gazebo.jpg,,
Image_List_2,,,,,,,,,,,,,,,,44429,2020-11-19_16h34.00.322,lingCatScenes,2020.1.3,Win32,60,"[1366,768]",,,"[""trial_ahead_box"",""trial_slight_right_box"",""trial_left_box""]",,,,,,,,,,,,breakroom5.jpg,space,1.480215,"[-0.018229166666666668,0.19010416666666666,-0.3984375]","[-0.3072916666666667,-0.3111979166666667,-0.30859375]","[1,1,1]","[0,0,0]","[0,0,0]","[0.652509999985341,0.985854999977164,1.3180649999994785]","[""trial_ahead_box"",""trial_slight_right_box"",""trial_left_box""]",0,40,40,14,1,ballroom1.jpg,bistrooutdoor5.jpg,botanicalGarden5.jpg,ballroom3.jpg,,
Image_List_2,,,,,,,,,,,,,,,,44429,2020-11-19_16h34.00.322,lingCatScenes,2020.1.3,Win32,60,"[1366,768]",,,"[""trial_right_box"",""trial_left_box""]",,,,,,,,,,,,basketballcourt4.jpg,space,1.126905,"[0.3854166666666667,-0.390625]","[-0.2903645833333333,-0.3151041666666667]","[1,1]","[0,0]","[0,0]","[0.3381999999983236,0.8204949999926612]","[""trial_right_box"",""trial_left_box""]",0,41,41,11,1,backyard2.jpg,bambooforest3.jpg,baywindow5.jpg,backyard1.jpg,,
Image_List_2,,,,,,,,,,,,,,,,44429,2020-11-19_16h34.00.322,lingCatScenes,2020.1.3,Win32,60,"[1366,768]",,,"[""trial_slight_left_box"",""trial_right_box"",""trial_ahead_box""]",,,,,,,,,,,,trainStation1.jpg,space,3.15462,"[0.5572916666666666,-0.0390625,-0.21744791666666666,-0.4830729166666667,-0.6158854166666666,0.4583333333333333,0.4075520833333333,0.013020833333333334]","[-0.2955729166666667,-0.2994791666666667,-0.3059895833333333,-0.2916666666666667,-0.328125,-0.2994791666666667,-0.3059895833333333,-0.32421875]","[1,1,1,1,1,1,1,1]","[0,0,0,0,0,0,0,0]","[0,0,0,0,0,0,0,0]","[0.22367500001564622,0.7058149999938905,1.0242399999988265,1.3409349999856204,1.6576099999947473,2.169464999984484,2.4562949999817647,2.935140000015963]","[""trial_slight_left_box"",""trial_right_box"",""trial_ahead_box""]",0,42,42,90,1,savanna5.jpg,sidewalk1.jpg,stripmall3.jpg,shoestore4.jpg,,
Image_List_2,,,,,,,,,,,,,,,,44429,2020-11-19_16h34.00.322,lingCatScenes,2020.1.3,Win32,60,"[1366,768]",,,"[""trial_slight_left_box"",""trial_ahead_box""]",,,,,,,,,,,,lab1.jpg,space,2.247155,"[0.018229166666666668,-0.21614583333333334,0.06901041666666667,0.0234375]","[-0.3268229166666667,-0.3151041666666667,-0.3255208333333333,-0.296875]","[1,1,1,1]","[0,0,0,0]","[0,0,0,0]","[0.5615700000198558,0.894559999986086,1.3104849999654107,1.8100400000112131]","[""trial_slight_left_box"",""trial_ahead_box""]",0,43,43,58,1,highway7.jpg,hedgemaze1.jpg,igloo4.jpg,grocerystore2.jpg,,
Image_List_2,,,,,,,,,,,,,,,,44429,2020-11-19_16h34.00.322,lingCatScenes,2020.1.3,Win32,60,"[1366,768]",,,"[""trial_slight_left_box"",""trial_left_box""]",,,,,,,,,,,,courtroom3.jpg,space,2.56855,"[-0.44921875,-0.19140625,-0.4127604166666667,0.029947916666666668]","[-0.3268229166666667,-0.30859375,-0.3229166666666667,-0.3151041666666667]","[1,1,1,1]","[0,0,0,0]","[0,0,0,0]","[1.2658249999512918,1.6816799999796785,1.9642449999810196,2.3473599999560975]","[""trial_slight_left_box"",""trial_left_box""]",0,44,44,27,1,castle3.jpg,churchInside4.jpg,closet.jpg,brewery2.jpg,,
Image_List_2,,,,,,,,,,,,,,,,44429,2020-11-19_16h34.00.322,lingCatScenes,2020.1.3,Win32,60,"[1366,768]",,,"[""trial_slight_right_box"",""trial_ahead_box"",""trial_slight_left_box""]",,,,,,,,,,,,parkinglot.jpg,space,2.206455,"[0.22135416666666666,-0.01953125,-0.16666666666666666,-0.18489583333333334]","[-0.2903645833333333,-0.3138020833333333,-0.3307291666666667,-0.3111979166666667]","[1,1,1,1]","[0,0,0,0]","[0,0,0,0]","[0.45757999998750165,0.903519999992568,1.519994999980554,1.918459999957122]","[""trial_slight_right_box"",""trial_ahead_box"",""trial_slight_left_box""]",0,45,45,68,1,liquorstore7.jpg,lightingstore4.jpg,lockerroom2.jpg,hospitalroom3.jpg,,
Image_List_2,,,,,,,,,,,,,,,,44429,2020-11-19_16h34.00.322,lingCatScenes,2020.1.3,Win32,60,"[1366,768]",,,"[""trial_ahead_box""]",,,,,,,,,,,,wineVineyard8.jpg,space,1.32545,[0.0078125],[-0.3059895833333333],[1],[0],[0],[1.032550000003539],"[""trial_ahead_box""]",0,46,46,98,1,weightroom5.jpg,warehouse3.jpg,winebarrel4.jpg,winebarrel2.jpg,,
Image_List_2,,,,,,,,,,,,,,,,44429,2020-11-19_16h34.00.322,lingCatScenes,2020.1.3,Win32,60,"[1366,768]",,,"[""trial_slight_left_box""]",,,,,,,,,,,,grocerystore6.jpg,space,1.091885,[-0.21744791666666666],[-0.3033854166666667],[1],[0],[0],[0.8768649999983609],"[""trial_slight_left_box""]",0,47,47,50,1,frontLawn4.jpg,forestpath6.jpg,hallway2.jpg,fireplace4.jpg,,
Image_List_2,,,,,,,,,,,,,,,,44429,2020-11-19_16h34.00.322,lingCatScenes,2020.1.3,Win32,60,"[1366,768]",,,"[""trial_slight_left_box""]",,,,,,,,,,,,casino1.jpg,space,1.08175,[-0.18229166666666666],[-0.3216145833333333],[1],[0],[0],[0.8934599999920465],"[""trial_slight_left_box""]",0,48,48,18,1,bleachers5.jpg,brewery4.jpg,castle2.jpg,basement6.jpg,,
Image_List_2,,,,,,,,,,,,,,,,44429,2020-11-19_16h34.00.322,lingCatScenes,2020.1.3,Win32,60,"[1366,768]",,,"[""trial_ahead_box""]",,,,,,,,,,,,newsstand7.jpg,space,1.34206,"[0,-0.005208333333333333]","[-0.34765625,-0.3111979166666667]","[1,1]","[0,0]","[0,0]","[0.7937500000116415,1.1596450000070035]","[""trial_ahead_box""]",0,49,49,65,1,igloo5.jpg,laundromat2.jpeg,labClass7.jpg,homeoffice8.jpg,,
Image_List_2,,,,,,,,,,,,,,,,44429,2020-11-19_16h34.00.322,lingCatScenes,2020.1.3,Win32,60,"[1366,768]",,,"[""trial_slight_right_box"",""trial_left_box"",""trial_slight_left_box""]",,,,,,,,,,,,eyeglassstore9.jpg,space,2.549525,"[0.19791666666666666,-0.21614583333333334,-0.3763020833333333,-0.18880208333333334,-0.17838541666666666]","[-0.32421875,-0.33203125,-0.31640625,-0.3424479166666667,-0.3138020833333333]","[1,1,1,1,1]","[0,0,0,0,0]","[0,0,0,0,0]","[0.48734999995213,1.0696599999791943,1.602039999968838,1.8849300000001676,2.3175849999533966]","[""trial_slight_right_box"",""trial_left_box"",""trial_slight_left_box""]",0,50,50,39,1,driveway6.jpg,drycleaners6.jpg,drymountains5.jpg,cliff5.jpg,,
Image_List_2,,,,,,,,,,,,,,,,44429,2020-11-19_16h34.00.322,lingCatScenes,2020.1.3,Win32,60,"[1366,768]",,,"[""trial_slight_right_box"",""trial_slight_left_box""]",,,,,,,,,,,,golfcourse6.jpg,space,2.14029,"[0.22265625,0.10546875,0.17708333333333334,-0.1484375,-0.19010416666666666]","[-0.3294270833333333,-0.3059895833333333,-0.3177083333333333,-0.3098958333333333,-0.3203125]","[1,1,1,1,1]","[0,0,0,0,0]","[0,0,0,0,0]","[0.5374350000056438,0.9033249999629334,1.103324999974575,1.6026699999929406,1.901639999996405]","[""trial_slight_right_box"",""trial_slight_left_box""]",0,51,51,48,1,frontDoor2.jpg,fittingroom5.jpg,golfcourse7.jpg,fabricstore2.jpg,,
Image_List_2,,,,,,,,,,,,,,,,44429,2020-11-19_16h34.00.322,lingCatScenes,2020.1.3,Win32,60,"[1366,768]",,,"[""trial_left_box"",""trial_slight_left_box""]",,,,,,,,,,,,attic1.jpg,space,2.17123,"[-0.33984375,-0.3776041666666667,-0.20182291666666666,-0.19401041666666666]","[-0.2955729166666667,-0.296875,-0.24348958333333334,-0.3059895833333333]","[1,1,1,1]","[0,0,0,0]","[0,0,0,0]","[0.5736899999901652,1.0034100000048056,1.2859400000306778,1.5562100000097416]","[""trial_left_box"",""trial_slight_left_box""]",0,52,52,3,1,apartmentBuilding2.jpg,aquarium1.jpg,appleorchard2.jpg,alley3.jpg,,
Image_List_2,,,,,,,,,,,,,,,,44429,2020-11-19_16h34.00.322,lingCatScenes,2020.1.3,Win32,60,"[1366,768]",,,"[""trial_left_box"",""trial_slight_left_box""]",,,,,,,,,,,,wineVineyard2.jpg,space,2.06796,"[-0.17317708333333334,-0.3658854166666667,-0.3815104166666667,-0.19270833333333334]","[-0.3255208333333333,-0.2916666666666667,-0.29296875,-0.3138020833333333]","[1,1,1,1]","[0,0,0,0]","[0,0,0,0]","[0.4796300000161864,0.8454950000159442,1.3448300000163727,1.7610250000143424]","[""trial_left_box"",""trial_slight_left_box""]",0,53,53,97,1,warehouseoutside4.jpg,waitingroom4.jpg,winebarrel3.jpg,warehouseoutside3.jpg,,
Image_List_2,,,,,,,,,,,,,,,,44429,2020-11-19_16h34.00.322,lingCatScenes,2020.1.3,Win32,60,"[1366,768]",,,"[""trial_right_box"",""trial_slight_right_box""]",,,,,,,,,,,,hotelRoom3.jpg,space,2.39291,"[-0.3645833333333333,0.20703125,0.38671875,0.21875]","[-0.3072916666666667,-0.3307291666666667,-0.3125,-0.3020833333333333]","[1,1,1,1]","[0,0,0,0]","[0,0,0,0]","[0.5365149999852292,1.3038599999854341,1.7023049999843352,2.134135000000242]","[""trial_right_box"",""trial_slight_right_box""]",0,54,54,55,1,greenmountains.jpg,gazebo5.jpg,hotelRoom7.jpg,frontLawn2.jpg,,
Image_List_2,,,,,,,,,,,,,,,,44429,2020-11-19_16h34.00.322,lingCatScenes,2020.1.3,Win32,60,"[1366,768]",,,"[""trial_ahead_box""]",,,,,,,,,,,,arcade1.jpg,space,1.45346,"[0,-0.22005208333333334]","[-0.2877604166666667,-0.3255208333333333]","[1,1]","[0,0]","[0,0]","[0.6212950000190176,1.1706300000078045]","[""trial_ahead_box""]",0,55,55,2,1,alley1.jpg,applestore6.jpg,apartmentBuilding4.jpg,airportTerminal6.jpg,,
Image_List_2,,,,,,,,,,,,,,,,44429,2020-11-19_16h34.00.322,lingCatScenes,2020.1.3,Win32,60,"[1366,768]",,,"[""trial_slight_left_box"",""trial_ahead_box"",""trial_slight_right_box""]",,,,,,,,,,,,parkinglot2.jpg,space,1.691405,"[-0.19010416666666666,0.010416666666666666,0.20572916666666666]","[-0.29296875,-0.3203125,-0.31640625]","[1,1,1]","[0,0,0]","[0,0,0]","[0.6094049999956042,1.041815000004135,1.4247550000436604]","[""trial_slight_left_box"",""trial_ahead_box"",""trial_slight_right_box""]",0,56,56,69,1,liquorstore8.jpg,livingroom.jpg,metroInside1.jpg,icecream2.jpg,,
Image_List_2,,,,,,,,,,,,,,,,44429,2020-11-19_16h34.00.322,lingCatScenes,2020.1.3,Win32,60,"[1366,768]",,,"[""trial_right_box"",""trial_left_box""]",,,,,,,,,,,,banquetHall2.jpg,space,4.082945,"[0.22526041666666666,0.2109375,-0.3828125,0.3971354166666667,-0.37109375,-0.3893229166666667]","[-0.3125,-0.3255208333333333,-0.328125,-0.3229166666666667,-0.3059895833333333,-0.3203125]","[1,1,1,1,1,1]","[0,0,0,0,0,0]","[0,0,0,0,0,0]","[0.4621000000042841,1.0612850000034086,1.7597850000020117,2.4752950000111014,3.2410149999777786,3.8065349999815226]","[""trial_right_box"",""trial_left_box""]",0,57,57,6,1,ATM1.jpg,auto_showroom5.jpg,baggageClaim1.jpg,apartmentBuilding3.jpg,,
Image_List_2,,,,,,,,,,,,,,,,44429,2020-11-19_16h34.00.322,lingCatScenes,2020.1.3,Win32,60,"[1366,768]",,,"[""trial_slight_right_box"",""trial_left_box""]",,,,,,,,,,,,playroom4.jpg,space,3.002455,"[0.21744791666666666,-0.37109375,-0.3958333333333333,0.013020833333333334]","[-0.3059895833333333,-0.3307291666666667,-0.3177083333333333,-0.3294270833333333]","[1,1,1,1]","[0,0,0,0]","[0,0,0,0]","[1.2858300000079907,1.9179299999959767,2.3871999999973923,2.7663700000266545]","[""trial_slight_right_box"",""trial_left_box""]",0,58,58,76,1,parkinggarage.jpg,parkinggarage3.jpg,park2.jpg,lookout4.jpg,,
Image_List_2,,,,,,,,,,,,,,,,44429,2020-11-19_16h34.00.322,lingCatScenes,2020.1.3,Win32,60,"[1366,768]",,,"[""trial_ahead_box""]",,,,,,,,,,,,desertvegetation3.jpg,space,0.88792,[0.0013020833333333333],[-0.30078125],[1],[0],[0],[0.6092949999729171],"[""trial_ahead_box""]",0,59,59,30,1,courthouse1.jpg,clothingstore2.jpg,copyroom2.jpg,bus_shelter3.jpg,,
Image_List_2,,,,,,,,,,,,,,,,44429,2020-11-19_16h34.00.322,lingCatScenes,2020.1.3,Win32,60,"[1366,768]",,,"[""trial_ahead_box""]",,,,,,,,,,,,library_aisle8.jpg,space,1.355375,"[-0.045572916666666664,0.006510416666666667]","[-0.3294270833333333,-0.3125]","[1,1]","[0,0]","[0,0]","[0.8223149999976158,1.0711599999922328]","[""trial_ahead_box""]",0,60,60,59,1,homegarden7.jpg,highway4.jpg,kindergarten_classroom5.jpg,grocerystore3.jpg,,
Image_List_2,,,,,,,,,,,,,,,,44429,2020-11-19_16h34.00.322,lingCatScenes,2020.1.3,Win32,60,"[1366,768]",,,"[""trial_ahead_box"",""trial_slight_left_box"",""trial_slight_right_box""]",,,,,,,,,,,,banquetHall6.jpg,space,3.005605,"[0.005208333333333333,-0.18229166666666666,0.19140625,0.23177083333333334,0.21484375]","[-0.30859375,-0.3190104166666667,-0.3268229166666667,-0.30859375,-0.3033854166666667]","[1,1,1,1,1]","[0,0,0,0,0]","[0,0,0,0,0]","[0.5008900000248104,1.066579999984242,1.6991600000183098,2.164939999987837,2.630940000002738]","[""trial_ahead_box"",""trial_slight_left_box"",""trial_slight_right_box""]",0,61,61,8,1,attic3.jpg,balconyIN.jpg,bar.jpg,applestore4.jpg,,
Image_List_2,,,,,,,,,,,,,,,,44429,2020-11-19_16h34.00.322,lingCatScenes,2020.1.3,Win32,60,"[1366,768]",,,"[""trial_left_box"",""trial_right_box""]",,,,,,,,,,,,bowlingalley3.jpg,space,2.76089,"[0.028645833333333332,-0.4036458333333333,0.4140625]","[-0.3111979166666667,-0.3151041666666667,-0.3125]","[1,1,1]","[0,0,0]","[0,0,0]","[0.7048800000338815,1.4869349999935366,2.402025000017602]","[""trial_left_box"",""trial_right_box""]",0,62,62,13,1,balconyIN2.jpg,beach2.jpg,boardwalk4.jpg,backyard6.jpg,,
Image_List_2,,,,,,,,,,,,,,,,44429,2020-11-19_16h34.00.322,lingCatScenes,2020.1.3,Win32,60,"[1366,768]",,,"[""trial_ahead_box"",""trial_slight_left_box"",""trial_slight_right_box""]",,,,,,,,,,,,track.jpg,space,2.74482,"[0.3736979166666667,0.016927083333333332,-0.20442708333333334,0.2265625,0.21744791666666666]","[-0.3216145833333333,-0.296875,-0.3098958333333333,-0.3177083333333333,-0.30078125]","[1,1,1,1,1]","[0,0,0,0,0]","[0,0,0,0,0]","[0.5673049999750219,1.066599999961909,1.5488550000009127,1.998154999979306,2.39775499998359]","[""trial_ahead_box"",""trial_slight_left_box"",""trial_slight_right_box""]",0,63,63,88,1,rooftop1.jpg,sculpturegarden4.jpg,soccerfield.jpg,sandbox.jpg,,
Image_List_2,,,,,,,,,,,,,,,,44429,2020-11-19_16h34.00.322,lingCatScenes,2020.1.3,Win32,60,"[1366,768]",,,"[""trial_ahead_box"",""trial_slight_right_box""]",,,,,,,,,,,,cliff3.jpg,space,1.688975,"[0.005208333333333333,-0.21744791666666666,0.1796875]","[-0.30859375,-0.34765625,-0.2942708333333333]","[1,1,1]","[0,0,0]","[0,0,0]","[0.5919899999862537,0.8913750000065193,1.1907600000267848]","[""trial_ahead_box"",""trial_slight_right_box""]",0,64,64,24,1,campsite.jpg,cave6.jpg,cemetery5.jpg,boardwalk.jpg,,
Image_List_2,,,,,,,,,,,,,,,,44429,2020-11-19_16h34.00.322,lingCatScenes,2020.1.3,Win32,60,"[1366,768]",,,"[""trial_ahead_box"",""trial_slight_right_box"",""trial_slight_left_box""]",,,,,,,,,,,,playground10.jpg,space,2.420785,"[-0.16927083333333334,-0.00390625,-0.18229166666666666,0.20052083333333334,-0.21484375,-0.18880208333333334]","[-0.3098958333333333,-0.3098958333333333,-0.3255208333333333,-0.3072916666666667,-0.3294270833333333,-0.3059895833333333]","[1,1,1,1,1,1]","[0,0,0,0,0,0]","[0,0,0,0,0,0]","[0.40838500001700595,0.7077900000149384,1.073485000000801,1.4537300000083633,1.8223749999888241,2.1857900000177324]","[""trial_ahead_box"",""trial_slight_right_box"",""trial_slight_left_box""]",0,65,65,74,1,newsstand2.jpg,observatory4.jpeg,operatingroom1.jpg,lightingstore2.jpg,,
Image_List_2,,,,,,,,,,,,,,,,44429,2020-11-19_16h34.00.322,lingCatScenes,2020.1.3,Win32,60,"[1366,768]",,,"[""trial_ahead_box""]",,,,,,,,,,,,hut3.jpg,space,1.22533,"[0.015625,0.018229166666666668]","[-0.3255208333333333,-0.3151041666666667]","[1,1]","[0,0]","[0,0]","[0.29734500002814457,0.9295949999941513]","[""trial_ahead_box""]",0,66,66,56,1,grocerystore5.jpg,golfcourse10.jpg,hut1.jpg,gasstation2.jpg,,
Image_List_2,,,,,,,,,,,,,,,,44429,2020-11-19_16h34.00.322,lingCatScenes,2020.1.3,Win32,60,"[1366,768]",,,"[""trial_ahead_box"",""trial_slight_left_box"",""trial_slight_right_box""]",,,,,,,,,,,,newsstand5.jpg,space,1.43709,"[0.009114583333333334,-0.18229166666666666,0.18229166666666666]","[-0.28515625,-0.3020833333333333,-0.3033854166666667]","[1,1,1]","[0,0,0]","[0,0,0]","[0.37634499999694526,0.8256800000090152,1.2083349999738857]","[""trial_ahead_box"",""trial_slight_left_box"",""trial_slight_right_box""]",0,67,67,64,1,igloo2.jpg,jewelrystore8.jpg,lab5.jpg,homegarage2.jpg,,
Image_List_2,,,,,,,,,,,,,,,,44429,2020-11-19_16h34.00.322,lingCatScenes,2020.1.3,Win32,60,"[1366,768]",,,"[""trial_slight_left_box"",""trial_slight_right_box"",""trial_ahead_box""]",,,,,,,,,,,,dormroom9.jpg,space,3.00651,"[-0.3645833333333333,-0.13541666666666666,-0.18359375,-0.032552083333333336,0.20052083333333334,-0.0078125]","[-0.28125,-0.2890625,-0.3059895833333333,-0.2903645833333333,-0.3033854166666667,-0.2981770833333333]","[1,1,1,1,1,1]","[0,0,0,0,0,0]","[0,0,0,0,0,0]","[0.6718600000021979,1.0880250000045635,1.404934999998659,1.7732550000073388,2.2060350000392646,2.6887600000482053]","[""trial_slight_left_box"",""trial_slight_right_box"",""trial_ahead_box""]",0,68,68,36,1,diner14.jpg,dining_car3.jpg,doctor1.jpg,checkoutcounter9.jpg,,
Image_List_2,,,,,,,,,,,,,,,,44429,2020-11-19_16h34.00.322,lingCatScenes,2020.1.3,Win32,60,"[1366,768]",,,"[""trial_left_box"",""trial_slight_right_box""]",,,,,,,,,,,,firestation3.jpg,space,1.807495,"[-0.3841145833333333,0.203125]","[-0.2786458333333333,-0.30859375]","[1,1]","[0,0]","[0,0]","[0.9672100000316277,1.5997400000342168]","[""trial_left_box"",""trial_slight_right_box""]",0,69,69,42,1,exerciseequipment3.jpg,drymountains6.jpg,farm4.jpg,desertvegetation2.jpg,,
Image_List_2,,,,,,,,,,,,,,,,44429,2020-11-19_16h34.00.322,lingCatScenes,2020.1.3,Win32,60,"[1366,768]",,,"[""trial_ahead_box""]",,,,,,,,,,,,horsebarn11.jpg,space,0.767595,[0],[-0.3033854166666667],[1],[0],[0],[0.5087499999790452],"[""trial_ahead_box""]",0,70,70,54,1,greenhouse2.jpg,gazebo2.jpg,homegarage4.jpg,frontFoyer.jpg,,
Image_List_2,,,,,,,,,,,,,,,,44429,2020-11-19_16h34.00.322,lingCatScenes,2020.1.3,Win32,60,"[1366,768]",,,"[""trial_slight_left_box""]",,,,,,,,,,,,forestpath10.jpg,space,0.60534,[-0.20572916666666666],[-0.3059895833333333],[1],[0],[0],[0.3368999999947846],"[""trial_slight_left_box""]",0,71,71,43,1,exerciseequipment5.jpg,dugout2.jpg,foodcourt.jpg,diningroom3.jpg,,
Image_List_2,,,,,,,,,,,,,,,,44429,2020-11-19_16h34.00.322,lingCatScenes,2020.1.3,Win32,60,"[1366,768]",,,"[""trial_left_box""]",,,,,,,,,,,,ruralroad5.jpg,space,0.65812,[-0.4036458333333333],[-0.3020833333333333],[1],[0],[0],[0.48941000003833324],"[""trial_left_box""]",0,72,72,81,1,promenadeDeck.jpg,promenadeDeck2.jpg,rainforest5.jpg,pasture8.jpg,,
Image_List_2,,,,,,,,,,,,,,,,44429,2020-11-19_16h34.00.322,lingCatScenes,2020.1.3,Win32,60,"[1366,768]",,,"[""trial_slight_left_box""]",,,,,,,,,,,,hardwarestore1.jpg,space,0.54247,[-0.18359375],[-0.3098958333333333],[1],[0],[0],[0.33809500001370907],"[""trial_slight_left_box""]",0,73,73,52,1,gasstation7.jpg,frontFoyer6.jpg,highway.jpg,forestpath2.jpg,,
Image_List_2,,,,,,,,,,,,,,,,44429,2020-11-19_16h34.00.322,lingCatScenes,2020.1.3,Win32,60,"[1366,768]",,,"[""trial_ahead_box""]",,,,,,,,,,,,banquetHall4.jpg,space,0.44477,[0.0078125],[-0.3203125],[1],[0],[0],[0.25550999998813495],"[""trial_ahead_box""]",0,74,74,7,1,attic2.jpg,backstage1.jpg,baggageClaim3.jpg,applestore2.jpg,,
Image_List_2,,,,,,,,,,,,,,,,44429,2020-11-19_16h34.00.322,lingCatScenes,2020.1.3,Win32,60,"[1366,768]",,,"[""trial_slight_right_box""]",,,,,,,,,,,,diningroom1.jpg,space,0.438885,[0.19010416666666666],[-0.3125],[1],[0],[0],[0.2763450000202283],"[""trial_slight_right_box""]",0,75,75,33,1,deck1.jpg,courthouse2.jpg,diner10.jpg,cabinIndoors5.jpg,,
Image_List_2,,,,,,,,,,,,,,,,44429,2020-11-19_16h34.00.322,lingCatScenes,2020.1.3,Win32,60,"[1366,768]",,,"[""trial_slight_left_box""]",,,,,,,,,,,,farm1.jpg,space,0.458555,[-0.22395833333333334],[-0.3203125],[1],[0],[0],[0.3368350000237115],"[""trial_slight_left_box""]",0,76,76,40,1,drycleaners4.jpg,drymountains.jpg,dugout1.jpg,clothingstore3.jpg,,
Image_List_2,,,,,,,,,,,,,,,,44429,2020-11-19_16h34.00.322,lingCatScenes,2020.1.3,Win32,60,"[1366,768]",,,"[""trial_ahead_box""]",,,,,,,,,,,,elevatorOutside4.jpg,space,1.20446,"[0.02734375,-0.014322916666666666]","[-0.3203125,-0.2981770833333333]","[1,1]","[0,0]","[0,0]","[0.42454500001622364,1.0401249999995343]","[""trial_ahead_box""]",0,77,77,38,1,dining_car2.jpg,dock1.jpg,driveway8.jpg,classroom1.jpg,,
Image_List_2,,,,,,,,,,,,,,,,44429,2020-11-19_16h34.00.322,lingCatScenes,2020.1.3,Win32,60,"[1366,768]",,,"[""trial_slight_right_box"",""trial_ahead_box"",""trial_slight_left_box""]",,,,,,,,,,,,cemetery6.jpg,space,1.54074,"[0.19921875,0.014322916666666666,-0.19140625]","[-0.2981770833333333,-0.3046875,-0.3125]","[1,1,1]","[0,0,0]","[0,0,0]","[0.2053650000016205,0.5712949999724515,1.3533699999679811]","[""trial_slight_right_box"",""trial_ahead_box"",""trial_slight_left_box""]",0,78,78,21,1,botanicalGarden6.jpg,campusquad3.jpg,cave5.jpg,beach1.jpeg,,
Image_List_2,,,,,,,,,,,,,,,,44429,2020-11-19_16h34.00.322,lingCatScenes,2020.1.3,Win32,60,"[1366,768]",,,"[""trial_ahead_box""]",,,,,,,,,,,,driveway4.jpg,space,1.03774,"[-0.0013020833333333333,0.0026041666666666665]","[-0.3307291666666667,-0.3111979166666667]","[1,1]","[0,0]","[0,0]","[0.3374299999559298,0.8373199999914505]","[""trial_ahead_box""]",0,79,79,37,1,dining_car.jpg,dinosaur4.jpg,driveway7.jpg,citystreet9.jpg,,
Image_List_2,,,,,,,,,,,,,,,,44429,2020-11-19_16h34.00.322,lingCatScenes,2020.1.3,Win32,60,"[1366,768]",,,"[""trial_slight_left_box""]",,,,,,,,,,,,cafeteria5.jpg,space,0.743055,[-0.20052083333333334],[-0.3111979166666667],[1],[0],[0],[0.28022499999497086],"[""trial_slight_left_box""]",0,80,80,15,1,bambooforest4.jpg,bleachers8.jpg,cabinIndoors.jpg,bar8.jpg,,
Image_List_2,,,,,,,,,,,,,,,,44429,2020-11-19_16h34.00.322,lingCatScenes,2020.1.3,Win32,60,"[1366,768]",,,"[""trial_ahead_box""]",,,,,,,,,,,,farm3.jpg,space,0.476105,[0.01171875],[-0.3059895833333333],[1],[0],[0],[0.222635000012815],"[""trial_ahead_box""]",0,81,81,41,1,dugout4.jpg,drymountains3.jpg,fabricstore1.jpg,dentist2.jpg,,
Image_List_2,,,,,,,,,,,,,,,,44429,2020-11-19_16h34.00.322,lingCatScenes,2020.1.3,Win32,60,"[1366,768]",,,"[""trial_ahead_box""]",,,,,,,,,,,,hallway5.jpg,space,0.320925,[0.0078125],[-0.2981770833333333],[1],[0],[0],[0.22792999999364838],"[""trial_ahead_box""]",0,82,82,51,1,gasstation6.jpg,frontDoor5.jpg,hayfield4.jpg,firestation5.jpg,,
Image_List_2,,,,,,,,,,,,,,,,44429,2020-11-19_16h34.00.322,lingCatScenes,2020.1.3,Win32,60,"[1366,768]",,,"[""trial_ahead_box""]",,,,,,,,,,,,pavilion.jpg,space,0.352385,[0.009114583333333334],[-0.296875],[1],[0],[0],[0.3107149999705143],"[""trial_ahead_box""]",0,83,83,70,1,lockerroom4.jpg,lockerroom3.jpg,minigolf8.jpg,igloo.jpg,,
Image_List_2,,,,,,,,,,,,,,,,44429,2020-11-19_16h34.00.322,lingCatScenes,2020.1.3,Win32,60,"[1366,768]",,,[],,,,,,,,,,,,waitingroom3.jpg,space,0.36508,[0.0078125],[-0.29296875],[1],[0],[0],[0.3120049999561161],"[""trial_ahead_box""]",0,84,84,94,1,treehouse.jpg,staircase6.jpg,weightroom.jpg,trainStation3.jpg,,
Image_List_2,,,,,,,,,,,,,,,,44429,2020-11-19_16h34.00.322,lingCatScenes,2020.1.3,Win32,60,"[1366,768]",,,[],,,,,,,,,,,,cave.jpg,space,0.33132,[0.005208333333333333],[-0.28515625],[1],[0],[0],[0.27633999998215586],"[""trial_ahead_box""]",0,85,85,20,1,boardwalk6.jpg,campsite3.jpg,cave4.jpg,basketballcourt7.jpg,,
Image_List_2,,,,,,,,,,,,,,,,44429,2020-11-19_16h34.00.322,lingCatScenes,2020.1.3,Win32,60,"[1366,768]",,,"[""trial_ahead_box"",""trial_slight_left_box"",""trial_slight_right_box""]",,,,,,,,,,,,apartmentBuilding1.jpg,space,1.538985,"[-0.21484375,0.18880208333333334]","[-0.3033854166666667,-0.30078125]","[1,1]","[0,0]","[0,0]","[0.5062850000103936,1.3218399999896064]","[""trial_slight_left_box"",""trial_slight_right_box""]",0,86,86,1,1,airportTerminal4.jpg,applestore1.jpg,airportTerminal3.jpg,airportTerminal2.jpg,,
Image_List_2,,,,,,,,,,,,,,,,44429,2020-11-19_16h34.00.322,lingCatScenes,2020.1.3,Win32,60,"[1366,768]",,,"[""trial_ahead_box"",""trial_slight_left_box"",""trial_slight_right_box""]",,,,,,,,,,,,cornfield4.jpg,space,1.283265,"[-0.006510416666666667,-0.20703125,0.18619791666666666]","[-0.3203125,-0.3020833333333333,-0.3046875]","[1,1,1]","[0,0,0]","[0,0,0]","[0.3534549999749288,0.6860699999961071,1.0850999999674968]","[""trial_ahead_box"",""trial_slight_left_box"",""trial_slight_right_box""]",0,87,87,26,1,campusquad2.jpg,church4.jpg,churchInside3.jpg,botanicalGarden7.jpg,,
Image_List_2,,,,,,,,,,,,,,,,44429,2020-11-19_16h34.00.322,lingCatScenes,2020.1.3,Win32,60,"[1366,768]",,,"[""trial_ahead_box"",""trial_slight_left_box"",""trial_left_box""]",,,,,,,,,,,,frontFoyer7.jpg,space,4.7506,"[-0.0078125,-0.21614583333333334,-0.4283854166666667,-0.3619791666666667,-0.37890625,-0.40625,-0.390625]","[-0.3059895833333333,-0.3177083333333333,-0.2890625,-0.3372395833333333,-0.3268229166666667,-0.3268229166666667,-0.3216145833333333]","[1,1,1,1,1,1,1]","[0,0,0,0,0,0,0]","[0,0,0,0,0,0,0]","[0.3177799999830313,0.6837650000234134,1.2328449999913573,1.8651250000111759,2.2811400000355206,3.329314999980852,3.7953550000092946]","[""trial_ahead_box"",""trial_slight_left_box"",""trial_left_box""]",0,88,88,45,1,fittingroom2.jpg,factory1.jpg,forestpath4.jpg,dock4.jpg,,
Image_List_2,,,,,,,,,,,,,,,,44429,2020-11-19_16h34.00.322,lingCatScenes,2020.1.3,Win32,60,"[1366,768]",,,"[""trial_ahead_box"",""trial_slight_right_box""]",,,,,,,,,,,,lightingstore3.jpg,space,1.305895,"[-0.0078125,0.19921875]","[-0.3033854166666667,-0.3098958333333333]","[1,1]","[0,0]","[0,0]","[0.5251999999745749,0.854715000023134]","[""trial_ahead_box"",""trial_slight_right_box""]",0,89,89,60,1,hometheater2.jpg,homegarage.jpg,kindergarten_classroom6.jpg,hallway.jpg,,
Image_List_2,,,,,,,,,,,,,,,,44429,2020-11-19_16h34.00.322,lingCatScenes,2020.1.3,Win32,60,"[1366,768]",,,"[""trial_slight_left_box""]",,,,,,,,,,,,dancestudio5.jpg,space,0.92713,"[-0.20442708333333334,-0.3671875]","[-0.2994791666666667,-0.3033854166666667]","[1,1]","[0,0]","[0,0]","[0.48573000001488253,0.7689100000425242]","[""trial_slight_left_box""]",0,90,90,28,1,churchInside1.jpg,citystreet10.jpg,clothingstore5.jpg,bridalboutique2.jpg,,
Image_List_2,,,,,,,,,,,,,,,,44429,2020-11-19_16h34.00.322,lingCatScenes,2020.1.3,Win32,60,"[1366,768]",,,"[""trial_ahead_box""]",,,,,,,,,,,,park7.jpg,space,0.83191,"[-0.009114583333333334,-0.15104166666666666]","[-0.3111979166666667,-0.30078125]","[1,1]","[0,0]","[0,0]","[0.4080750000430271,0.7231500000343658]","[""trial_ahead_box""]",0,91,91,67,1,library_aisle3.jpg,laundromat4.jpg,liquorstore2.jpg,hospitalroom2.jpg,,
Image_List_2,,,,,,,,,,,,,,,,44429,2020-11-19_16h34.00.322,lingCatScenes,2020.1.3,Win32,60,"[1366,768]",,,"[""trial_left_box"",""trial_slight_left_box"",""trial_ahead_box""]",,,,,,,,,,,,photographer_studio2.jpg,space,1.279125,"[-0.4153645833333333,-0.18880208333333334,0.0078125]","[-0.3138020833333333,-0.3229166666666667,-0.2994791666666667]","[1,1,1]","[0,0,0]","[0,0,0]","[0.4224749999702908,0.7549899999867193,1.1041199999745004]","[""trial_left_box"",""trial_slight_left_box"",""trial_ahead_box""]",0,92,92,73,1,musicStore3.jpg,nursery.jpg,nursery4.jpg,library_aisle9.jpg,,
Image_List_2,,,,,,,,,,,,,,,,44429,2020-11-19_16h34.00.322,lingCatScenes,2020.1.3,Win32,60,"[1366,768]",,,"[""trial_slight_right_box""]",,,,,,,,,,,,gasstation8.jpg,space,0.8535,"[0.18880208333333334,0.03515625]","[-0.3033854166666667,-0.296875]","[1,1]","[0,0]","[0,0]","[0.44024999998509884,0.723375000001397]","[""trial_slight_right_box""]",0,93,93,47,1,frontDoor.jpg,firestation4.jpg,fountain7.jpg,elevatorOutside2.jpg,,
Image_List_2,,,,,,,,,,,,,,,,44429,2020-11-19_16h34.00.322,lingCatScenes,2020.1.3,Win32,60,"[1366,768]",,,"[""trial_slight_left_box"",""trial_ahead_box"",""trial_slight_right_box""]",,,,,,,,,,,,track5.jpg,space,1.557825,"[-0.14583333333333334,-0.19010416666666666,0.009114583333333334,0.17838541666666666]","[-0.27734375,-0.3033854166666667,-0.2864583333333333,-0.3046875]","[1,1,1,1]","[0,0,0,0]","[0,0,0,0]","[0.38306500000180677,0.7158449999988079,0.9818049999885261,1.3978749999660067]","[""trial_slight_left_box"",""trial_ahead_box"",""trial_slight_right_box""]",0,94,94,89,1,ruralroad7.jpg,ShowJumping7.jpg,staircase7.jpg,sculpturegarden3.jpg,,
Image_List_2,,,,,,,,,,,,,,,,44429,2020-11-19_16h34.00.322,lingCatScenes,2020.1.3,Win32,60,"[1366,768]",,,"[""trial_ahead_box"",""trial_slight_right_box""]",,,,,,,,,,,,museum6.jpg,space,1.45285,"[0.009114583333333334,0.21223958333333334,-0.14322916666666666]","[-0.3033854166666667,-0.3046875,-0.30078125]","[1,1,1]","[0,0,0]","[0,0,0]","[0.388840000028722,0.7574749999912456,1.2532150000333786]","[""trial_ahead_box"",""trial_slight_right_box""]",0,95,95,63,1,hut2.jpg,hotelRoom2.jpg,lab4.jpg,highway2.jpg,,
Image_List_2,,,,,,,,,,,,,,,,44429,2020-11-19_16h34.00.322,lingCatScenes,2020.1.3,Win32,60,"[1366,768]",,,"[""trial_ahead_box"",""trial_slight_left_box""]",,,,,,,,,,,,baggageClaim2.jpg,space,2.52037,"[0.005208333333333333,-0.171875,0.2513020833333333,0.171875,-0.23046875,-0.1875]","[-0.3098958333333333,-0.3190104166666667,-0.3346354166666667,-0.3151041666666667,-0.296875,-0.3059895833333333]","[1,1,1,1,1,1]","[0,0,0,0,0,0]","[0,0,0,0,0,0]","[0.48651499999687076,0.8525600000284612,1.2019749999744818,1.501639999973122,2.0340500000165775,2.300025000004098]","[""trial_ahead_box"",""trial_slight_left_box""]",0,96,96,4,1,artStudio1.jpg,auto_showroom1.jpg,appleorchard3.jpg,alley4.jpg,,
Image_List_2,,,,,,,,,,,,,,,,44429,2020-11-19_16h34.00.322,lingCatScenes,2020.1.3,Win32,60,"[1366,768]",,,"[""trial_slight_right_box"",""trial_ahead_box""]",,,,,,,,,,,,alley2.jpg,space,1.892375,"[0.17578125,0.026041666666666668,0.20442708333333334,0.0078125]","[-0.3255208333333333,-0.30859375,-0.3098958333333333,-0.2981770833333333]","[1,1,1,1]","[0,0,0,0]","[0,0,0,0]","[0.48842000000877306,0.8045949999941513,1.2042200000141747,1.5868849999969825]","[""trial_slight_right_box"",""trial_ahead_box""]",0,97,97,0,1,airplanecabin1.jpg,appleorchard4.jpg,airplanecabin5.jpg,airplanecabin3.jpg,,
Image_List_2,,,,,,,,,,,,,,,,44429,2020-11-19_16h34.00.322,lingCatScenes,2020.1.3,Win32,60,"[1366,768]",,,"[""trial_ahead_box"",""trial_slight_right_box""]",,,,,,,,,,,,playground6.jpg,space,1.68488,"[-0.028645833333333332,0.006510416666666667,0.203125]","[-0.27734375,-0.3020833333333333,-0.2864583333333333]","[1,1,1]","[0,0,0]","[0,0,0]","[0.6058249999769032,1.004929999995511,1.5210199999855831]","[""trial_ahead_box"",""trial_slight_right_box""]",0,98,98,75,1,pantry5.jpg,operatingroom4.jpg,park.jpg,lockerroom.jpg,,
Image_List_2,,,,,,,,,,,,,,,,44429,2020-11-19_16h34.00.322,lingCatScenes,2020.1.3,Win32,60,"[1366,768]",,,[],,,,,,,,,,,,warehouse2.jpg,space,0.805415,[0.016927083333333332],[-0.3333333333333333],[1],[0],[0],[0.5142000000341795],[],0,99,99,95,1,waitingroom2.jpg,stripmall6.jpg,weightroom4.jpg,tvstudio3.jpg,,
Image_List_2,,,,,,,,,,,,,,,,44429,2020-11-19_16h34.00.322,lingCatScenes,2020.1.3,Win32,60,,,,,,,,,,,,,,,,,,,,,,,,,,,,,,,,,,,space,24.633635
