image_list,key_resp_intructions.keys,key_resp_intructions.rt,key_resp_intructions_3.keys,key_resp_intructions_3.rt,PracticeComplete_2.keys,PracticeComplete_2.rt,PracticeComplete_3.keys,PracticeComplete_3.rt,demo_trials.thisRepN,demo_trials.thisTrialN,demo_trials.thisN,demo_trials.thisIndex,demo_trials.ran,demo_images,path_images,participant,date,expName,psychopyVersion,OS,frameRate,windowSize,practice_complete.keys,practice_complete.rt,boxes_checked,PracticeComplete.keys,PracticeComplete.rt,practice_trials.thisRepN,practice_trials.thisTrialN,practice_trials.thisN,practice_trials.thisIndex,practice_trials.ran,practice_images,feedback_images,key_resp_intructions_2.keys,key_resp_intructions_2.rt,Image_List_4,trial_complete.keys,trial_complete.rt,trial_mouse.x,trial_mouse.y,trial_mouse.leftButton,trial_mouse.midButton,trial_mouse.rightButton,trial_mouse.time,trial_mouse.clicked_name,trials.thisRepN,trials.thisTrialN,trials.thisN,trials.thisIndex,trials.ran,Image_List_1,Image_List_2,Image_List_3,Image_List_5,key_resp.keys,key_resp.rt
Image_List_4,space,2.06203,space,2.15471,space,1.28626,space,0.32075,0,0,0,3,1,ahead_right_left.jpg,ahead_right_left_path.jpg,44421,2020-11-23_17h29.18.772,lingCatScenes,2020.1.3,Win32,60,,,,,,,,,,,,,,,,,,,,,,,,,,,,,,,,,,,,
Image_List_4,,,,,space,0.001025,space,0.090955,0,1,1,1,1,ahead_left.jpg,ahead_left_path.jpg,44421,2020-11-23_17h29.18.772,lingCatScenes,2020.1.3,Win32,60,,,,,,,,,,,,,,,,,,,,,,,,,,,,,,,,,,,,
Image_List_4,,,,,space,0.19549,space,0.228025,0,2,2,0,1,ahead.jpg,ahead_path.jpg,44421,2020-11-23_17h29.18.772,lingCatScenes,2020.1.3,Win32,60,,,,,,,,,,,,,,,,,,,,,,,,,,,,,,,,,,,,
Image_List_4,,,,,space,0.23606,space,0.22956,0,3,3,2,1,ahead_right.jpg,ahead_right_path.jpg,44421,2020-11-23_17h29.18.772,lingCatScenes,2020.1.3,Win32,60,,,,,,,,,,,,,,,,,,,,,,,,,,,,,,,,,,,,
Image_List_4,,,,,space,0.335005,space,0.359145,0,4,4,6,1,right_left.jpg,right_left_path.jpg,44421,2020-11-23_17h29.18.772,lingCatScenes,2020.1.3,Win32,60,,,,,,,,,,,,,,,,,,,,,,,,,,,,,,,,,,,,
Image_List_4,,,,,space,0.4307,space,0.637775,0,5,5,4,1,left.jpg,left_path.jpg,44421,2020-11-23_17h29.18.772,lingCatScenes,2020.1.3,Win32,60,,,,,,,,,,,,,,,,,,,,,,,,,,,,,,,,,,,,
Image_List_4,,,,,space,0.627675,space,1.23668,0,6,6,5,1,right.jpg,right_path.jpg,44421,2020-11-23_17h29.18.772,lingCatScenes,2020.1.3,Win32,60,,,,,,,,,,,,,,,,,,,,,,,,,,,,,,,,,,,,
Image_List_4,,,,,,,,,,,,,,,,44421,2020-11-23_17h29.18.772,lingCatScenes,2020.1.3,Win32,60,"[1536,864]",space,0.769005,[],space,0.72051,0,0,0,5,1,right_2.jpg,right_2_path.jpg,,,,,,,,,,,,,,,,,,,,,,,
Image_List_4,,,,,,,,,,,,,,,,44421,2020-11-23_17h29.18.772,lingCatScenes,2020.1.3,Win32,60,"[1536,864]",space,0.710915,[],space,0.27806,0,1,1,3,1,ahead_right_left_2.jpg,ahead_right_left_2_path.jpg,,,,,,,,,,,,,,,,,,,,,,,
Image_List_4,,,,,,,,,,,,,,,,44421,2020-11-23_17h29.18.772,lingCatScenes,2020.1.3,Win32,60,"[1536,864]",space,0.39244,[],space,0.319835,0,2,2,1,1,ahead_left_2.jpg,ahead_left_2_path.jpg,,,,,,,,,,,,,,,,,,,,,,,
Image_List_4,,,,,,,,,,,,,,,,44421,2020-11-23_17h29.18.772,lingCatScenes,2020.1.3,Win32,60,"[1536,864]",space,0.615455,[],space,0.398865,0,3,3,4,1,left_2.jpg,left_2_path.jpg,,,,,,,,,,,,,,,,,,,,,,,
Image_List_4,,,,,,,,,,,,,,,,44421,2020-11-23_17h29.18.772,lingCatScenes,2020.1.3,Win32,60,"[1536,864]",space,0.346195,[],space,0.3321,0,4,4,2,1,ahead_right_2.jpg,ahead_right_2_path.jpg,,,,,,,,,,,,,,,,,,,,,,,
Image_List_4,,,,,,,,,,,,,,,,44421,2020-11-23_17h29.18.772,lingCatScenes,2020.1.3,Win32,60,"[1536,864]",space,0.338335,[],space,0.316695,0,5,5,0,1,ahead_2.jpg,ahead_2_path.jpg,,,,,,,,,,,,,,,,,,,,,,,
Image_List_4,,,,,,,,,,,,,,,,44421,2020-11-23_17h29.18.772,lingCatScenes,2020.1.3,Win32,60,"[1536,864]",space,0.322175,[],space,0.325425,0,6,6,6,1,right_left_2.jpg,right_left_2_path.jpg,,,,,,,,,,,,,,,,,,,,,,,
Image_List_4,,,,,,,,,,,,,,,,44421,2020-11-23_17h29.18.772,lingCatScenes,2020.1.3,Win32,60,"[1536,864]",,,"[""trial_ahead_box"",""trial_sharp_right_box"",""trial_sharp_left_box""]",,,,,,,,,,space,3.08573,metroInside1.jpg,space,6.733995,"[0.002777791064646509,0.587037172058116,-0.6101851810321763]","[-0.3120371056513662,-0.2851851968853562,-0.3046296416195454]","[1,1,1]","[0,0,0]","[0,0,0]","[2.796624999959022,4.287789999973029,5.275444999802858]","[""trial_ahead_box"",""trial_sharp_right_box"",""trial_sharp_left_box""]",0,0,0,69,1,liquorstore8.jpg,parkinglot2.jpg,livingroom.jpg,icecream2.jpg,,
Image_List_4,,,,,,,,,,,,,,,,44421,2020-11-23_17h29.18.772,lingCatScenes,2020.1.3,Win32,60,"[1536,864]",,,"[""trial_ahead_box"",""trial_sharp_right_box"",""trial_sharp_left_box""]",,,,,,,,,,,,churchInside3.jpg,space,5.309075,"[1.3245476616753471e-8,0.5962964314553489,-0.6101851810321763]","[-0.3240740863537347,-0.2888889571582838,-0.2962963081620358]","[1,1,1]","[0,0,0]","[0,0,0]","[2.003820000216365,4.151234999997541,5.134115000022575]","[""trial_ahead_box"",""trial_sharp_right_box"",""trial_sharp_left_box""]",0,1,1,26,1,campusquad2.jpg,cornfield4.jpg,church4.jpg,botanicalGarden7.jpg,,
Image_List_4,,,,,,,,,,,,,,,,44421,2020-11-23_17h29.18.772,lingCatScenes,2020.1.3,Win32,60,"[1536,864]",,,"[""trial_left_box"",""trial_right_box""]",,,,,,,,,,,,park8.jpg,space,7.179755,"[-0.39629628895609464,0.42222224175930023]","[-0.3138889010167784,-0.2972222341017591]","[1,1]","[0,0]","[0,0]","[6.124395000049844,7.008000000147149]","[""trial_left_box"",""trial_right_box""]",0,2,2,77,1,parkinggarage2.jpg,playroom6.jpg,pasture9.jpg,mallindoor6.jpg,,
Image_List_4,,,,,,,,,,,,,,,,44421,2020-11-23_17h29.18.772,lingCatScenes,2020.1.3,Win32,60,"[1536,864]",,,"[""trial_ahead_box""]",,,,,,,,,,,,sandDunes_desert_outdoor.jpg,space,5.90692,"[0.011111181036190592,0.011111181036190592,0.011111181036190592]","[-0.315740752896225,-0.315740752896225,-0.315740752896225]","[1,1,1]","[0,0,0]","[0,0,0]","[3.8422300000675023,4.663865000009537,5.691684999968857]","[""trial_ahead_box"",""trial_ahead_box"",""trial_ahead_box""]",0,3,3,84,1,readingroom5.jpg,sidewalk2.jpg,restaurant13.jpg,rooftop2.jpg,,
Image_List_4,,,,,,,,,,,,,,,,44421,2020-11-23_17h29.18.772,lingCatScenes,2020.1.3,Win32,60,"[1536,864]",,,"[""trial_sharp_right_box"",""trial_sharp_left_box""]",,,,,,,,,,,,museum4.jpg,space,4.366935,"[0.5898148368492171,-0.6055555513335599]","[-0.29259260440314255,-0.3185185307153949]","[1,1]","[0,0]","[0,0]","[2.683835000032559,4.124525000108406]","[""trial_sharp_right_box"",""trial_sharp_left_box""]",0,4,4,72,1,museum5.jpg,pharmacy4.jpg,musicStore1.jpg,kindergarten_classroom.jpg,,
Image_List_4,,,,,,,,,,,,,,,,44421,2020-11-23_17h29.18.772,lingCatScenes,2020.1.3,Win32,60,"[1536,864]",,,"[""trial_sharp_right_box"",""trial_sharp_left_box""]",,,,,,,,,,,,cemetery.jpg,space,3.67226,"[0.5981481703067267,-0.5907407362979872]","[-0.31111112319760853,-0.315740752896225]","[1,1]","[0,0]","[0,0]","[2.3451549999881536,3.3950400000903755]","[""trial_sharp_right_box"",""trial_sharp_left_box""]",0,5,5,22,1,bowlingalley5.jpg,church6.jpg,cargo5.jpg,bistrooutdoor6.jpg,,
Image_List_4,,,,,,,,,,,,,,,,44421,2020-11-23_17h29.18.772,lingCatScenes,2020.1.3,Win32,60,"[1536,864]",,,"[""trial_ahead_box"",""trial_right_box""]",,,,,,,,,,,,golfcourse7.jpg,space,4.206295,"[0.01296297640160278,0.41481483424151383]","[-0.29166667846341926,-0.29907408598120566]","[1,1]","[0,0]","[0,0]","[2.966410000110045,4.0324450000189245]","[""trial_ahead_box"",""trial_right_box""]",0,6,6,48,1,frontDoor2.jpg,golfcourse6.jpg,fittingroom5.jpg,fabricstore2.jpg,,
Image_List_4,,,,,,,,,,,,,,,,44421,2020-11-23_17h29.18.772,lingCatScenes,2020.1.3,Win32,60,"[1536,864]",,,"[""trial_sharp_left_box"",""trial_sharp_right_box""]",,,,,,,,,,,,constructionSite4.jpg,space,5.92004,"[0.56851865326365,-0.6305555517060889,-0.6231481441883026,0.592592614668387]","[-0.30185186380037554,-0.3185185307153949,-0.3212963650485992,-0.30833334537843865]","[1,1,1,1]","[0,0,0,0]","[0,0,0,0]","[2.389930000063032,3.5316650001332164,4.532104999991134,5.765379999997094]","[""trial_sharp_left_box"",""trial_sharp_right_box""]",0,7,7,29,1,cornfield2.jpg,deck2.jpg,cliff2.jpg,bridalboutique3.jpg,,
Image_List_4,,,,,,,,,,,,,,,,44421,2020-11-23_17h29.18.772,lingCatScenes,2020.1.3,Win32,60,"[1536,864]",,,"[""trial_sharp_right_box"",""trial_ahead_box"",""trial_sharp_left_box""]",,,,,,,,,,,,baggageClaim1.jpg,space,3.52501,"[0.592592614668387,0.0009259391851999142,-0.6037036994541133]","[-0.30833334537843865,-0.3129629750770551,-0.29259260440314255]","[1,1,1]","[0,0,0]","[0,0,0]","[1.2279599998146296,2.3697099999990314,3.3028100000228733]","[""trial_sharp_right_box"",""trial_ahead_box"",""trial_sharp_left_box""]",0,8,8,6,1,ATM1.jpg,banquetHall2.jpg,auto_showroom5.jpg,apartmentBuilding3.jpg,,
Image_List_4,,,,,,,,,,,,,,,,44421,2020-11-23_17h29.18.772,lingCatScenes,2020.1.3,Win32,60,"[1536,864]",,,"[""trial_sharp_right_box""]",,,,,,,,,,,,copyroom2.jpg,space,3.43002,[0.587037172058116],[-0.30092593786065225],[1],[0],[0],[3.1938149998895824],"[""trial_sharp_right_box""]",0,9,9,30,1,courthouse1.jpg,desertvegetation3.jpg,clothingstore2.jpg,bus_shelter3.jpg,,
Image_List_4,,,,,,,,,,,,,,,,44421,2020-11-23_17h29.18.772,lingCatScenes,2020.1.3,Win32,60,"[1536,864]",,,"[""trial_slight_right_box"",""trial_slight_left_box""]",,,,,,,,,,,,pier2.jpg,space,7.077125,"[0.014814828281049375,0.2120370534421117,-0.1749999893622266,-0.19722215540155133,0.003703717004369806]","[-0.29907408598120566,-0.29814821655551677,-0.30000001192092896,-0.2953703822223125,-0.29166667846341926]","[1,1,1,1,1]","[0,0,0,0,0]","[0,0,0,0,0]","[2.1134300001431257,3.472055000020191,4.679815000155941,6.096249999944121,6.921160000143573]","[""trial_ahead_box"",""trial_slight_right_box"",""trial_slight_left_box"",""trial_ahead_box""]",0,10,10,79,1,pasture.jpg,poolhall2.jpeg,playground9.jpg,observatory2.jpg,,
Image_List_4,,,,,,,,,,,,,,,,44421,2020-11-23_17h29.18.772,lingCatScenes,2020.1.3,Win32,60,"[1536,864]",,,"[""trial_sharp_right_box"",""trial_sharp_left_box""]",,,,,,,,,,,,cemetery5.jpg,space,2.945665,"[0.5759259477533676,-0.5990740697554968]","[-0.30740747595274975,-0.29814821655551677]","[1,1]","[0,0]","[0,0]","[1.9061799999326468,2.7973100000526756]","[""trial_sharp_right_box"",""trial_sharp_left_box""]",0,11,11,24,1,campsite.jpg,cliff3.jpg,cave6.jpg,boardwalk.jpg,,
Image_List_4,,,,,,,,,,,,,,,,44421,2020-11-23_17h29.18.772,lingCatScenes,2020.1.3,Win32,60,"[1536,864]",,,"[""trial_left_box""]",,,,,,,,,,,,warehouseoutside2.jpg,space,1.88965,[-0.3824073998602452],[-0.3046296416195454],[1],[0],[0],[1.7332750000059605],"[""trial_left_box""]",0,12,12,93,1,tollbooth8.jpg,volleyballcourt4.jpg,staircase4.jpg,tenniscourt.jpg,,
Image_List_4,,,,,,,,,,,,,,,,44421,2020-11-23_17h29.18.772,lingCatScenes,2020.1.3,Win32,60,"[1536,864]",,,"[""trial_slight_left_box""]",,,,,,,,,,,,bar.jpg,space,3.072065,[-0.19166665627724594],[-0.31111112319760853],[1],[0],[0],[2.9333899999037385],"[""trial_slight_left_box""]",0,13,13,8,1,attic3.jpg,banquetHall6.jpg,balconyIN.jpg,applestore4.jpg,,
Image_List_4,,,,,,,,,,,,,,,,44421,2020-11-23_17h29.18.772,lingCatScenes,2020.1.3,Win32,60,"[1536,864]",,,"[""trial_ahead_box""]",,,,,,,,,,,,forestpath4.jpg,space,4.47018,"[0.03796297677413181,0.009259272642709591,0.6259259484984256]","[-0.30277784625413323,-0.30092593786065225,-0.30370371567982213]","[1,1,1]","[0,0,0]","[0,0,0]","[1.5502799998503178,2.408419999992475,3.7084399999585003]","[""trial_ahead_box""]",0,14,14,45,1,fittingroom2.jpg,frontFoyer7.jpg,factory1.jpg,dock4.jpg,,
Image_List_4,,,,,,,,,,,,,,,,44421,2020-11-23_17h29.18.772,lingCatScenes,2020.1.3,Win32,60,"[1536,864]",,,"[""trial_ahead_box"",""trial_sharp_left_box""]",,,,,,,,,,,,staircase7.jpg,space,2.745045,"[-0.0027777080596588684,-0.6129629588513462]","[-0.2935185868569003,-0.30185186380037554]","[1,1]","[0,0]","[0,0]","[1.4741750000976026,2.5515250000171363]","[""trial_ahead_box"",""trial_sharp_left_box""]",0,15,15,89,1,ruralroad7.jpg,track5.jpg,ShowJumping7.jpg,sculpturegarden3.jpg,,
Image_List_4,,,,,,,,,,,,,,,,44421,2020-11-23_17h29.18.772,lingCatScenes,2020.1.3,Win32,60,"[1536,864]",,,"[""trial_sharp_left_box"",""trial_sharp_right_box"",""trial_slight_left_box""]",,,,,,,,,,,,greenhouse.jpg,space,5.847845,"[-0.18518517469918286,-0.6129629588513462,0.6185185409806393,-0.18240739688001298]","[-0.3425926051482006,-0.2824074190661863,-0.2824074190661863,-0.3055555675592687]","[1,1,1,1]","[0,0,0,0]","[0,0,0,0]","[1.8241199997719377,2.756929999915883,4.2406349999364465,5.245539999799803]","[""trial_sharp_left_box"",""trial_sharp_right_box"",""trial_slight_left_box""]",0,16,16,49,1,frontDoor3.jpg,greenhouse5.jpg,flowershop3.jpg,farm2.jpg,,
Image_List_4,,,,,,,,,,,,,,,,44421,2020-11-23_17h29.18.772,lingCatScenes,2020.1.3,Win32,60,"[1536,864]",,,"[""trial_right_box""]",,,,,,,,,,,,baywindow5.jpg,space,3.221235,[0.4055555748442809],[-0.3222222344742881],[1],[0],[0],[3.029884999850765],"[""trial_right_box""]",0,17,17,11,1,backyard2.jpg,basketballcourt4.jpg,bambooforest3.jpg,backyard1.jpg,,
Image_List_4,,,,,,,,,,,,,,,,44421,2020-11-23_17h29.18.772,lingCatScenes,2020.1.3,Win32,60,"[1536,864]",,,"[""trial_right_box"",""trial_left_box""]",,,,,,,,,,,,museum3.jpg,space,5.660675,"[0.4055555748442809,0.4055555748442809,0.4055555748442809,-0.41388888181083733]","[-0.3222222344742881,-0.3222222344742881,-0.3222222344742881,-0.3194444566551182]","[1,1,1,1]","[0,0,0,0]","[0,0,0,0]","[1.971919999923557,3.446639999980107,4.08919999981299,5.188079999992624]","[""trial_right_box"",""trial_right_box"",""trial_right_box"",""trial_left_box""]",0,18,18,71,1,metroInside2.jpg,pavilion5.jpg,metroInside3.jpg,jewelrystore.jpg,,
Image_List_4,,,,,,,,,,,,,,,,44421,2020-11-23_17h29.18.772,lingCatScenes,2020.1.3,Win32,60,"[1536,864]",,,"[""trial_ahead_box""]",,,,,,,,,,,,hallway2.jpg,space,2.30947,"[0.03333334707551532,0.004629642944093104]","[-0.29074075252369597,-0.30092593786065225]","[1,1]","[0,0]","[0,0]","[1.3515999999362975,2.1749750000890344]","[""trial_ahead_box""]",0,19,19,50,1,frontLawn4.jpg,grocerystore6.jpg,forestpath6.jpg,fireplace4.jpg,,
Image_List_4,,,,,,,,,,,,,,,,44421,2020-11-23_17h29.18.772,lingCatScenes,2020.1.3,Win32,60,"[1536,864]",,,"[""trial_ahead_box""]",,,,,,,,,,,,readingroom4.jpg,space,0.83788,[0.004629642944093104],[-0.30092593786065225],[1],[0],[0],[0.6643749999348074],"[""trial_ahead_box""]",0,20,20,82,1,publicrestroom2.jpg,sandDunes_desert_outdoor9.jpg,promenadeDeck3.jpg,postoffice4.jpg,,
Image_List_4,,,,,,,,,,,,,,,,44421,2020-11-23_17h29.18.772,lingCatScenes,2020.1.3,Win32,60,"[1536,864]",,,"[""trial_sharp_left_box""]",,,,,,,,,,,,hotelRoom7.jpg,space,1.9016,[-0.6046296253938366],[-0.30740747595274975],[1],[0],[0],[1.7084599998779595],"[""trial_sharp_left_box""]",0,21,21,55,1,greenmountains.jpg,hotelRoom3.jpg,gazebo5.jpg,frontLawn2.jpg,,
Image_List_4,,,,,,,,,,,,,,,,44421,2020-11-23_17h29.18.772,lingCatScenes,2020.1.3,Win32,60,"[1536,864]",,,"[""trial_right_box""]",,,,,,,,,,,,foodcourt.jpg,space,2.58752,[0.3888889079292615],[-0.2870370487648028],[1],[0],[0],[2.403440000023693],"[""trial_right_box""]",0,22,22,43,1,exerciseequipment5.jpg,forestpath10.jpg,dugout2.jpg,diningroom3.jpg,,
Image_List_4,,,,,,,,,,,,,,,,44421,2020-11-23_17h29.18.772,lingCatScenes,2020.1.3,Win32,60,"[1536,864]",,,"[""trial_ahead_box""]",,,,,,,,,,,,basketballcourt3.jpg,space,1.72963,[0.014814828281049375],[-0.2962963081620358],[1],[0],[0],[1.5324899998959154],"[""trial_ahead_box""]",0,23,23,10,1,backstage2.jpg,barbershop3.jpg,ballroom4.jpg,ATM4.jpg,,
Image_List_4,,,,,,,,,,,,,,,,44421,2020-11-23_17h29.18.772,lingCatScenes,2020.1.3,Win32,60,"[1536,864]",,,"[""trial_sharp_left_box"",""trial_right_box""]",,,,,,,,,,,,labClass7.jpg,space,5.22428,"[-0.506481475783167,-0.5888888844185405,0.3944444635676013]","[-0.30092593786065225,-0.29907408598120566,-0.3046296416195454]","[1,1,1]","[0,0,0]","[0,0,0]","[2.556059999857098,3.2310349999461323,4.9638499999418855]","[""trial_sharp_left_box"",""trial_right_box""]",0,24,24,65,1,igloo5.jpg,newsstand7.jpg,laundromat2.jpeg,homeoffice8.jpg,,
Image_List_4,,,,,,,,,,,,,,,,44421,2020-11-23_17h29.18.772,lingCatScenes,2020.1.3,Win32,60,"[1536,864]",,,"[""trial_sharp_right_box"",""trial_sharp_left_box""]",,,,,,,,,,,,liquorstore2.jpg,space,3.569,"[0.592592614668387,-0.5972222178760502]","[-0.29166667846341926,-0.3138889010167784]","[1,1]","[0,0]","[0,0]","[1.9990050001069903,3.018940000096336]","[""trial_sharp_right_box"",""trial_sharp_left_box""]",0,25,25,67,1,library_aisle3.jpg,park7.jpg,laundromat4.jpg,hospitalroom2.jpg,,
Image_List_4,,,,,,,,,,,,,,,,44421,2020-11-23_17h29.18.772,lingCatScenes,2020.1.3,Win32,60,"[1536,864]",,,"[""trial_sharp_right_box""]",,,,,,,,,,,,operatingroom1.jpg,space,3.2494,[0.580555577451984],[-0.2842593274596673],[1],[0],[0],[1.799170000012964],"[""trial_sharp_right_box""]",0,26,26,74,1,newsstand2.jpg,playground10.jpg,observatory4.jpeg,lightingstore2.jpg,,
Image_List_4,,,,,,,,,,,,,,,,44421,2020-11-23_17h29.18.772,lingCatScenes,2020.1.3,Win32,60,"[1536,864]",,,"[""trial_sharp_right_box"",""trial_sharp_left_box""]",,,,,,,,,,,,kindergarten_classroom5.jpg,space,3.26916,"[0.608333355643683,-0.6166666626102395]","[-0.2768518634278465,-0.30833334537843865]","[1,1]","[0,0]","[0,0]","[1.6856100000441074,3.050675000064075]","[""trial_sharp_right_box"",""trial_sharp_left_box""]",0,27,27,59,1,homegarden7.jpg,library_aisle8.jpg,highway4.jpg,grocerystore3.jpg,,
Image_List_4,,,,,,,,,,,,,,,,44421,2020-11-23_17h29.18.772,lingCatScenes,2020.1.3,Win32,60,"[1536,864]",,,"[""trial_left_box""]",,,,,,,,,,,,poolhall5.jpg,space,1.91246,[-0.40092591865471117],[-0.3138889010167784],[1],[0],[0],[1.731815000064671],"[""trial_left_box""]",0,28,28,80,1,pavilion2.jpg,racecarcourse2.jpg,porch.jpg,parkinggarage4.jpg,,
Image_List_4,,,,,,,,,,,,,,,,44421,2020-11-23_17h29.18.772,lingCatScenes,2020.1.3,Win32,60,"[1536,864]",,,[],,,,,,,,,,,,hayfield4.jpg,space,2.9151,[0.03148149519606873],[-0.315740752896225],[1],[0],[0],[2.717420000117272],[],0,29,29,51,1,gasstation6.jpg,hallway5.jpg,frontDoor5.jpg,firestation5.jpg,,
Image_List_4,,,,,,,,,,,,,,,,44421,2020-11-23_17h29.18.772,lingCatScenes,2020.1.3,Win32,60,"[1536,864]",,,"[""trial_ahead_box""]",,,,,,,,,,,,castle4.jpg,space,1.75081,[0.01666668016049597],[-0.3055555675592687],[1],[0],[0],[0.9672299998346716],"[""trial_ahead_box""]",0,30,30,19,1,boardwalk2.jpg,casino3.jpg,cafeteria1.jpg,basketballcourt.jpg,,
Image_List_4,,,,,,,,,,,,,,,,44421,2020-11-23_17h29.18.772,lingCatScenes,2020.1.3,Win32,60,"[1536,864]",,,"[""trial_slight_left_box""]",,,,,,,,,,,,driveway7.jpg,space,1.79602,[-0.19537036003613914],[-0.3046296416195454],[1],[0],[0],[1.607480000006035],"[""trial_slight_left_box""]",0,31,31,37,1,dining_car.jpg,driveway4.jpg,dinosaur4.jpg,citystreet9.jpg,,
Image_List_4,,,,,,,,,,,,,,,,44421,2020-11-23_17h29.18.772,lingCatScenes,2020.1.3,Win32,60,"[1536,864]",,,"[""trial_ahead_box""]",,,,,,,,,,,,carmechanic.jpg,space,1.35778,[0.0018519216389576184],[-0.2870370487648028],[1],[0],[0],[1.2004550001583993],"[""trial_ahead_box""]",0,32,32,17,1,bikerack1.jpg,campsite6.jpg,breakroom4.jpg,baseball6.jpg,,
Image_List_4,,,,,,,,,,,,,,,,44421,2020-11-23_17h29.18.772,lingCatScenes,2020.1.3,Win32,60,"[1536,864]",,,"[""trial_ahead_box""]",,,,,,,,,,,,campusquad4.jpg,space,0.84753,[0.0018519216389576184],[-0.2870370487648028],[1],[0],[0],[0.672095000045374],"[""trial_ahead_box""]",0,33,33,16,1,basement.jpg,cafeteria6.jpg,breakroom2.jpg,barbershop2.jpg,,
Image_List_4,,,,,,,,,,,,,,,,44421,2020-11-23_17h29.18.772,lingCatScenes,2020.1.3,Win32,60,"[1536,864]",,,"[""trial_ahead_box""]",,,,,,,,,,,,windmill1.jpg,space,0.814945,[0.0018519216389576184],[-0.2870370487648028],[1],[0],[0],[0.6757200001738966],"[""trial_ahead_box""]",0,34,34,96,1,warehouse4.jpg,warehouseoutside1.jpg,tenniscourt3.jpg,warehouse1.jpg,,
Image_List_4,,,,,,,,,,,,,,,,44421,2020-11-23_17h29.18.772,lingCatScenes,2020.1.3,Win32,60,"[1536,864]",,,"[""trial_right_box""]",,,,,,,,,,,,attic4.jpg,space,3.853045,"[0.3675926113156257,0.3796296485320286]","[-0.30185186380037554,-0.30000001192092896]","[1,1]","[0,0]","[0,0]","[2.603529999963939,3.7118450000416487]","[""trial_right_box""]",0,35,35,5,1,artStudio3.jpg,bambooforest.jpg,auto_showroom4.jpg,amusement3.jpg,,
Image_List_4,,,,,,,,,,,,,,,,44421,2020-11-23_17h29.18.772,lingCatScenes,2020.1.3,Win32,60,"[1536,864]",,,"[""trial_left_box""]",,,,,,,,,,,,driveway8.jpg,space,1.661315,[-0.40092591865471117],[-0.30000001192092896],[1],[0],[0],[1.5084299999289215],"[""trial_left_box""]",0,36,36,38,1,dining_car2.jpg,elevatorOutside4.jpg,dock1.jpg,classroom1.jpg,,
Image_List_4,,,,,,,,,,,,,,,,44421,2020-11-23_17h29.18.772,lingCatScenes,2020.1.3,Win32,60,"[1536,864]",,,"[""trial_ahead_box""]",,,,,,,,,,,,fountain4.jpg,space,1.441895,[0.017592606100219267],[-0.2972222341017591],[1],[0],[0],[1.2962150000967085],"[""trial_ahead_box""]",0,37,37,46,1,flowershop.jpg,frontLawn5.jpg,farmersmarket4.jpg,dormroom6.jpg,,
Image_List_4,,,,,,,,,,,,,,,,44421,2020-11-23_17h29.18.772,lingCatScenes,2020.1.3,Win32,60,"[1536,864]",,,"[""trial_slight_right_box""]",,,,,,,,,,,,igloo4.jpg,space,1.62743,[0.19259260870792247],[-0.30000001192092896],[1],[0],[0],[1.4900950000155717],"[""trial_slight_right_box""]",0,38,38,58,1,highway7.jpg,lab1.jpg,hedgemaze1.jpg,grocerystore2.jpg,,
Image_List_4,,,,,,,,,,,,,,,,44421,2020-11-23_17h29.18.772,lingCatScenes,2020.1.3,Win32,60,"[1536,864]",,,"[""trial_ahead_box""]",,,,,,,,,,,,fabricstore1.jpg,space,1.20602,[-0.0027777080596588684],[-0.30648149349899206],[1],[0],[0],[1.08398999995552],"[""trial_ahead_box""]",0,39,39,41,1,dugout4.jpg,farm3.jpg,drymountains3.jpg,dentist2.jpg,,
Image_List_4,,,,,,,,,,,,,,,,44421,2020-11-23_17h29.18.772,lingCatScenes,2020.1.3,Win32,60,"[1536,864]",,,"[""trial_sharp_left_box"",""trial_sharp_right_box""]",,,,,,,,,,,,cabinIndoors.jpg,space,2.91125,"[-0.584259254719924,0.6101853205511985]","[-0.31111112319760853,-0.2879629747045261]","[1,1]","[0,0]","[0,0]","[1.7262849998660386,2.784209999954328]","[""trial_sharp_left_box"",""trial_sharp_right_box""]",0,40,40,15,1,bambooforest4.jpg,cafeteria5.jpg,bleachers8.jpg,bar8.jpg,,
Image_List_4,,,,,,,,,,,,,,,,44421,2020-11-23_17h29.18.772,lingCatScenes,2020.1.3,Win32,60,"[1536,864]",,,"[""trial_ahead_box""]",,,,,,,,,,,,basement5.jpg,space,1.729255,[0.010185198582432888],[-0.3138889010167784],[1],[0],[0],[1.3338299999013543],"[""trial_ahead_box""]",0,41,41,9,1,auto_showroom3.jpg,bar2.jpg,ballroom2.jpg,arcade2.jpg,,
Image_List_4,,,,,,,,,,,,,,,,44421,2020-11-23_17h29.18.772,lingCatScenes,2020.1.3,Win32,60,"[1536,864]",,,"[""trial_left_box""]",,,,,,,,,,,,cave5.jpg,space,3.10785,[-0.40370369647388105],[-0.2888889571582838],[1],[0],[0],[2.676265000132844],"[""trial_left_box""]",0,42,42,21,1,botanicalGarden6.jpg,cemetery6.jpg,campusquad3.jpg,beach1.jpeg,,
Image_List_4,,,,,,,,,,,,,,,,44421,2020-11-23_17h29.18.772,lingCatScenes,2020.1.3,Win32,60,"[1536,864]",,,"[""trial_sharp_right_box"",""trial_sharp_left_box""]",,,,,,,,,,,,fountain7.jpg,space,3.345725,"[0.608333355643683,-0.5851851806596473]","[-0.2898148265839727,-0.3129629750770551]","[1,1]","[0,0]","[0,0]","[2.1151199999731034,3.197914999909699]","[""trial_sharp_right_box"",""trial_sharp_left_box""]",0,43,43,47,1,frontDoor.jpg,gasstation8.jpg,firestation4.jpg,elevatorOutside2.jpg,,
Image_List_4,,,,,,,,,,,,,,,,44421,2020-11-23_17h29.18.772,lingCatScenes,2020.1.3,Win32,60,"[1536,864]",,,"[""trial_sharp_right_box""]",,,,,,,,,,,,weightroom.jpg,space,2.93256,[0.6148149502498149],[-0.29259260440314255],[1],[0],[0],[1.8257150000426918],"[""trial_sharp_right_box""]",0,44,44,94,1,treehouse.jpg,waitingroom3.jpg,staircase6.jpg,trainStation3.jpg,,
Image_List_4,,,,,,,,,,,,,,,,44421,2020-11-23_17h29.18.772,lingCatScenes,2020.1.3,Win32,60,"[1536,864]",,,"[""trial_slight_right_box""]",,,,,,,,,,,,kindergarten_classroom6.jpg,space,2.44771,[0.20925927562294183],[-0.2861111228250795],[1],[0],[0],[2.2869800000917166],"[""trial_slight_right_box""]",0,45,45,60,1,hometheater2.jpg,lightingstore3.jpg,homegarage.jpg,hallway.jpg,,
Image_List_4,,,,,,,,,,,,,,,,44421,2020-11-23_17h29.18.772,lingCatScenes,2020.1.3,Win32,60,"[1536,864]",,,"[""trial_ahead_box""]",,,,,,,,,,,,homegarage4.jpg,space,2.38805,[-0.0009259126942466806],[-0.30277784625413323],[1],[0],[0],[2.241154999937862],"[""trial_ahead_box""]",0,46,46,54,1,greenhouse2.jpg,horsebarn11.jpg,gazebo2.jpg,frontFoyer.jpg,,
Image_List_4,,,,,,,,,,,,,,,,44421,2020-11-23_17h29.18.772,lingCatScenes,2020.1.3,Win32,60,"[1536,864]",,,"[""trial_right_box""]",,,,,,,,,,,,airportTerminal3.jpg,space,2.32906,[0.3861111301100916],[-0.2944444562825892],[1],[0],[0],[2.1991699999198318],"[""trial_right_box""]",0,47,47,1,1,airportTerminal4.jpg,apartmentBuilding1.jpg,applestore1.jpg,airportTerminal2.jpg,,
Image_List_4,,,,,,,,,,,,,,,,44421,2020-11-23_17h29.18.772,lingCatScenes,2020.1.3,Win32,60,"[1536,864]",,,"[""trial_right_box""]",,,,,,,,,,,,checkoutcounter2.jpg,space,1.36481,[0.3861111301100916],[-0.2944444562825892],[1],[0],[0],[1.2161850000265986],"[""trial_right_box""]",0,48,48,25,1,campsite7.jpg,conference3.jpg,church3.jpg,botanicalGarden4.jpg,,
Image_List_4,,,,,,,,,,,,,,,,44421,2020-11-23_17h29.18.772,lingCatScenes,2020.1.3,Win32,60,"[1536,864]",,,"[""trial_ahead_box""]",,,,,,,,,,,,cave4.jpg,space,1.548045,[0.009259272642709591],[-0.3138889010167784],[1],[0],[0],[1.4178350002039224],"[""trial_ahead_box""]",0,49,49,20,1,boardwalk6.jpg,cave.jpg,campsite3.jpg,basketballcourt7.jpg,,
Image_List_4,,,,,,,,,,,,,,,,44421,2020-11-23_17h29.18.772,lingCatScenes,2020.1.3,Win32,60,"[1536,864]",,,"[""trial_sharp_right_box""]",,,,,,,,,,,,nursery4.jpg,space,2.89243,[0.5981481703067267],[-0.30185186380037554],[1],[0],[0],[1.7677700000349432],"[""trial_sharp_right_box""]",0,50,50,73,1,musicStore3.jpg,photographer_studio2.jpg,nursery.jpg,library_aisle9.jpg,,
Image_List_4,,,,,,,,,,,,,,,,44421,2020-11-23_17h29.18.772,lingCatScenes,2020.1.3,Win32,60,"[1536,864]",,,"[""trial_ahead_box""]",,,,,,,,,,,,courtroom2.jpg,space,2.04257,[1.3245476616753471e-8],[-0.30925927131816194],[1],[0],[0],[1.4008349999785423],"[""trial_ahead_box""]",0,51,51,31,1,cubicle4.jpg,desertvegetation6.jpg,conference4.jpg,cabin3.jpg,,
Image_List_4,,,,,,,,,,,,,,,,44421,2020-11-23_17h29.18.772,lingCatScenes,2020.1.3,Win32,60,"[1536,864]",,,"[""trial_ahead_box""]",,,,,,,,,,,,wrestlingring7.jpg,space,0.993435,[1.3245476616753471e-8],[-0.30925927131816194],[1],[0],[0],[0.7940500001423061],"[""trial_ahead_box""]",0,52,52,99,1,wineVineyard9.jpg,yogastudio4.jpg,windmill2.jpg,yogastudio1.jpg,,
Image_List_4,,,,,,,,,,,,,,,,44421,2020-11-23_17h29.18.772,lingCatScenes,2020.1.3,Win32,60,"[1536,864]",,,"[""trial_ahead_box""]",,,,,,,,,,,,tvstudio2.jpg,space,1.230835,[1.3245476616753471e-8],[-0.30925927131816194],[1],[0],[0],[1.047400000039488],"[""trial_ahead_box""]",0,53,53,92,1,staircase.jpg,volleyballcourt.jpg,skatepark7.jpg,soccerfield2.jpg,,
Image_List_4,,,,,,,,,,,,,,,,44421,2020-11-23_17h29.18.772,lingCatScenes,2020.1.3,Win32,60,"[1536,864]",,,"[""trial_ahead_box""]",,,,,,,,,,,,appleorchard3.jpg,space,0.94847,[1.3245476616753471e-8],[-0.30925927131816194],[1],[0],[0],[0.7983250000979751],"[""trial_ahead_box""]",0,54,54,4,1,artStudio1.jpg,baggageClaim2.jpg,auto_showroom1.jpg,alley4.jpg,,
Image_List_4,,,,,,,,,,,,,,,,44421,2020-11-23_17h29.18.772,lingCatScenes,2020.1.3,Win32,60,"[1536,864]",,,"[""trial_right_box""]",,,,,,,,,,,,lab5.jpg,space,2.63407,"[1.3245476616753471e-8,0.3888889079292615,0.018518532039942564]","[-0.30925927131816194,-0.31111112319760853,-0.2750000680624343]","[1,1,1]","[0,0,0]","[0,0,0]","[0.667769999941811,1.6435799999162555,2.4840849998872727]","[""trial_ahead_box"",""trial_right_box"",""trial_ahead_box""]",0,55,55,64,1,igloo2.jpg,newsstand5.jpg,jewelrystore8.jpg,homegarage2.jpg,,
Image_List_4,,,,,,,,,,,,,,,,44421,2020-11-23_17h29.18.772,lingCatScenes,2020.1.3,Win32,60,"[1536,864]",,,"[""trial_ahead_box""]",,,,,,,,,,,,sandDunes_desert_outdoor3.jpg,space,1.27432,[0.018518532039942564],[-0.2750000680624343],[1],[0],[0],[1.107869999948889],"[""trial_ahead_box""]",0,56,56,85,1,recordingstudio4.jpg,sidewalk5.jpg,ruralroad2.jpg,rooftop3.jpg,,
Image_List_4,,,,,,,,,,,,,,,,44421,2020-11-23_17h29.18.772,lingCatScenes,2020.1.3,Win32,60,"[1536,864]",,,[],,,,,,,,,,,,ticket_counter6.jpg,space,1.69243,[-0.1703703596636101],[-0.3046296416195454],[1],[0],[0],[1.4757799999788404],[],0,57,57,91,1,shoestore2.jpg,trainStation5.jpg,skatepark5.jpg,sidewalk3.jpg,,
Image_List_4,,,,,,,,,,,,,,,,44421,2020-11-23_17h29.18.772,lingCatScenes,2020.1.3,Win32,60,"[1536,864]",,,"[""trial_ahead_box""]",,,,,,,,,,,,rainforest5.jpg,space,2.633015,[-0.01666659715550833],[-0.30092593786065225],[1],[0],[0],[2.483100000070408],"[""trial_ahead_box""]",0,58,58,81,1,promenadeDeck.jpg,ruralroad5.jpg,promenadeDeck2.jpg,pasture8.jpg,,
Image_List_4,,,,,,,,,,,,,,,,44421,2020-11-23_17h29.18.772,lingCatScenes,2020.1.3,Win32,60,"[1536,864]",,,"[""trial_sharp_right_box""]",,,,,,,,,,,,lockerroom2.jpg,space,2.0402,[0.5981481703067267],[-0.2861111228250795],[1],[0],[0],[1.8774949999060482],"[""trial_sharp_right_box""]",0,59,59,68,1,liquorstore7.jpg,parkinglot.jpg,lightingstore4.jpg,hospitalroom3.jpg,,
Image_List_4,,,,,,,,,,,,,,,,44421,2020-11-23_17h29.18.772,lingCatScenes,2020.1.3,Win32,60,"[1536,864]",,,[],,,,,,,,,,,,lab4.jpg,space,1.289625,[0.6277778003778722],[-0.27962969776105084],[1],[0],[0],[1.0761750000528991],[],0,60,60,63,1,hut2.jpg,museum6.jpg,hotelRoom2.jpg,highway2.jpg,,
Image_List_4,,,,,,,,,,,,,,,,44421,2020-11-23_17h29.18.772,lingCatScenes,2020.1.3,Win32,60,"[1536,864]",,,"[""trial_ahead_box""]",,,,,,,,,,,,soccerfield.jpg,space,1.68593,[-0.0027777080596588684],[-0.3055555675592687],[1],[0],[0],[1.5494999999646097],"[""trial_ahead_box""]",0,61,61,88,1,rooftop1.jpg,track.jpg,sculpturegarden4.jpg,sandbox.jpg,,
Image_List_4,,,,,,,,,,,,,,,,44421,2020-11-23_17h29.18.772,lingCatScenes,2020.1.3,Win32,60,"[1536,864]",,,"[""trial_slight_right_box"",""trial_right_box""]",,,,,,,,,,,,lab3.jpg,space,2.53909,"[0.22407409065851458,0.38796309501760706]","[-0.3175926047756716,-0.2962963081620358]","[1,1]","[0,0]","[0,0]","[1.574989999877289,2.374834999907762]","[""trial_slight_right_box"",""trial_right_box""]",0,62,62,62,1,hotellobby2.jpg,minigolf.jpg,horsebarn8.jpg,hayfield7.jpg,,
Image_List_4,,,,,,,,,,,,,,,,44421,2020-11-23_17h29.18.772,lingCatScenes,2020.1.3,Win32,60,"[1536,864]",,,"[""trial_slight_left_box""]",,,,,,,,,,,,hut5.jpg,space,1.45779,[-0.18425924875945957],[-0.29907408598120566],[1],[0],[0],[1.3096600000280887],"[""trial_slight_left_box""]",0,63,63,57,1,hayfield5.jpg,jail1.jpg,hallway4.jpg,gazebo.jpg,,
Image_List_4,,,,,,,,,,,,,,,,44421,2020-11-23_17h29.18.772,lingCatScenes,2020.1.3,Win32,60,"[1536,864]",,,"[""trial_slight_right_box""]",,,,,,,,,,,,closet.jpg,space,1.445615,[0.21111112750238842],[-0.30370371567982213],[1],[0],[0],[1.2989950000774115],"[""trial_slight_right_box""]",0,64,64,27,1,castle3.jpg,courtroom3.jpg,churchInside4.jpg,brewery2.jpg,,
Image_List_4,,,,,,,,,,,,,,,,44421,2020-11-23_17h29.18.772,lingCatScenes,2020.1.3,Win32,60,"[1536,864]",,,"[""trial_ahead_box""]",,,,,,,,,,,,winebarrel3.jpg,space,1.27899,[0.002777791064646509],[-0.30370371567982213],[1],[0],[0],[1.1565949998330325],"[""trial_ahead_box""]",0,65,65,97,1,warehouseoutside4.jpg,wineVineyard2.jpg,waitingroom4.jpg,warehouseoutside3.jpg,,
Image_List_4,,,,,,,,,,,,,,,,44421,2020-11-23_17h29.18.772,lingCatScenes,2020.1.3,Win32,60,"[1536,864]",,,"[""trial_ahead_box""]",,,,,,,,,,,,highway.jpg,space,0.832385,[0.002777791064646509],[-0.30370371567982213],[1],[0],[0],[0.6845350000075996],"[""trial_ahead_box""]",0,66,66,52,1,gasstation7.jpg,hardwarestore1.jpg,frontFoyer6.jpg,forestpath2.jpg,,
Image_List_4,,,,,,,,,,,,,,,,44421,2020-11-23_17h29.18.772,lingCatScenes,2020.1.3,Win32,60,"[1536,864]",,,"[""trial_ahead_box""]",,,,,,,,,,,,hut1.jpg,space,0.8145,[0.002777791064646509],[-0.30370371567982213],[1],[0],[0],[0.6589549998752773],"[""trial_ahead_box""]",0,67,67,56,1,grocerystore5.jpg,hut3.jpg,golfcourse10.jpg,gasstation2.jpg,,
Image_List_4,,,,,,,,,,,,,,,,44421,2020-11-23_17h29.18.772,lingCatScenes,2020.1.3,Win32,60,"[1536,864]",,,"[""trial_slight_right_box""]",,,,,,,,,,,,doctor1.jpg,space,1.36869,[0.20462964592432534],[-0.3129629750770551],[1],[0],[0],[1.21822000015527],"[""trial_slight_right_box""]",0,68,68,36,1,diner14.jpg,dormroom9.jpg,dining_car3.jpg,checkoutcounter9.jpg,,
Image_List_4,,,,,,,,,,,,,,,,44421,2020-11-23_17h29.18.772,lingCatScenes,2020.1.3,Win32,60,"[1536,864]",,,"[""trial_slight_right_box""]",,,,,,,,,,,,diner11.jpg,space,1.166765,[0.20185186810515546],[-0.3194444566551182],[1],[0],[0],[1.0170849999412894],"[""trial_slight_right_box""]",0,69,69,34,1,deck4.jpg,diningroom5.jpg,courthouse4.jpg,campusquad1.jpg,,
Image_List_4,,,,,,,,,,,,,,,,44421,2020-11-23_17h29.18.772,lingCatScenes,2020.1.3,Win32,60,"[1536,864]",,,"[""trial_slight_left_box""]",,,,,,,,,,,,stripmall3.jpg,space,2.19891,"[-0.16481474751123593,-0.2138888788306051]","[-0.3148148269565017,-0.3055555675592687]","[1,1]","[0,0]","[0,0]","[1.3347700000740588,2.0503950000274926]","[""trial_slight_left_box""]",0,70,70,90,1,savanna5.jpg,trainStation1.jpg,sidewalk1.jpg,shoestore4.jpg,,
Image_List_4,,,,,,,,,,,,,,,,44421,2020-11-23_17h29.18.772,lingCatScenes,2020.1.3,Win32,60,"[1536,864]",,,"[""trial_slight_right_box""]",,,,,,,,,,,,dining_car6.jpg,space,1.645535,[0.20092594216543216],[-0.3129629750770551],[1],[0],[0],[1.4948499999009073],"[""trial_slight_right_box""]",0,71,71,35,1,deck5.jpg,dock3.jpg,cubicle7.jpg,carmechanic2.jpg,,
Image_List_4,,,,,,,,,,,,,,,,44421,2020-11-23_17h29.18.772,lingCatScenes,2020.1.3,Win32,60,"[1536,864]",,,"[""trial_slight_left_box""]",,,,,,,,,,,,airplanecabin5.jpg,space,1.551675,[-0.18240739688001298],[-0.3175926047756716],[1],[0],[0],[1.3852399999741465],"[""trial_slight_left_box""]",0,72,72,0,1,airplanecabin1.jpg,alley2.jpg,appleorchard4.jpg,airplanecabin3.jpg,,
Image_List_4,,,,,,,,,,,,,,,,44421,2020-11-23_17h29.18.772,lingCatScenes,2020.1.3,Win32,60,"[1536,864]",,,"[""trial_slight_left_box""]",,,,,,,,,,,,foodcourt6.jpg,space,1.381365,[-0.19166665627724594],[-0.3129629750770551],[1],[0],[0],[1.2411549999378622],"[""trial_slight_left_box""]",0,73,73,44,1,firestation2.jpg,frontFoyer4.jpg,elevatorOutside1.jpg,dock2.jpg,,
Image_List_4,,,,,,,,,,,,,,,,44421,2020-11-23_17h29.18.772,lingCatScenes,2020.1.3,Win32,60,"[1536,864]",,,"[""trial_sharp_right_box""]",,,,,,,,,,,,dentist4.jpg,space,2.529,"[0.5833333552711539,0.6101853205511985]","[-0.334259271690691,-0.31111112319760853]","[1,1]","[0,0]","[0,0]","[1.8337149999570101,2.383634999860078]","[""trial_sharp_right_box""]",0,74,74,32,1,dancestudio6.jpg,diner12.jpg,constructionSite2.jpg,cabin4.jpg,,
Image_List_4,,,,,,,,,,,,,,,,44421,2020-11-23_17h29.18.772,lingCatScenes,2020.1.3,Win32,60,"[1536,864]",,,"[""trial_sharp_right_box"",""trial_sharp_left_box""]",,,,,,,,,,,,bleachers7.jpg,space,3.063775,"[0.608333355643683,-0.584259254719924]","[-0.29907408598120566,-0.2898148265839727]","[1,1]","[0,0]","[0,0]","[1.3155499999411404,2.8702999998349696]","[""trial_sharp_right_box"",""trial_sharp_left_box""]",0,75,75,12,1,baggageClaim4.jpg,bedroom6.jpg,bambooforest5.jpg,backyard5.jpg,,
Image_List_4,,,,,,,,,,,,,,,,44421,2020-11-23_17h29.18.772,lingCatScenes,2020.1.3,Win32,60,"[1536,864]",,,"[""trial_ahead_box""]",,,,,,,,,,,,castle2.jpg,space,1.655255,[-0.00462961645313987],[-0.30000001192092896],[1],[0],[0],[1.5335750000085682],"[""trial_ahead_box""]",0,76,76,18,1,bleachers5.jpg,casino1.jpg,brewery4.jpg,basement6.jpg,,
Image_List_4,,,,,,,,,,,,,,,,44421,2020-11-23_17h29.18.772,lingCatScenes,2020.1.3,Win32,60,"[1536,864]",,,"[""trial_ahead_box""]",,,,,,,,,,,,drymountains5.jpg,space,0.75023,[-0.00462961645313987],[-0.30000001192092896],[1],[0],[0],[0.6094899999443442],"[""trial_ahead_box""]",0,77,77,39,1,driveway6.jpg,eyeglassstore9.jpg,drycleaners6.jpg,cliff5.jpg,,
Image_List_4,,,,,,,,,,,,,,,,44421,2020-11-23_17h29.18.772,lingCatScenes,2020.1.3,Win32,60,"[1536,864]",,,"[""trial_slight_right_box"",""trial_sharp_left_box""]",,,,,,,,,,,,winebarrel4.jpg,space,2.756995,"[0.21018520156266512,-0.5888888844185405]","[-0.30185186380037554,-0.2861111228250795]","[1,1]","[0,0]","[0,0]","[1.610185000114143,2.592835000017658]","[""trial_slight_right_box"",""trial_sharp_left_box""]",0,78,78,98,1,weightroom5.jpg,wineVineyard8.jpg,warehouse3.jpg,winebarrel2.jpg,,
Image_List_4,,,,,,,,,,,,,,,,44421,2020-11-23_17h29.18.772,lingCatScenes,2020.1.3,Win32,60,"[1536,864]",,,"[""trial_right_box"",""trial_left_box""]",,,,,,,,,,,,apartmentBuilding4.jpg,space,4.314085,"[0.38333346531899054,-0.3981481408355413]","[-0.3148148269565017,-0.2953703822223125]","[1,1]","[0,0]","[0,0]","[3.2155349999666214,4.182365000015125]","[""trial_right_box"",""trial_left_box""]",0,79,79,2,1,alley1.jpg,arcade1.jpg,applestore6.jpg,airportTerminal6.jpg,,
Image_List_4,,,,,,,,,,,,,,,,44421,2020-11-23_17h29.18.772,lingCatScenes,2020.1.3,Win32,60,"[1536,864]",,,"[""trial_sharp_left_box""]",,,,,,,,,,,,liquorstore.jpg,space,2.332325,[-0.5981481438157735],[-0.29814821655551677],[1],[0],[0],[2.1723400000482798],"[""trial_sharp_left_box""]",0,80,80,66,1,library_aisle10.jpg,office3.jpg,laundromat3.jpg,horsebarn9.jpg,,
Image_List_4,,,,,,,,,,,,,,,,44421,2020-11-23_17h29.18.772,lingCatScenes,2020.1.3,Win32,60,"[1536,864]",,,"[""trial_ahead_box""]",,,,,,,,,,,,pavilion3.jpg,space,2.3324,"[0.03240742113579203,-0.011111098031202951]","[-0.27962969776105084,-0.30000001192092896]","[1,1]","[0,0]","[0,0]","[1.441859999904409,2.1917849997989833]","[""trial_ahead_box""]",0,81,81,78,1,parkinglot3.jpg,poolhall1.jpg,pier5.jpg,observatory1.jpg,,
Image_List_4,,,,,,,,,,,,,,,,44421,2020-11-23_17h29.18.772,lingCatScenes,2020.1.3,Win32,60,"[1536,864]",,,"[""trial_slight_right_box""]",,,,,,,,,,,,park.jpg,space,1.6157,[0.20555557186404863],[-0.2972222341017591],[1],[0],[0],[1.4813950001262128],"[""trial_slight_right_box""]",0,82,82,75,1,pantry5.jpg,playground6.jpg,operatingroom4.jpg,lockerroom.jpg,,
Image_List_4,,,,,,,,,,,,,,,,44421,2020-11-23_17h29.18.772,lingCatScenes,2020.1.3,Win32,60,"[1536,864]",,,"[""trial_slight_right_box""]",,,,,,,,,,,,restaurant8.jpg,space,1.082785,[0.20555557186404863],[-0.2972222341017591],[1],[0],[0],[0.9258250000420958],"[""trial_slight_right_box""]",0,83,83,83,1,readingroom1.jpg,sculpturegarden1.jpg,promenadeDeck6.jpg,readingroom2.jpg,,
Image_List_4,,,,,,,,,,,,,,,,44421,2020-11-23_17h29.18.772,lingCatScenes,2020.1.3,Win32,60,"[1536,864]",,,"[""trial_ahead_box""]",,,,,,,,,,,,minigolf8.jpg,space,2.571195,[-0.0037036905134165726],[-0.31111112319760853],[1],[0],[0],[2.4261400001123548],"[""trial_ahead_box""]",0,84,84,70,1,lockerroom4.jpg,pavilion.jpg,lockerroom3.jpg,igloo.jpg,,
Image_List_4,,,,,,,,,,,,,,,,44421,2020-11-23_17h29.18.772,lingCatScenes,2020.1.3,Win32,60,"[1536,864]",,,"[""trial_left_box""]",,,,,,,,,,,,dugout1.jpg,space,2.725515,[-0.3990740667752646],[-0.2972222341017591],[1],[0],[0],[2.592655000044033],"[""trial_left_box""]",0,85,85,40,1,drycleaners4.jpg,farm1.jpg,drymountains.jpg,clothingstore3.jpg,,
Image_List_4,,,,,,,,,,,,,,,,44421,2020-11-23_17h29.18.772,lingCatScenes,2020.1.3,Win32,60,"[1536,864]",,,"[""trial_left_box""]",,,,,,,,,,,,appleorchard2.jpg,space,1.750595,[-0.3898148073780316],[-0.30092593786065225],[1],[0],[0],[1.601194999879226],"[""trial_left_box""]",0,86,86,3,1,apartmentBuilding2.jpg,attic1.jpg,aquarium1.jpg,alley3.jpg,,
Image_List_4,,,,,,,,,,,,,,,,44421,2020-11-23_17h29.18.772,lingCatScenes,2020.1.3,Win32,60,"[1536,864]",,,"[""trial_ahead_box""]",,,,,,,,,,,,sculpturegarden2.jpg,space,1.642865,[0.018518532039942564],[-0.3138889010167784],[1],[0],[0],[1.500715000089258],"[""trial_ahead_box""]",0,87,87,87,1,restaurantkitchen2.jpg,theater2.jpg,savanna.jpg,RVinside2.jpg,,
Image_List_4,,,,,,,,,,,,,,,,44421,2020-11-23_17h29.18.772,lingCatScenes,2020.1.3,Win32,60,"[1536,864]",,,"[""trial_slight_right_box""]",,,,,,,,,,,,boardwalk4.jpg,space,1.498355,[0.19814816434626226],[-0.2944444562825892],[1],[0],[0],[1.3498200001195073],"[""trial_slight_right_box""]",0,88,88,13,1,balconyIN2.jpg,bowlingalley3.jpg,beach2.jpg,backyard6.jpg,,
Image_List_4,,,,,,,,,,,,,,,,44421,2020-11-23_17h29.18.772,lingCatScenes,2020.1.3,Win32,60,"[1536,864]",,,"[""trial_ahead_box""]",,,,,,,,,,,,cemetery3.jpg,space,1.329875,[0.010185198582432888],[-0.2851851968853562],[1],[0],[0],[1.2165649998933077],"[""trial_ahead_box""]",0,89,89,23,1,bus_shelter.jpg,church8.jpg,carmechanic4.jpeg,bleachers6.jpg,,
Image_List_4,,,,,,,,,,,,,,,,44421,2020-11-23_17h29.18.772,lingCatScenes,2020.1.3,Win32,60,"[1536,864]",,,"[""trial_sharp_right_box"",""trial_sharp_left_box""]",,,,,,,,,,,,weightroom4.jpg,space,3.356115,"[0.6092592815834063,-0.5925925881774338]","[-0.2944444562825892,-0.2944444562825892]","[1,1]","[0,0]","[0,0]","[2.124885000055656,3.180485000135377]","[""trial_sharp_right_box"",""trial_sharp_left_box""]",0,90,90,95,1,waitingroom2.jpg,warehouse2.jpg,stripmall6.jpg,tvstudio3.jpg,,
Image_List_4,,,,,,,,,,,,,,,,44421,2020-11-23_17h29.18.772,lingCatScenes,2020.1.3,Win32,60,"[1536,864]",,,"[""trial_slight_right_box""]",,,,,,,,,,,,diner10.jpg,space,1.433195,[0.19444446058736908],[-0.2842593274596673],[1],[0],[0],[1.295780000044033],"[""trial_slight_right_box""]",0,91,91,33,1,deck1.jpg,diningroom1.jpg,courthouse2.jpg,cabinIndoors5.jpg,,
Image_List_4,,,,,,,,,,,,,,,,44421,2020-11-23_17h29.18.772,lingCatScenes,2020.1.3,Win32,60,"[1536,864]",,,[],,,,,,,,,,,,sandDunes_desert_outdoor8.jpg,space,1.29476,[],[],[],[],[],[],[],0,92,92,86,1,restaurant14.jpg,stripmall.jpg,ruralroad3.jpg,rooftop4.jpg,,
Image_List_4,,,,,,,,,,,,,,,,44421,2020-11-23_17h29.18.772,lingCatScenes,2020.1.3,Win32,60,"[1536,864]",,,"[""trial_slight_right_box""]",,,,,,,,,,,,clothingstore5.jpg,space,1.58956,[0.20925927562294183],[-0.30000001192092896],[1],[0],[0],[1.4622700000181794],"[""trial_slight_right_box""]",0,93,93,28,1,churchInside1.jpg,dancestudio5.jpg,citystreet10.jpg,bridalboutique2.jpg,,
Image_List_4,,,,,,,,,,,,,,,,44421,2020-11-23_17h29.18.772,lingCatScenes,2020.1.3,Win32,60,"[1536,864]",,,"[""trial_sharp_left_box""]",,,,,,,,,,,,botanicalGarden5.jpg,space,3.23153,[-0.6101851810321763],[-0.31666673534998274],[1],[0],[0],[3.0694249998778105],"[""trial_sharp_left_box""]",0,94,94,14,1,ballroom1.jpg,breakroom5.jpg,bistrooutdoor5.jpg,ballroom3.jpg,,
Image_List_4,,,,,,,,,,,,,,,,44421,2020-11-23_17h29.18.772,lingCatScenes,2020.1.3,Win32,60,"[1536,864]",,,"[""trial_sharp_left_box"",""trial_sharp_right_box""]",,,,,,,,,,,,kindergarten_classroom7.jpg,space,3.681,"[0.608333355643683,-0.60277777351439,0.608333355643683]","[-0.27407408560867663,-0.29814821655551677,-0.2888889571582838]","[1,1,1]","[0,0,0]","[0,0,0]","[1.4603550001047552,2.5842699999921024,3.5339399999938905]","[""trial_sharp_left_box"",""trial_sharp_right_box""]",0,95,95,61,1,HorseRaceTrack.jpg,metroInside4.jpg,homegarden6.jpg,hayfield6.jpg,,
Image_List_4,,,,,,,,,,,,,,,,44421,2020-11-23_17h29.18.772,lingCatScenes,2020.1.3,Win32,60,"[1536,864]",,,"[""trial_ahead_box""]",,,,,,,,,,,,park2.jpg,space,1.452525,[0.014814828281049375],[-0.30370371567982213],[1],[0],[0],[1.3905200001318008],"[""trial_ahead_box""]",0,96,96,76,1,parkinggarage.jpg,playroom4.jpg,parkinggarage3.jpg,lookout4.jpg,,
Image_List_4,,,,,,,,,,,,,,,,44421,2020-11-23_17h29.18.772,lingCatScenes,2020.1.3,Win32,60,"[1536,864]",,,[],,,,,,,,,,,,homegarage3.jpg,space,0.738585,[0.014814828281049375],[-0.30370371567982213],[1],[0],[0],[0.5831550001166761],"[""trial_ahead_box""]",0,97,97,53,1,gazebo3.jpg,homeoffice.jpg,frontLawn3.jpg,fountain.jpg,,
Image_List_4,,,,,,,,,,,,,,,,44421,2020-11-23_17h29.18.772,lingCatScenes,2020.1.3,Win32,60,"[1536,864]",,,"[""trial_right_box"",""trial_left_box""]",,,,,,,,,,,,baggageClaim3.jpg,space,4.07192,"[0.40925927860317407,-0.39629628895609464]","[-0.2953703822223125,-0.29259260440314255]","[1,1]","[0,0]","[0,0]","[2.7810699997935444,3.9231249999720603]","[""trial_right_box"",""trial_left_box""]",0,98,98,7,1,attic2.jpg,banquetHall4.jpg,backstage1.jpg,applestore2.jpg,,
Image_List_4,,,,,,,,,,,,,,,,44421,2020-11-23_17h29.18.772,lingCatScenes,2020.1.3,Win32,60,"[1536,864]",,,"[""trial_ahead_box""]",,,,,,,,,,,,farm4.jpg,space,1.522205,[-0.021296226854124817],[-0.3046296416195454],[1],[0],[0],[1.3571000001393259],"[""trial_ahead_box""]",0,99,99,42,1,exerciseequipment3.jpg,firestation3.jpg,drymountains6.jpg,desertvegetation2.jpg,,
Image_List_4,,,,,,,,,,,,,,,,44421,2020-11-23_17h29.18.772,lingCatScenes,2020.1.3,Win32,60,,,,,,,,,,,,,,,,,,,,,,,,,,,,,,,,,,,space,15.67202
