image_list,key_resp_intructions.keys,key_resp_intructions.rt,key_resp_intructions_3.keys,key_resp_intructions_3.rt,PracticeComplete_2.keys,PracticeComplete_2.rt,PracticeComplete_3.keys,PracticeComplete_3.rt,demo_trials.thisRepN,demo_trials.thisTrialN,demo_trials.thisN,demo_trials.thisIndex,demo_trials.ran,demo_images,path_images,participant,date,expName,psychopyVersion,OS,frameRate,windowSize,practice_complete.keys,practice_complete.rt,boxes_checked,PracticeComplete.keys,PracticeComplete.rt,practice_trials.thisRepN,practice_trials.thisTrialN,practice_trials.thisN,practice_trials.thisIndex,practice_trials.ran,practice_images,feedback_images,key_resp_intructions_2.keys,key_resp_intructions_2.rt,Image_List_2,trial_complete.keys,trial_complete.rt,trial_mouse.x,trial_mouse.y,trial_mouse.leftButton,trial_mouse.midButton,trial_mouse.rightButton,trial_mouse.time,trial_mouse.clicked_name,trials.thisRepN,trials.thisTrialN,trials.thisN,trials.thisIndex,trials.ran,Image_List_1,Image_List_3,Image_List_4,Image_List_5,key_resp.keys,key_resp.rt
Image_List_2,space,8.30669,space,6.09999,space,16.433515,space,7.865715,0,0,0,2,1,ahead_right.jpg,ahead_right_path.jpg,44474,2020-11-10_18h51.32.615,lingCatScenes,2020.1.3,Win32,60,,,,,,,,,,,,,,,,,,,,,,,,,,,,,,,,,,,,
Image_List_2,,,,,space,1.887935,space,4.140425,0,1,1,4,1,left.jpg,left_path.jpg,44474,2020-11-10_18h51.32.615,lingCatScenes,2020.1.3,Win32,60,,,,,,,,,,,,,,,,,,,,,,,,,,,,,,,,,,,,
Image_List_2,,,,,space,1.107685,space,0.62658,0,2,2,0,1,ahead.jpg,ahead_path.jpg,44474,2020-11-10_18h51.32.615,lingCatScenes,2020.1.3,Win32,60,,,,,,,,,,,,,,,,,,,,,,,,,,,,,,,,,,,,
Image_List_2,,,,,space,1.357235,space,2.61003,0,3,3,3,1,ahead_right_left.jpg,ahead_right_left_path.jpg,44474,2020-11-10_18h51.32.615,lingCatScenes,2020.1.3,Win32,60,,,,,,,,,,,,,,,,,,,,,,,,,,,,,,,,,,,,
Image_List_2,,,,,space,1.86593,space,1.51431,0,4,4,5,1,right.jpg,right_path.jpg,44474,2020-11-10_18h51.32.615,lingCatScenes,2020.1.3,Win32,60,,,,,,,,,,,,,,,,,,,,,,,,,,,,,,,,,,,,
Image_List_2,,,,,space,6.27471,space,1.568485,0,5,5,1,1,ahead_left.jpg,ahead_left_path.jpg,44474,2020-11-10_18h51.32.615,lingCatScenes,2020.1.3,Win32,60,,,,,,,,,,,,,,,,,,,,,,,,,,,,,,,,,,,,
Image_List_2,,,,,space,2.28266,space,2.9522,0,6,6,6,1,right_left.jpg,right_left_path.jpg,44474,2020-11-10_18h51.32.615,lingCatScenes,2020.1.3,Win32,60,,,,,,,,,,,,,,,,,,,,,,,,,,,,,,,,,,,,
Image_List_2,,,,,,,,,,,,,,,,44474,2020-11-10_18h51.32.615,lingCatScenes,2020.1.3,Win32,60,"[1368,912]",space,9.130895,"[""ahead_box"",""sharp_right_box""]",space,2.02051,0,0,0,2,1,ahead_right_2.jpg,ahead_right_2_path.jpg,,,,,,,,,,,,,,,,,,,,,,,
Image_List_2,,,,,,,,,,,,,,,,44474,2020-11-10_18h51.32.615,lingCatScenes,2020.1.3,Win32,60,"[1368,912]",space,5.2081,"[""left_box""]",space,0.737495,0,1,1,4,1,left_2.jpg,left_2_path.jpg,,,,,,,,,,,,,,,,,,,,,,,
Image_List_2,,,,,,,,,,,,,,,,44474,2020-11-10_18h51.32.615,lingCatScenes,2020.1.3,Win32,60,"[1368,912]",space,9.407325,"[""ahead_box"",""sharp_left_box"",""right_box""]",space,4.508275,0,2,2,3,1,ahead_right_left_2.jpg,ahead_right_left_2_path.jpg,,,,,,,,,,,,,,,,,,,,,,,
Image_List_2,,,,,,,,,,,,,,,,44474,2020-11-10_18h51.32.615,lingCatScenes,2020.1.3,Win32,60,"[1368,912]",space,2.353805,"[""right_box""]",space,0.89435,0,3,3,5,1,right_2.jpg,right_2_path.jpg,,,,,,,,,,,,,,,,,,,,,,,
Image_List_2,,,,,,,,,,,,,,,,44474,2020-11-10_18h51.32.615,lingCatScenes,2020.1.3,Win32,60,"[1368,912]",space,4.27675,"[""slight_right_box"",""ahead_box""]",space,1.86853,0,4,4,1,1,ahead_left_2.jpg,ahead_left_2_path.jpg,,,,,,,,,,,,,,,,,,,,,,,
Image_List_2,,,,,,,,,,,,,,,,44474,2020-11-10_18h51.32.615,lingCatScenes,2020.1.3,Win32,60,"[1368,912]",space,2.858025,"[""ahead_box""]",space,0.555805,0,5,5,0,1,ahead_2.jpg,ahead_2_path.jpg,,,,,,,,,,,,,,,,,,,,,,,
Image_List_2,,,,,,,,,,,,,,,,44474,2020-11-10_18h51.32.615,lingCatScenes,2020.1.3,Win32,60,"[1368,912]",space,5.047275,"[""right_box"",""left_box""]",space,2.27244,0,6,6,6,1,right_left_2.jpg,right_left_2_path.jpg,,,,,,,,,,,,,,,,,,,,,,,
Image_List_2,,,,,,,,,,,,,,,,44474,2020-11-10_18h51.32.615,lingCatScenes,2020.1.3,Win32,60,"[1368,912]",,,"[""trial_left_box""]",,,,,,,,,,space,4.92387,wineVineyard2.jpg,space,4.205975,[-0.4018640350877193],[-0.2944078947368421],[1],[0],[0],[3.480244999998831],"[""trial_left_box""]",0,0,0,97,1,warehouseoutside4.jpg,waitingroom4.jpg,winebarrel3.jpg,warehouseoutside3.jpg,,
Image_List_2,,,,,,,,,,,,,,,,44474,2020-11-10_18h51.32.615,lingCatScenes,2020.1.3,Win32,60,"[1368,912]",,,"[""trial_right_box"",""trial_sharp_left_box""]",,,,,,,,,,,,warehouseoutside1.jpg,space,5.756145,"[0.40789473684210525,-0.6255482456140351,-0.5816885964912281]","[-0.29385964912280704,-0.30646929824561403,-0.3042763157894737]","[1,1,1]","[0,0,0]","[0,0,0]","[2.6744550000003073,4.342339999999183,5.2428800000015485]","[""trial_right_box"",""trial_sharp_left_box""]",0,1,1,96,1,warehouse4.jpg,tenniscourt3.jpg,windmill1.jpg,warehouse1.jpg,,
Image_List_2,,,,,,,,,,,,,,,,44474,2020-11-10_18h51.32.615,lingCatScenes,2020.1.3,Win32,60,"[1368,912]",,,"[""trial_ahead_box""]",,,,,,,,,,,,hotelRoom3.jpg,space,4.07366,[-0.011513157894736841],[-0.3092105263157895],[1],[0],[0],[3.1447000000006824],"[""trial_ahead_box""]",0,2,2,55,1,greenmountains.jpg,gazebo5.jpg,hotelRoom7.jpg,frontLawn2.jpg,,
Image_List_2,,,,,,,,,,,,,,,,44474,2020-11-10_18h51.32.615,lingCatScenes,2020.1.3,Win32,60,"[1368,912]",,,"[""trial_ahead_box"",""trial_sharp_right_box""]",,,,,,,,,,,,sidewalk2.jpg,space,4.14988,"[0.001644736842105263,0.6047149122807017]","[-0.30098684210526316,-0.2982456140350877]","[1,1]","[0,0]","[0,0]","[1.3273749999971756,3.395569999997008]","[""trial_ahead_box"",""trial_sharp_right_box""]",0,3,3,84,1,readingroom5.jpg,restaurant13.jpg,sandDunes_desert_outdoor.jpg,rooftop2.jpg,,
Image_List_2,,,,,,,,,,,,,,,,44474,2020-11-10_18h51.32.615,lingCatScenes,2020.1.3,Win32,60,"[1368,912]",,,"[""trial_ahead_box""]",,,,,,,,,,,,barbershop3.jpg,space,1.82223,[-0.007675438596491228],[-0.3092105263157895],[1],[0],[0],[1.22725999999966],"[""trial_ahead_box""]",0,4,4,10,1,backstage2.jpg,ballroom4.jpg,basketballcourt3.jpg,ATM4.jpg,,
Image_List_2,,,,,,,,,,,,,,,,44474,2020-11-10_18h51.32.615,lingCatScenes,2020.1.3,Win32,60,"[1368,912]",,,"[""trial_sharp_left_box""]",,,,,,,,,,,,cafeteria6.jpg,space,2.871655,[-0.6228070175438597],[-0.2955043859649123],[1],[0],[0],[2.544950000003155],"[""trial_sharp_left_box""]",0,5,5,16,1,basement.jpg,breakroom2.jpg,campusquad4.jpg,barbershop2.jpg,,
Image_List_2,,,,,,,,,,,,,,,,44474,2020-11-10_18h51.32.615,lingCatScenes,2020.1.3,Win32,60,"[1368,912]",,,"[""trial_sharp_left_box""]",,,,,,,,,,,,breakroom5.jpg,space,2.050605,[-0.5844298245614035],[-0.29989035087719296],[1],[0],[0],[1.7603549999985262],"[""trial_sharp_left_box""]",0,6,6,14,1,ballroom1.jpg,bistrooutdoor5.jpg,botanicalGarden5.jpg,ballroom3.jpg,,
Image_List_2,,,,,,,,,,,,,,,,44474,2020-11-10_18h51.32.615,lingCatScenes,2020.1.3,Win32,60,"[1368,912]",,,"[""trial_ahead_box""]",,,,,,,,,,,,pharmacy4.jpg,space,1.15105,[0.003289473684210526],[-0.2878289473684211],[1],[0],[0],[0.9586799999997879],"[""trial_ahead_box""]",0,7,7,72,1,museum5.jpg,musicStore1.jpg,museum4.jpg,kindergarten_classroom.jpg,,
Image_List_2,,,,,,,,,,,,,,,,44474,2020-11-10_18h51.32.615,lingCatScenes,2020.1.3,Win32,60,"[1368,912]",,,"[""trial_slight_right_box"",""trial_left_box""]",,,,,,,,,,,,homeoffice.jpg,space,3.78904,"[0.19956140350877194,-0.4029605263157895]","[-0.29221491228070173,-0.30043859649122806]","[1,1]","[0,0]","[0,0]","[2.292205000001502,3.1594250000015904]","[""trial_slight_right_box"",""trial_left_box""]",0,8,8,53,1,gazebo3.jpg,frontLawn3.jpg,homegarage3.jpg,fountain.jpg,,
Image_List_2,,,,,,,,,,,,,,,,44474,2020-11-10_18h51.32.615,lingCatScenes,2020.1.3,Win32,60,"[1368,912]",,,"[""trial_ahead_box"",""trial_sharp_left_box""]",,,,,,,,,,,,campsite6.jpg,space,3.68252,"[0.007675438596491228,-0.5932017543859649]","[-0.3048245614035088,-0.29714912280701755]","[1,1]","[0,0]","[0,0]","[1.9945200000001932,2.678575000001672]","[""trial_ahead_box"",""trial_sharp_left_box""]",0,9,9,17,1,bikerack1.jpg,breakroom4.jpg,carmechanic.jpg,baseball6.jpg,,
Image_List_2,,,,,,,,,,,,,,,,44474,2020-11-10_18h51.32.615,lingCatScenes,2020.1.3,Win32,60,"[1368,912]",,,"[""trial_ahead_box""]",,,,,,,,,,,,frontLawn5.jpg,space,1.303035,[0.0027412280701754384],[-0.2911184210526316],[1],[0],[0],[1.0768349999998463],"[""trial_ahead_box""]",0,10,10,46,1,flowershop.jpg,farmersmarket4.jpg,fountain4.jpg,dormroom6.jpg,,
Image_List_2,,,,,,,,,,,,,,,,44474,2020-11-10_18h51.32.615,lingCatScenes,2020.1.3,Win32,60,"[1368,912]",,,"[""trial_left_box"",""trial_sharp_left_box""]",,,,,,,,,,,,jail1.jpg,space,2.595045,"[-0.3930921052631579,-0.6173245614035088]","[-0.30646929824561403,-0.2949561403508772]","[1,1]","[0,0]","[0,0]","[1.490845000000263,2.3755799999999]","[""trial_left_box"",""trial_sharp_left_box""]",0,11,11,57,1,hayfield5.jpg,hallway4.jpg,hut5.jpg,gazebo.jpg,,
Image_List_2,,,,,,,,,,,,,,,,44474,2020-11-10_18h51.32.615,lingCatScenes,2020.1.3,Win32,60,"[1368,912]",,,"[""trial_ahead_box"",""trial_sharp_right_box"",""trial_sharp_left_box""]",,,,,,,,,,,,apartmentBuilding1.jpg,space,5.732275,"[-0.003837719298245614,0.6101973684210527,-0.5899122807017544]","[-0.30043859649122806,-0.29331140350877194,-0.3081140350877193]","[1,1,1]","[0,0,0]","[0,0,0]","[3.1260199999997553,3.9601949999996577,4.860844999999188]","[""trial_ahead_box"",""trial_sharp_right_box"",""trial_sharp_left_box""]",0,12,12,1,1,airportTerminal4.jpg,applestore1.jpg,airportTerminal3.jpg,airportTerminal2.jpg,,
Image_List_2,,,,,,,,,,,,,,,,44474,2020-11-10_18h51.32.615,lingCatScenes,2020.1.3,Win32,60,"[1368,912]",,,"[""trial_ahead_box""]",,,,,,,,,,,,lightingstore3.jpg,space,1.30124,[0.0021929824561403508],[-0.2993421052631579],[1],[0],[0],[1.1926149999999325],"[""trial_ahead_box""]",0,13,13,60,1,hometheater2.jpg,homegarage.jpg,kindergarten_classroom6.jpg,hallway.jpg,,
Image_List_2,,,,,,,,,,,,,,,,44474,2020-11-10_18h51.32.615,lingCatScenes,2020.1.3,Win32,60,"[1368,912]",,,"[""trial_ahead_box"",""trial_sharp_left_box"",""trial_right_box""]",,,,,,,,,,,,poolhall1.jpg,space,4.730525,"[0.00932017543859649,-0.6074561403508771,0.3991228070175439]","[-0.30098684210526316,-0.29769736842105265,-0.29276315789473684]","[1,1,1]","[0,0,0]","[0,0,0]","[1.543034999998838,3.1445050000002652,4.112054999997895]","[""trial_ahead_box"",""trial_sharp_left_box"",""trial_right_box""]",0,14,14,78,1,parkinglot3.jpg,pier5.jpg,pavilion3.jpg,observatory1.jpg,,
Image_List_2,,,,,,,,,,,,,,,,44474,2020-11-10_18h51.32.615,lingCatScenes,2020.1.3,Win32,60,"[1368,912]",,,"[""trial_sharp_left_box"",""trial_sharp_right_box""]",,,,,,,,,,,,diningroom1.jpg,space,3.519415,"[-0.5888157894736842,0.606359649122807]","[-0.3059210526315789,-0.29769736842105265]","[1,1]","[0,0]","[0,0]","[2.544805000001304,3.228465000000142]","[""trial_sharp_left_box"",""trial_sharp_right_box""]",0,15,15,33,1,deck1.jpg,courthouse2.jpg,diner10.jpg,cabinIndoors5.jpg,,
Image_List_2,,,,,,,,,,,,,,,,44474,2020-11-10_18h51.32.615,lingCatScenes,2020.1.3,Win32,60,"[1368,912]",,,"[""trial_ahead_box"",""trial_sharp_left_box"",""trial_sharp_right_box""]",,,,,,,,,,,,gasstation8.jpg,space,3.66878,"[0.003837719298245614,-0.5910087719298246,0.6217105263157895]","[-0.30701754385964913,-0.3020833333333333,-0.3048245614035088]","[1,1,1]","[0,0,0]","[0,0,0]","[1.3101449999995225,2.6276050000014948,3.478305000000603]","[""trial_ahead_box"",""trial_sharp_left_box"",""trial_sharp_right_box""]",0,16,16,47,1,frontDoor.jpg,firestation4.jpg,fountain7.jpg,elevatorOutside2.jpg,,
Image_List_2,,,,,,,,,,,,,,,,44474,2020-11-10_18h51.32.615,lingCatScenes,2020.1.3,Win32,60,"[1368,912]",,,"[""trial_ahead_box"",""trial_sharp_right_box""]",,,,,,,,,,,,casino1.jpg,space,4.65112,"[0.005482456140350877,0.625,0.5718201754385965,0.5789473684210527]","[-0.2993421052631579,-0.29989035087719296,-0.29002192982456143,-0.2889254385964912]","[1,1,1,1]","[0,0,0,0]","[0,0,0,0]","[2.0938249999998675,2.894509999998263,3.9951450000006616,4.36216499999864]","[""trial_ahead_box"",""trial_sharp_right_box""]",0,17,17,18,1,bleachers5.jpg,brewery4.jpg,castle2.jpg,basement6.jpg,,
Image_List_2,,,,,,,,,,,,,,,,44474,2020-11-10_18h51.32.615,lingCatScenes,2020.1.3,Win32,60,"[1368,912]",,,"[""trial_sharp_left_box"",""trial_sharp_right_box""]",,,,,,,,,,,,farm3.jpg,space,3.13765,"[-0.5932017543859649,0.6052631578947368]","[-0.2916666666666667,-0.30646929824561403]","[1,1]","[0,0]","[0,0]","[1.9940700000006473,2.844375000000582]","[""trial_sharp_left_box"",""trial_sharp_right_box""]",0,18,18,41,1,dugout4.jpg,drymountains3.jpg,fabricstore1.jpg,dentist2.jpg,,
Image_List_2,,,,,,,,,,,,,,,,44474,2020-11-10_18h51.32.615,lingCatScenes,2020.1.3,Win32,60,"[1368,912]",,,"[""trial_slight_left_box""]",,,,,,,,,,,,office3.jpg,space,4.585,[-0.19462719298245615],[-0.29769736842105265],[1],[0],[0],[4.012125000001106],"[""trial_slight_left_box""]",0,19,19,66,1,library_aisle10.jpg,laundromat3.jpg,liquorstore.jpg,horsebarn9.jpg,,
Image_List_2,,,,,,,,,,,,,,,,44474,2020-11-10_18h51.32.615,lingCatScenes,2020.1.3,Win32,60,"[1368,912]",,,"[""trial_left_box""]",,,,,,,,,,,,banquetHall4.jpg,space,3.35853,[-0.41776315789473684],[-0.31359649122807015],[1],[0],[0],[1.4769450000021607],"[""trial_left_box""]",0,20,20,7,1,attic2.jpg,backstage1.jpg,baggageClaim3.jpg,applestore2.jpg,,
Image_List_2,,,,,,,,,,,,,,,,44474,2020-11-10_18h51.32.615,lingCatScenes,2020.1.3,Win32,60,"[1368,912]",,,"[""trial_left_box"",""trial_right_box""]",,,,,,,,,,,,sculpturegarden1.jpg,space,5.685075,"[-0.41173245614035087,0.37774122807017546]","[-0.2955043859649123,-0.3020833333333333]","[1,1]","[0,0]","[0,0]","[4.379000000000815,5.46368000000075]","[""trial_left_box"",""trial_right_box""]",0,21,21,83,1,readingroom1.jpg,promenadeDeck6.jpg,restaurant8.jpg,readingroom2.jpg,,
Image_List_2,,,,,,,,,,,,,,,,44474,2020-11-10_18h51.32.615,lingCatScenes,2020.1.3,Win32,60,"[1368,912]",,,"[""trial_sharp_left_box""]",,,,,,,,,,,,diner12.jpg,space,1.44789,[-0.5975877192982456],[-0.2878289473684211],[1],[0],[0],[1.2927899999995134],"[""trial_sharp_left_box""]",0,22,22,32,1,dancestudio6.jpg,constructionSite2.jpg,dentist4.jpg,cabin4.jpg,,
Image_List_2,,,,,,,,,,,,,,,,44474,2020-11-10_18h51.32.615,lingCatScenes,2020.1.3,Win32,60,"[1368,912]",,,"[""trial_ahead_box"",""trial_sharp_left_box"",""trial_right_box""]",,,,,,,,,,,,driveway4.jpg,space,4.43254,"[0.0021929824561403508,-0.5822368421052632,0.40405701754385964]","[-0.2944078947368421,-0.30043859649122806,-0.31030701754385964]","[1,1,1]","[0,0,0]","[0,0,0]","[2.2429750000010245,3.4604749999998603,4.260859999998559]","[""trial_ahead_box"",""trial_sharp_left_box"",""trial_right_box""]",0,23,23,37,1,dining_car.jpg,dinosaur4.jpg,driveway7.jpg,citystreet9.jpg,,
Image_List_2,,,,,,,,,,,,,,,,44474,2020-11-10_18h51.32.615,lingCatScenes,2020.1.3,Win32,60,"[1368,912]",,,"[""trial_ahead_box""]",,,,,,,,,,,,cornfield4.jpg,space,1.280625,[-0.00712719298245614],[-0.3081140350877193],[1],[0],[0],[1.1736799999998766],"[""trial_ahead_box""]",0,24,24,26,1,campusquad2.jpg,church4.jpg,churchInside3.jpg,botanicalGarden7.jpg,,
Image_List_2,,,,,,,,,,,,,,,,44474,2020-11-10_18h51.32.615,lingCatScenes,2020.1.3,Win32,60,"[1368,912]",,,"[""trial_left_box""]",,,,,,,,,,,,ruralroad5.jpg,space,2.69104,[-0.3969298245614035],[-0.3020833333333333],[1],[0],[0],[2.444295000001034],"[""trial_left_box""]",0,25,25,81,1,promenadeDeck.jpg,promenadeDeck2.jpg,rainforest5.jpg,pasture8.jpg,,
Image_List_2,,,,,,,,,,,,,,,,44474,2020-11-10_18h51.32.615,lingCatScenes,2020.1.3,Win32,60,"[1368,912]",,,"[""trial_ahead_box""]",,,,,,,,,,,,trainStation1.jpg,space,2.30029,[0.014802631578947368],[-0.3086622807017544],[1],[0],[0],[2.041349999999511],"[""trial_ahead_box""]",0,26,26,90,1,savanna5.jpg,sidewalk1.jpg,stripmall3.jpg,shoestore4.jpg,,
Image_List_2,,,,,,,,,,,,,,,,44474,2020-11-10_18h51.32.615,lingCatScenes,2020.1.3,Win32,60,"[1368,912]",,,"[""trial_left_box"",""trial_right_box""]",,,,,,,,,,,,newsstand5.jpg,space,2.719295,"[-0.3985745614035088,0.40021929824561403]","[-0.30701754385964913,-0.2845394736842105]","[1,1]","[0,0]","[0,0]","[1.9274150000018722,2.511200000000713]","[""trial_left_box"",""trial_right_box""]",0,27,27,64,1,igloo2.jpg,jewelrystore8.jpg,lab5.jpg,homegarage2.jpg,,
Image_List_2,,,,,,,,,,,,,,,,44474,2020-11-10_18h51.32.615,lingCatScenes,2020.1.3,Win32,60,"[1368,912]",,,"[""trial_right_box""]",,,,,,,,,,,,cafeteria5.jpg,space,2.88476,[0.40899122807017546],[-0.3031798245614035],[1],[0],[0],[2.3274700000002326],"[""trial_right_box""]",0,28,28,15,1,bambooforest4.jpg,bleachers8.jpg,cabinIndoors.jpg,bar8.jpg,,
Image_List_2,,,,,,,,,,,,,,,,44474,2020-11-10_18h51.32.615,lingCatScenes,2020.1.3,Win32,60,"[1368,912]",,,"[""trial_sharp_left_box"",""trial_sharp_right_box""]",,,,,,,,,,,,courtroom3.jpg,space,9.86934,"[-0.637609649122807,-0.6277412280701754,-0.6107456140350878,0.6162280701754386]","[-0.27960526315789475,-0.28015350877192985,-0.2889254385964912,-0.3031798245614035]","[1,1,1,1]","[0,0,0,0]","[0,0,0,0]","[8.247739999998885,8.4813350000004,8.798950000000332,9.699124999999185]","[""trial_sharp_left_box"",""trial_sharp_right_box""]",0,29,29,27,1,castle3.jpg,churchInside4.jpg,closet.jpg,brewery2.jpg,,
Image_List_2,,,,,,,,,,,,,,,,44474,2020-11-10_18h51.32.615,lingCatScenes,2020.1.3,Win32,60,"[1368,912]",,,"[""trial_ahead_box""]",,,,,,,,,,,,metroInside4.jpg,space,1.33386,[-0.006578947368421052],[-0.30372807017543857],[1],[0],[0],[1.2100250000003143],"[""trial_ahead_box""]",0,30,30,61,1,HorseRaceTrack.jpg,homegarden6.jpg,kindergarten_classroom7.jpg,hayfield6.jpg,,
Image_List_2,,,,,,,,,,,,,,,,44474,2020-11-10_18h51.32.615,lingCatScenes,2020.1.3,Win32,60,"[1368,912]",,,"[""trial_right_box""]",,,,,,,,,,,,baggageClaim2.jpg,space,4.969675,[0.4029605263157895],[-0.30372807017543857],[1],[0],[0],[2.6282549999996263],"[""trial_right_box""]",0,31,31,4,1,artStudio1.jpg,auto_showroom1.jpg,appleorchard3.jpg,alley4.jpg,,
Image_List_2,,,,,,,,,,,,,,,,44474,2020-11-10_18h51.32.615,lingCatScenes,2020.1.3,Win32,60,"[1368,912]",,,"[""trial_ahead_box""]",,,,,,,,,,,,playroom6.jpg,space,2.530875,[-0.0043859649122807015],[-0.29769736842105265],[1],[0],[0],[1.8761350000022503],"[""trial_ahead_box""]",0,32,32,77,1,parkinggarage2.jpg,pasture9.jpg,park8.jpg,mallindoor6.jpg,,
Image_List_2,,,,,,,,,,,,,,,,44474,2020-11-10_18h51.32.615,lingCatScenes,2020.1.3,Win32,60,"[1368,912]",,,"[""trial_ahead_box""]",,,,,,,,,,,,parkinglot2.jpg,space,1.5182,[0.004934210526315789],[-0.29331140350877194],[1],[0],[0],[1.2775749999998425],"[""trial_ahead_box""]",0,33,33,69,1,liquorstore8.jpg,livingroom.jpg,metroInside1.jpg,icecream2.jpg,,
Image_List_2,,,,,,,,,,,,,,,,44474,2020-11-10_18h51.32.615,lingCatScenes,2020.1.3,Win32,60,"[1368,912]",,,"[""trial_ahead_box""]",,,,,,,,,,,,sidewalk5.jpg,space,1.235835,[-0.006030701754385965],[-0.2955043859649123],[1],[0],[0],[1.0269350000016857],"[""trial_ahead_box""]",0,34,34,85,1,recordingstudio4.jpg,ruralroad2.jpg,sandDunes_desert_outdoor3.jpg,rooftop3.jpg,,
Image_List_2,,,,,,,,,,,,,,,,44474,2020-11-10_18h51.32.615,lingCatScenes,2020.1.3,Win32,60,"[1368,912]",,,"[""trial_sharp_right_box""]",,,,,,,,,,,,cemetery6.jpg,space,6.392245,[0.6014254385964912],[-0.29714912280701755],[1],[0],[0],[5.99629499999719],"[""trial_sharp_right_box""]",0,35,35,21,1,botanicalGarden6.jpg,campusquad3.jpg,cave5.jpg,beach1.jpeg,,
Image_List_2,,,,,,,,,,,,,,,,44474,2020-11-10_18h51.32.615,lingCatScenes,2020.1.3,Win32,60,"[1368,912]",,,"[""trial_left_box""]",,,,,,,,,,,,attic1.jpg,space,5.273045,[-0.39364035087719296],[-0.29660087719298245],[1],[0],[0],[4.913674999999785],"[""trial_left_box""]",0,36,36,3,1,apartmentBuilding2.jpg,aquarium1.jpg,appleorchard2.jpg,alley3.jpg,,
Image_List_2,,,,,,,,,,,,,,,,44474,2020-11-10_18h51.32.615,lingCatScenes,2020.1.3,Win32,60,"[1368,912]",,,"[""trial_ahead_box"",""trial_sharp_left_box"",""trial_sharp_right_box""]",,,,,,,,,,,,park7.jpg,space,6.451675,"[-0.01206140350877193,-0.6069078947368421,0.6047149122807017]","[-0.30043859649122806,-0.29714912280701755,-0.27631578947368424]","[1,1,1]","[0,0,0]","[0,0,0]","[4.39638999999795,5.330999999998312,6.1644149999992806]","[""trial_ahead_box"",""trial_sharp_left_box"",""trial_sharp_right_box""]",0,37,37,67,1,library_aisle3.jpg,laundromat4.jpg,liquorstore2.jpg,hospitalroom2.jpg,,
Image_List_2,,,,,,,,,,,,,,,,44474,2020-11-10_18h51.32.615,lingCatScenes,2020.1.3,Win32,60,"[1368,912]",,,"[""trial_ahead_box"",""trial_right_box""]",,,,,,,,,,,,photographer_studio2.jpg,space,4.751405,"[-0.00932017543859649,0.40899122807017546]","[-0.28673245614035087,-0.2856359649122807]","[1,1]","[0,0]","[0,0]","[3.725850000002538,4.560020000000691]","[""trial_ahead_box"",""trial_right_box""]",0,38,38,73,1,musicStore3.jpg,nursery.jpg,nursery4.jpg,library_aisle9.jpg,,
Image_List_2,,,,,,,,,,,,,,,,44474,2020-11-10_18h51.32.615,lingCatScenes,2020.1.3,Win32,60,"[1368,912]",,,"[""trial_ahead_box""]",,,,,,,,,,,,hallway5.jpg,space,0.97566,[0.007675438596491228],[-0.3026315789473684],[1],[0],[0],[0.8766250000007858],"[""trial_ahead_box""]",0,39,39,51,1,gasstation6.jpg,frontDoor5.jpg,hayfield4.jpg,firestation5.jpg,,
Image_List_2,,,,,,,,,,,,,,,,44474,2020-11-10_18h51.32.615,lingCatScenes,2020.1.3,Win32,60,"[1368,912]",,,"[""trial_ahead_box"",""trial_slight_right_box"",""trial_slight_left_box""]",,,,,,,,,,,,yogastudio4.jpg,space,6.14266,"[0.01206140350877193,0.20614035087719298,-0.19956140350877194]","[-0.3092105263157895,-0.29660087719298245,-0.2905701754385965]","[1,1,1]","[0,0,0]","[0,0,0]","[1.9927600000011125,4.461169999998788,6.012780000001044]","[""trial_ahead_box"",""trial_slight_right_box"",""trial_slight_left_box""]",0,40,40,99,1,wineVineyard9.jpg,windmill2.jpg,wrestlingring7.jpg,yogastudio1.jpg,,
Image_List_2,,,,,,,,,,,,,,,,44474,2020-11-10_18h51.32.615,lingCatScenes,2020.1.3,Win32,60,"[1368,912]",,,"[""trial_ahead_box"",""trial_right_box"",""trial_left_box""]",,,,,,,,,,,,desertvegetation6.jpg,space,6.14237,"[0.007675438596491228,0.39747807017543857,-0.38760964912280704]","[-0.29769736842105265,-0.2955043859649123,-0.3092105263157895]","[1,1,1]","[0,0,0]","[0,0,0]","[3.878534999999829,4.795900000000984,5.92987500000163]","[""trial_ahead_box"",""trial_right_box"",""trial_left_box""]",0,41,41,31,1,cubicle4.jpg,conference4.jpg,courtroom2.jpg,cabin3.jpg,,
Image_List_2,,,,,,,,,,,,,,,,44474,2020-11-10_18h51.32.615,lingCatScenes,2020.1.3,Win32,60,"[1368,912]",,,"[""trial_ahead_box""]",,,,,,,,,,,,alley2.jpg,space,2.13018,[0.006578947368421052],[-0.2894736842105263],[1],[0],[0],[1.7414300000018557],"[""trial_ahead_box""]",0,42,42,0,1,airplanecabin1.jpg,appleorchard4.jpg,airplanecabin5.jpg,airplanecabin3.jpg,,
Image_List_2,,,,,,,,,,,,,,,,44474,2020-11-10_18h51.32.615,lingCatScenes,2020.1.3,Win32,60,"[1368,912]",,,"[""trial_ahead_box""]",,,,,,,,,,,,elevatorOutside4.jpg,space,1.167395,[0.008223684210526315],[-0.3201754385964912],[1],[0],[0],[0.9599949999974342],"[""trial_ahead_box""]",0,43,43,38,1,dining_car2.jpg,dock1.jpg,driveway8.jpg,classroom1.jpg,,
Image_List_2,,,,,,,,,,,,,,,,44474,2020-11-10_18h51.32.615,lingCatScenes,2020.1.3,Win32,60,"[1368,912]",,,"[""trial_slight_right_box""]",,,,,,,,,,,,trainStation5.jpg,space,6.13592,"[0.010416666666666666,0.19901315789473684,0.011513157894736841]","[-0.29714912280701755,-0.2911184210526316,-0.3026315789473684]","[1,1,1]","[0,0,0]","[0,0,0]","[1.4405599999992091,4.993184999999357,5.893814999999563]","[""trial_ahead_box"",""trial_slight_right_box"",""trial_ahead_box""]",0,44,44,91,1,shoestore2.jpg,skatepark5.jpg,ticket_counter6.jpg,sidewalk3.jpg,,
Image_List_2,,,,,,,,,,,,,,,,44474,2020-11-10_18h51.32.615,lingCatScenes,2020.1.3,Win32,60,"[1368,912]",,,"[""trial_ahead_box"",""trial_left_box"",""trial_right_box""]",,,,,,,,,,,,church8.jpg,space,2.8398,"[0.015350877192982455,-0.3985745614035088,0.39364035087719296]","[-0.3229166666666667,-0.3163377192982456,-0.3059210526315789]","[1,1,1]","[0,0,0]","[0,0,0]","[1.2604950000022654,2.1278300000012678,2.6614200000002484]","[""trial_ahead_box"",""trial_left_box"",""trial_right_box""]",0,45,45,23,1,bus_shelter.jpg,carmechanic4.jpeg,cemetery3.jpg,bleachers6.jpg,,
Image_List_2,,,,,,,,,,,,,,,,44474,2020-11-10_18h51.32.615,lingCatScenes,2020.1.3,Win32,60,"[1368,912]",,,"[""trial_ahead_box"",""trial_left_box"",""trial_right_box""]",,,,,,,,,,,,desertvegetation3.jpg,space,3.434505,"[0.02138157894736842,-0.3958333333333333,0.4057017543859649]","[-0.3042763157894737,-0.30098684210526316,-0.30043859649122806]","[1,1,1]","[0,0,0]","[0,0,0]","[1.1766200000018898,2.694310000002588,3.211105000002135]","[""trial_ahead_box"",""trial_left_box"",""trial_right_box""]",0,46,46,30,1,courthouse1.jpg,clothingstore2.jpg,copyroom2.jpg,bus_shelter3.jpg,,
Image_List_2,,,,,,,,,,,,,,,,44474,2020-11-10_18h51.32.615,lingCatScenes,2020.1.3,Win32,60,"[1368,912]",,,"[""trial_ahead_box"",""trial_left_box"",""trial_right_box""]",,,,,,,,,,,,church6.jpg,space,2.888025,"[0.020833333333333332,-0.40789473684210525,0.42105263157894735]","[-0.31140350877192985,-0.27850877192982454,-0.30098684210526316]","[1,1,1]","[0,0,0]","[0,0,0]","[1.0595650000032037,1.6766349999998056,2.343880000000354]","[""trial_ahead_box"",""trial_left_box"",""trial_right_box""]",0,47,47,22,1,bowlingalley5.jpg,cargo5.jpg,cemetery.jpg,bistrooutdoor6.jpg,,
Image_List_2,,,,,,,,,,,,,,,,44474,2020-11-10_18h51.32.615,lingCatScenes,2020.1.3,Win32,60,"[1368,912]",,,"[""trial_ahead_box"",""trial_left_box"",""trial_right_box""]",,,,,,,,,,,,farm1.jpg,space,2.649515,"[0.0027412280701754384,-0.3969298245614035,0.4161184210526316]","[-0.29002192982456143,-0.3059210526315789,-0.3048245614035088]","[1,1,1]","[0,0,0]","[0,0,0]","[1.009570000001986,1.60997000000134,2.4105300000010175]","[""trial_ahead_box"",""trial_left_box"",""trial_right_box""]",0,48,48,40,1,drycleaners4.jpg,drymountains.jpg,dugout1.jpg,clothingstore3.jpg,,
Image_List_2,,,,,,,,,,,,,,,,44474,2020-11-10_18h51.32.615,lingCatScenes,2020.1.3,Win32,60,"[1368,912]",,,"[""trial_slight_right_box""]",,,,,,,,,,,,conference3.jpg,space,2.114735,[0.20339912280701755],[-0.2955043859649123],[1],[0],[0],[1.8944450000016104],"[""trial_slight_right_box""]",0,49,49,25,1,campsite7.jpg,church3.jpg,checkoutcounter2.jpg,botanicalGarden4.jpg,,
Image_List_2,,,,,,,,,,,,,,,,44474,2020-11-10_18h51.32.615,lingCatScenes,2020.1.3,Win32,60,"[1368,912]",,,"[""trial_ahead_box""]",,,,,,,,,,,,wineVineyard8.jpg,space,1.383375,[0.0005482456140350877],[-0.29605263157894735],[1],[0],[0],[1.2604750000025433],"[""trial_ahead_box""]",0,50,50,98,1,weightroom5.jpg,warehouse3.jpg,winebarrel4.jpg,winebarrel2.jpg,,
Image_List_2,,,,,,,,,,,,,,,,44474,2020-11-10_18h51.32.615,lingCatScenes,2020.1.3,Win32,60,"[1368,912]",,,"[""trial_right_box"",""trial_left_box""]",,,,,,,,,,,,banquetHall2.jpg,space,2.64948,"[0.40350877192982454,-0.39089912280701755]","[-0.3092105263157895,-0.3031798245614035]","[1,1]","[0,0]","[0,0]","[1.5941750000019965,2.3447350000024016]","[""trial_right_box"",""trial_left_box""]",0,51,51,6,1,ATM1.jpg,auto_showroom5.jpg,baggageClaim1.jpg,apartmentBuilding3.jpg,,
Image_List_2,,,,,,,,,,,,,,,,44474,2020-11-10_18h51.32.615,lingCatScenes,2020.1.3,Win32,60,"[1368,912]",,,"[""trial_ahead_box"",""trial_right_box""]",,,,,,,,,,,,bedroom6.jpg,space,4.453945,"[0.010964912280701754,0.39528508771929827]","[-0.31140350877192985,-0.2911184210526316]","[1,1]","[0,0]","[0,0]","[1.7611400000025696,3.2628100000003997]","[""trial_ahead_box"",""trial_right_box""]",0,52,52,12,1,baggageClaim4.jpg,bambooforest5.jpg,bleachers7.jpg,backyard5.jpg,,
Image_List_2,,,,,,,,,,,,,,,,44474,2020-11-10_18h51.32.615,lingCatScenes,2020.1.3,Win32,60,"[1368,912]",,,"[""trial_ahead_box"",""trial_sharp_right_box""]",,,,,,,,,,,,library_aisle8.jpg,space,5.71725,"[-0.007675438596491228,0.6096491228070176]","[-0.29769736842105265,-0.2955043859649123]","[1,1]","[0,0]","[0,0]","[2.0945449999999255,5.07992999999999]","[""trial_ahead_box"",""trial_sharp_right_box""]",0,53,53,59,1,homegarden7.jpg,highway4.jpg,kindergarten_classroom5.jpg,grocerystore3.jpg,,
Image_List_2,,,,,,,,,,,,,,,,44474,2020-11-10_18h51.32.615,lingCatScenes,2020.1.3,Win32,60,"[1368,912]",,,"[""trial_right_box"",""trial_left_box""]",,,,,,,,,,,,newsstand7.jpg,space,2.715405,"[0.4018640350877193,-0.39364035087719296]","[-0.30153508771929827,-0.3059210526315789]","[1,1]","[0,0]","[0,0]","[1.3944449999983135,2.2115149999991672]","[""trial_right_box"",""trial_left_box""]",0,54,54,65,1,igloo5.jpg,laundromat2.jpeg,labClass7.jpg,homeoffice8.jpg,,
Image_List_2,,,,,,,,,,,,,,,,44474,2020-11-10_18h51.32.615,lingCatScenes,2020.1.3,Win32,60,"[1368,912]",,,"[""trial_left_box"",""trial_right_box""]",,,,,,,,,,,,eyeglassstore9.jpg,space,3.14799,"[-0.38980263157894735,0.40515350877192985]","[-0.3059210526315789,-0.2949561403508772]","[1,1]","[0,0]","[0,0]","[2.2102299999969546,2.9278549999980896]","[""trial_left_box"",""trial_right_box""]",0,55,55,39,1,driveway6.jpg,drycleaners6.jpg,drymountains5.jpg,cliff5.jpg,,
Image_List_2,,,,,,,,,,,,,,,,44474,2020-11-10_18h51.32.615,lingCatScenes,2020.1.3,Win32,60,"[1368,912]",,,"[""trial_ahead_box"",""trial_left_box""]",,,,,,,,,,,,stripmall.jpg,space,3.984255,"[-0.01425438596491228,-0.40899122807017546]","[-0.30701754385964913,-0.29769736842105265]","[1,1]","[0,0]","[0,0]","[2.8612500000019736,3.644964999999729]","[""trial_ahead_box"",""trial_left_box""]",0,56,56,86,1,restaurant14.jpg,ruralroad3.jpg,sandDunes_desert_outdoor8.jpg,rooftop4.jpg,,
Image_List_2,,,,,,,,,,,,,,,,44474,2020-11-10_18h51.32.615,lingCatScenes,2020.1.3,Win32,60,"[1368,912]",,,"[""trial_left_box""]",,,,,,,,,,,,horsebarn11.jpg,space,3.135585,[-0.3854166666666667],[-0.28234649122807015],[1],[0],[0],[2.9082200000011653],"[""trial_left_box""]",0,57,57,54,1,greenhouse2.jpg,gazebo2.jpg,homegarage4.jpg,frontFoyer.jpg,,
Image_List_2,,,,,,,,,,,,,,,,44474,2020-11-10_18h51.32.615,lingCatScenes,2020.1.3,Win32,60,"[1368,912]",,,"[""trial_ahead_box"",""trial_left_box"",""trial_right_box""]",,,,,,,,,,,,playground6.jpg,space,6.48732,"[-0.0043859649122807015,-0.39035087719298245,0.38651315789473684]","[-0.3059210526315789,-0.3053728070175439,-0.3207236842105263]","[1,1,1]","[0,0,0]","[0,0,0]","[5.279715000000465,5.746665000002281,6.313945000001695]","[""trial_ahead_box"",""trial_left_box"",""trial_right_box""]",0,58,58,75,1,pantry5.jpg,operatingroom4.jpg,park.jpg,lockerroom.jpg,,
Image_List_2,,,,,,,,,,,,,,,,44474,2020-11-10_18h51.32.615,lingCatScenes,2020.1.3,Win32,60,"[1368,912]",,,"[""trial_ahead_box""]",,,,,,,,,,,,warehouse2.jpg,space,0.93527,[0.0021929824561403508],[-0.3086622807017544],[1],[0],[0],[0.8419800000010582],"[""trial_ahead_box""]",0,59,59,95,1,waitingroom2.jpg,stripmall6.jpg,weightroom4.jpg,tvstudio3.jpg,,
Image_List_2,,,,,,,,,,,,,,,,44474,2020-11-10_18h51.32.615,lingCatScenes,2020.1.3,Win32,60,"[1368,912]",,,"[""trial_left_box""]",,,,,,,,,,,,casino3.jpg,space,1.522165,[-0.4133771929824561],[-0.30372807017543857],[1],[0],[0],[1.4110250000013593],"[""trial_left_box""]",0,60,60,19,1,boardwalk2.jpg,cafeteria1.jpg,castle4.jpg,basketballcourt.jpg,,
Image_List_2,,,,,,,,,,,,,,,,44474,2020-11-10_18h51.32.615,lingCatScenes,2020.1.3,Win32,60,"[1368,912]",,,"[""trial_ahead_box"",""trial_sharp_left_box"",""trial_right_box""]",,,,,,,,,,,,pavilion5.jpg,space,4.018355,"[0.013706140350877192,-0.5888157894736842,0.41118421052631576]","[-0.29385964912280704,-0.31085526315789475,-0.3229166666666667]","[1,1,1]","[0,0,0]","[0,0,0]","[1.091785000000641,3.243299999998385,3.8771649999982856]","[""trial_ahead_box"",""trial_sharp_left_box"",""trial_right_box""]",0,61,61,71,1,metroInside2.jpg,metroInside3.jpg,museum3.jpg,jewelrystore.jpg,,
Image_List_2,,,,,,,,,,,,,,,,44474,2020-11-10_18h51.32.615,lingCatScenes,2020.1.3,Win32,60,"[1368,912]",,,"[""trial_ahead_box"",""trial_left_box"",""trial_sharp_right_box""]",,,,,,,,,,,,museum6.jpg,space,2.800445,"[-0.0021929824561403508,-0.40131578947368424,0.6211622807017544]","[-0.29221491228070173,-0.29989035087719296,-0.29769736842105265]","[1,1,1]","[0,0,0]","[0,0,0]","[1.4104450000013458,1.9941099999996368,2.611430000000837]","[""trial_ahead_box"",""trial_left_box"",""trial_sharp_right_box""]",0,62,62,63,1,hut2.jpg,hotelRoom2.jpg,lab4.jpg,highway2.jpg,,
Image_List_2,,,,,,,,,,,,,,,,44474,2020-11-10_18h51.32.615,lingCatScenes,2020.1.3,Win32,60,"[1368,912]",,,"[""trial_ahead_box"",""trial_left_box"",""trial_right_box""]",,,,,,,,,,,,golfcourse6.jpg,space,4.84167,"[0.01699561403508772,-0.3848684210526316,0.42160087719298245]","[-0.29989035087719296,-0.3031798245614035,-0.29660087719298245]","[1,1,1]","[0,0,0]","[0,0,0]","[2.5275949999995646,3.762009999998554,4.6125299999985145]","[""trial_ahead_box"",""trial_left_box"",""trial_right_box""]",0,63,63,48,1,frontDoor2.jpg,fittingroom5.jpg,golfcourse7.jpg,fabricstore2.jpg,,
Image_List_2,,,,,,,,,,,,,,,,44474,2020-11-10_18h51.32.615,lingCatScenes,2020.1.3,Win32,60,"[1368,912]",,,"[""trial_slight_right_box"",""trial_sharp_left_box""]",,,,,,,,,,,,waitingroom3.jpg,space,3.81961,"[0.19901315789473684,-0.5904605263157895]","[-0.3042763157894737,-0.30098684210526316]","[1,1]","[0,0]","[0,0]","[1.3067399999999907,2.6736900000033756]","[""trial_slight_right_box"",""trial_sharp_left_box""]",0,64,64,94,1,treehouse.jpg,staircase6.jpg,weightroom.jpg,trainStation3.jpg,,
Image_List_2,,,,,,,,,,,,,,,,44474,2020-11-10_18h51.32.615,lingCatScenes,2020.1.3,Win32,60,"[1368,912]",,,"[""trial_left_box""]",,,,,,,,,,,,forestpath10.jpg,space,2.30931,[-0.40625],[-0.3031798245614035],[1],[0],[0],[1.3277350000024626],"[""trial_left_box""]",0,65,65,43,1,exerciseequipment5.jpg,dugout2.jpg,foodcourt.jpg,diningroom3.jpg,,
Image_List_2,,,,,,,,,,,,,,,,44474,2020-11-10_18h51.32.615,lingCatScenes,2020.1.3,Win32,60,"[1368,912]",,,"[""trial_right_box""]",,,,,,,,,,,,basketballcourt4.jpg,space,3.902705,"[0.21710526315789475,0.21820175438596492,0.42214912280701755]","[-0.30098684210526316,-0.30098684210526316,-0.2916666666666667]","[1,1,1]","[0,0,0]","[0,0,0]","[2.361590000000433,2.71182500000225,3.3623550000010027]","[""trial_slight_right_box"",""trial_slight_right_box"",""trial_right_box""]",0,66,66,11,1,backyard2.jpg,bambooforest3.jpg,baywindow5.jpg,backyard1.jpg,,
Image_List_2,,,,,,,,,,,,,,,,44474,2020-11-10_18h51.32.615,lingCatScenes,2020.1.3,Win32,60,"[1368,912]",,,"[""trial_slight_right_box""]",,,,,,,,,,,,poolhall2.jpeg,space,1.5477,[0.20065789473684212],[-0.3048245614035088],[1],[0],[0],[1.3436900000015157],"[""trial_slight_right_box""]",0,67,67,79,1,pasture.jpg,playground9.jpg,pier2.jpg,observatory2.jpg,,
Image_List_2,,,,,,,,,,,,,,,,44474,2020-11-10_18h51.32.615,lingCatScenes,2020.1.3,Win32,60,"[1368,912]",,,"[""trial_ahead_box""]",,,,,,,,,,,,dock3.jpg,space,1.182095,[0.023574561403508772],[-0.3020833333333333],[1],[0],[0],[0.9949699999997392],"[""trial_ahead_box""]",0,68,68,35,1,deck5.jpg,cubicle7.jpg,dining_car6.jpg,carmechanic2.jpg,,
Image_List_2,,,,,,,,,,,,,,,,44474,2020-11-10_18h51.32.615,lingCatScenes,2020.1.3,Win32,60,"[1368,912]",,,"[""trial_left_box""]",,,,,,,,,,,,racecarcourse2.jpg,space,5.551145,"[-0.014802631578947368,-0.40625]","[-0.34265350877192985,-0.28728070175438597]","[1,1]","[0,0]","[0,0]","[2.111095000000205,4.7962950000001]","[""trial_left_box""]",0,69,69,80,1,pavilion2.jpg,porch.jpg,poolhall5.jpg,parkinggarage4.jpg,,
Image_List_2,,,,,,,,,,,,,,,,44474,2020-11-10_18h51.32.615,lingCatScenes,2020.1.3,Win32,60,"[1368,912]",,,"[""trial_left_box"",""trial_right_box""]",,,,,,,,,,,,grocerystore6.jpg,space,2.86554,"[-0.38706140350877194,0.39473684210526316]","[-0.29989035087719296,-0.3026315789473684]","[1,1]","[0,0]","[0,0]","[2.0112499999995634,2.645134999998845]","[""trial_left_box"",""trial_right_box""]",0,70,70,50,1,frontLawn4.jpg,forestpath6.jpg,hallway2.jpg,fireplace4.jpg,,
Image_List_2,,,,,,,,,,,,,,,,44474,2020-11-10_18h51.32.615,lingCatScenes,2020.1.3,Win32,60,"[1368,912]",,,"[""trial_ahead_box""]",,,,,,,,,,,,hardwarestore1.jpg,space,1.751305,[-0.003289473684210526],[-0.3053728070175439],[1],[0],[0],[1.525564999999915],"[""trial_ahead_box""]",0,71,71,52,1,gasstation7.jpg,frontFoyer6.jpg,highway.jpg,forestpath2.jpg,,
Image_List_2,,,,,,,,,,,,,,,,44474,2020-11-10_18h51.32.615,lingCatScenes,2020.1.3,Win32,60,"[1368,912]",,,"[""trial_ahead_box"",""trial_right_box"",""trial_sharp_left_box""]",,,,,,,,,,,,firestation3.jpg,space,15.02695,"[-0.75,0.02207792207792208,0.02207792207792208,0.412987012987013,0.41363636363636364,-0.6012987012987013,-0.6012987012987013]","[-0.4994517543859649,-0.3038961038961039,-0.3038961038961039,-0.29675324675324677,-0.29675324675324677,-0.3155844155844156,-0.3155844155844156]","[0,1,0,1,0,1,0]","[0,0,0,0,0,0,0]","[0,0,0,0,0,0,0]","[1.7863949999991746,10.333770000000982,10.416704999999752,10.967539999997825,11.017165000001,11.585344999999506,11.634275000000343]","[""trial_ahead_box"",""trial_ahead_box"",""trial_right_box"",""trial_right_box"",""trial_sharp_left_box"",""trial_sharp_left_box""]",0,72,72,42,1,exerciseequipment3.jpg,drymountains6.jpg,farm4.jpg,desertvegetation2.jpg,,
Image_List_2,,,,,,,,,,,,,,,,44474,2020-11-10_18h51.32.615,lingCatScenes,2020.1.3,Win32,60,"[1368,770]",,,"[""trial_right_box"",""trial_left_box""]",,,,,,,,,,,,diningroom5.jpg,space,7.675965,"[0.37987012987012986,0.38051948051948054,-0.37987012987012986,-0.37987012987012986]","[-0.2974025974025974,-0.2974025974025974,-0.2831168831168831,-0.2831168831168831]","[1,0,1,0]","[0,0,0,0]","[0,0,0,0]","[6.7460900000005495,6.795410000002448,7.446320000002743,7.51224000000002]","[""trial_right_box"",""trial_right_box"",""trial_left_box"",""trial_left_box""]",0,73,73,34,1,deck4.jpg,courthouse4.jpg,diner11.jpg,campusquad1.jpg,,
Image_List_2,,,,,,,,,,,,,,,,44474,2020-11-10_18h51.32.615,lingCatScenes,2020.1.3,Win32,60,"[1368,770]",,,"[""trial_slight_right_box""]",,,,,,,,,,,,playroom4.jpg,space,2.389565,"[0.19480519480519481,0.19480519480519481]","[-0.2896103896103896,-0.2896103896103896]","[1,0]","[0,0]","[0,0]","[1.2888250000031576,1.3719200000014098]","[""trial_slight_right_box"",""trial_slight_right_box""]",0,74,74,76,1,parkinggarage.jpg,parkinggarage3.jpg,park2.jpg,lookout4.jpg,,
Image_List_2,,,,,,,,,,,,,,,,44474,2020-11-10_18h51.32.615,lingCatScenes,2020.1.3,Win32,60,"[1368,770]",,,"[""trial_ahead_box""]",,,,,,,,,,,,track5.jpg,space,1.901065,"[-0.0025974025974025974,-0.0025974025974025974]","[-0.2902597402597403,-0.2902597402597403]","[1,0]","[0,0]","[0,0]","[1.427500000001487,1.4770250000001397]","[""trial_ahead_box"",""trial_ahead_box""]",0,75,75,89,1,ruralroad7.jpg,ShowJumping7.jpg,staircase7.jpg,sculpturegarden3.jpg,,
Image_List_2,,,,,,,,,,,,,,,,44474,2020-11-10_18h51.32.615,lingCatScenes,2020.1.3,Win32,60,"[1368,770]",,,"[""trial_ahead_box""]",,,,,,,,,,,,frontFoyer7.jpg,space,2.882015,"[0.013636363636363636,0.013636363636363636]","[-0.3155844155844156,-0.3155844155844156]","[1,0]","[0,0]","[0,0]","[2.4279400000013993,2.510664999997857]","[""trial_ahead_box"",""trial_ahead_box""]",0,76,76,45,1,fittingroom2.jpg,factory1.jpg,forestpath4.jpg,dock4.jpg,,
Image_List_2,,,,,,,,,,,,,,,,44474,2020-11-10_18h51.32.615,lingCatScenes,2020.1.3,Win32,60,"[1368,770]",,,"[""trial_sharp_left_box"",""trial_sharp_right_box""]",,,,,,,,,,,,bambooforest.jpg,space,6.84474,"[-0.6155844155844156,-0.6155844155844156,0.6032467532467533,0.5987012987012987]","[-0.3012987012987013,-0.3012987012987013,-0.30064935064935067,-0.30064935064935067]","[1,0,1,0]","[0,0,0,0]","[0,0,0,0]","[5.914074999996956,5.963599999999019,6.681269999997426,6.747969999996712]","[""trial_sharp_left_box"",""trial_sharp_left_box"",""trial_sharp_right_box"",""trial_sharp_right_box""]",0,77,77,5,1,artStudio3.jpg,auto_showroom4.jpg,attic4.jpg,amusement3.jpg,,
Image_List_2,,,,,,,,,,,,,,,,44474,2020-11-10_18h51.32.615,lingCatScenes,2020.1.3,Win32,60,"[1368,770]",,,"[""trial_ahead_box"",""trial_right_box""]",,,,,,,,,,,,dancestudio5.jpg,space,2.8628,"[0.011688311688311689,0.011688311688311689,0.42012987012987013,0.42142857142857143]","[-0.30454545454545456,-0.30454545454545456,-0.3064935064935065,-0.3051948051948052]","[1,0,1,0]","[0,0,0,0]","[0,0,0,0]","[1.3740699999979142,1.423644999998828,2.574759999999401,2.6409549999988258]","[""trial_ahead_box"",""trial_ahead_box"",""trial_right_box"",""trial_right_box""]",0,78,78,28,1,churchInside1.jpg,citystreet10.jpg,clothingstore5.jpg,bridalboutique2.jpg,,
Image_List_2,,,,,,,,,,,,,,,,44474,2020-11-10_18h51.32.615,lingCatScenes,2020.1.3,Win32,60,"[1368,770]",,,"[""trial_right_box"",""trial_left_box""]",,,,,,,,,,,,arcade1.jpg,space,2.55099,"[0.41948051948051945,0.41948051948051945,-0.38376623376623376,-0.38376623376623376]","[-0.30714285714285716,-0.30714285714285716,-0.30844155844155846,-0.30844155844155846]","[1,0,1,0]","[0,0,0,0]","[0,0,0,0]","[1.4438350000018545,1.5099999999983993,2.3275449999999864,2.3938650000018242]","[""trial_right_box"",""trial_right_box"",""trial_left_box"",""trial_left_box""]",0,79,79,2,1,alley1.jpg,applestore6.jpg,apartmentBuilding4.jpg,airportTerminal6.jpg,,
Image_List_2,,,,,,,,,,,,,,,,44474,2020-11-10_18h51.32.615,lingCatScenes,2020.1.3,Win32,60,"[1368,770]",,,"[""trial_sharp_left_box"",""trial_left_box"",""trial_slight_left_box"",""trial_ahead_box"",""trial_slight_right_box"",""trial_right_box"",""trial_sharp_right_box""]",,,,,,,,,,,,sandDunes_desert_outdoor9.jpg,space,6.054215,"[-0.6012987012987013,-0.6012987012987013,-0.40324675324675324,-0.40324675324675324,-0.17272727272727273,-0.17272727272727273,-0.03896103896103896,-0.03831168831168831,-0.20454545454545456,-0.20194805194805196,0,0,0.18506493506493507,0.21298701298701297,0.41623376623376623,0.41623376623376623,0.5948051948051948,0.5967532467532467]","[-0.30584415584415586,-0.3064935064935065,-0.2961038961038961,-0.2961038961038961,-0.29935064935064937,-0.29935064935064937,-0.3038961038961039,-0.3038961038961039,-0.3064935064935065,-0.3064935064935065,-0.2948051948051948,-0.2948051948051948,-0.3012987012987013,-0.3038961038961039,-0.30454545454545456,-0.30454545454545456,-0.2935064935064935,-0.2935064935064935]","[1,0,1,0,1,0,1,0,1,0,1,0,1,0,1,0,1,0]","[0,0,0,0,0,0,0,0,0,0,0,0,0,0,0,0,0,0]","[0,0,0,0,0,0,0,0,0,0,0,0,0,0,0,0,0,0]","[1.708730000002106,1.7747899999994843,2.392555000002176,2.45884500000102,2.8261549999988347,2.8923549999999523,3.393019999999524,3.4593150000000605,3.776815000001079,3.8598500000006197,4.226930000000721,4.310124999999971,4.660814999999275,4.727504999998928,5.24436500000229,5.310685000000376,5.8116200000005165,5.894475000000853]","[""trial_sharp_left_box"",""trial_sharp_left_box"",""trial_left_box"",""trial_left_box"",""trial_slight_left_box"",""trial_slight_left_box"",""trial_ahead_box"",""trial_ahead_box"",""trial_slight_right_box"",""trial_slight_right_box"",""trial_right_box"",""trial_right_box"",""trial_sharp_right_box"",""trial_sharp_right_box""]",0,80,80,82,1,publicrestroom2.jpg,promenadeDeck3.jpg,readingroom4.jpg,postoffice4.jpg,,
Image_List_2,,,,,,,,,,,,,,,,44474,2020-11-10_18h51.32.615,lingCatScenes,2020.1.3,Win32,60,"[1368,770]",,,"[""trial_right_box"",""trial_left_box""]",,,,,,,,,,,,deck2.jpg,space,5.1155,"[0.41753246753246753,0.41753246753246753,-0.38701298701298703,-0.38701298701298703]","[-0.2935064935064935,-0.2935064935064935,-0.30714285714285716,-0.30714285714285716]","[1,0,1,0]","[0,0,0,0]","[0,0,0,0]","[3.3624049999998533,3.411725000001752,4.079584999999497,4.145540000001347]","[""trial_right_box"",""trial_right_box"",""trial_left_box"",""trial_left_box""]",0,81,81,29,1,cornfield2.jpg,cliff2.jpg,constructionSite4.jpg,bridalboutique3.jpg,,
Image_List_2,,,,,,,,,,,,,,,,44474,2020-11-10_18h51.32.615,lingCatScenes,2020.1.3,Win32,60,"[1368,770]",,,"[""trial_ahead_box""]",,,,,,,,,,,,theater2.jpg,space,1.51608,"[0.0012987012987012987,0.0012987012987012987]","[-0.3,-0.3]","[1,0]","[0,0]","[0,0]","[1.2939050000021552,1.343480000003069]","[""trial_ahead_box"",""trial_ahead_box""]",0,82,82,87,1,restaurantkitchen2.jpg,savanna.jpg,sculpturegarden2.jpg,RVinside2.jpg,,
Image_List_2,,,,,,,,,,,,,,,,44474,2020-11-10_18h51.32.615,lingCatScenes,2020.1.3,Win32,60,"[1368,770]",,,"[""trial_ahead_box""]",,,,,,,,,,,,banquetHall6.jpg,space,1.74862,"[0.014285714285714285,0.014285714285714285]","[-0.3,-0.3]","[1,0]","[0,0]","[0,0]","[1.2934849999982134,1.3430799999987357]","[""trial_ahead_box"",""trial_ahead_box""]",0,83,83,8,1,attic3.jpg,balconyIN.jpg,bar.jpg,applestore4.jpg,,
Image_List_2,,,,,,,,,,,,,,,,44474,2020-11-10_18h51.32.615,lingCatScenes,2020.1.3,Win32,60,"[1368,770]",,,"[""trial_left_box""]",,,,,,,,,,,,track.jpg,space,2.60018,"[-0.4038961038961039,-0.4038961038961039]","[-0.3155844155844156,-0.3155844155844156]","[1,0]","[0,0]","[0,0]","[1.9780299999983981,2.027734999999552]","[""trial_left_box"",""trial_left_box""]",0,84,84,88,1,rooftop1.jpg,sculpturegarden4.jpg,soccerfield.jpg,sandbox.jpg,,
Image_List_2,,,,,,,,,,,,,,,,44474,2020-11-10_18h51.32.615,lingCatScenes,2020.1.3,Win32,60,"[1368,770]",,,"[""trial_left_box""]",,,,,,,,,,,,cliff3.jpg,space,4.232965,"[-0.37922077922077924,-0.37922077922077924]","[-0.3051948051948052,-0.30454545454545456]","[1,0]","[0,0]","[0,0]","[3.5788400000019465,3.645104999999603]","[""trial_left_box"",""trial_left_box""]",0,85,85,24,1,campsite.jpg,cave6.jpg,cemetery5.jpg,boardwalk.jpg,,
Image_List_2,,,,,,,,,,,,,,,,44474,2020-11-10_18h51.32.615,lingCatScenes,2020.1.3,Win32,60,"[1368,770]",,,"[""trial_ahead_box"",""trial_sharp_left_box"",""trial_sharp_right_box""]",,,,,,,,,,,,volleyballcourt.jpg,space,6.42493,"[0.016233766233766232,0.016233766233766232,-0.5883116883116883,-0.5889610389610389,0.5954545454545455,0.5954545454545455]","[-0.3116883116883117,-0.3116883116883117,-0.3038961038961039,-0.30454545454545456,-0.3038961038961039,-0.3038961038961039]","[1,0,1,0,1,0]","[0,0,0,0,0,0]","[0,0,0,0,0,0]","[4.296430000002147,4.362600000000384,5.3806600000025355,5.4634800000020505,6.198245000003112,6.264050000001589]","[""trial_ahead_box"",""trial_ahead_box"",""trial_sharp_left_box"",""trial_sharp_left_box"",""trial_sharp_right_box"",""trial_sharp_right_box""]",0,86,86,92,1,staircase.jpg,skatepark7.jpg,tvstudio2.jpg,soccerfield2.jpg,,
Image_List_2,,,,,,,,,,,,,,,,44474,2020-11-10_18h51.32.615,lingCatScenes,2020.1.3,Win32,60,"[1368,770]",,,"[""trial_ahead_box"",""trial_slight_left_box"",""trial_left_box"",""trial_sharp_left_box"",""trial_slight_right_box"",""trial_right_box"",""trial_sharp_right_box""]",,,,,,,,,,,,parkinglot.jpg,space,6.311765,"[0.013636363636363636,0.013636363636363636,-0.19090909090909092,-0.19090909090909092,-0.38961038961038963,-0.38961038961038963,-0.5785714285714286,-0.5792207792207792,0.21298701298701297,0.21428571428571427,0.4512987012987013,0.4512987012987013,0.40064935064935064,0.40064935064935064,0.6175324675324675,0.6175324675324675]","[-0.2883116883116883,-0.2883116883116883,-0.30194805194805197,-0.30194805194805197,-0.3,-0.3,-0.30324675324675326,-0.30324675324675326,-0.30324675324675326,-0.30324675324675326,-0.3025974025974026,-0.3025974025974026,-0.3038961038961039,-0.3038961038961039,-0.3051948051948052,-0.3051948051948052]","[1,0,1,0,1,0,1,0,1,0,1,0,1,0,1,0]","[0,0,0,0,0,0,0,0,0,0,0,0,0,0,0,0]","[0,0,0,0,0,0,0,0,0,0,0,0,0,0,0,0]","[1.3101199999982782,1.409654999999475,2.6775500000003376,2.710659999997006,3.2064849999989065,3.277264999996987,3.746159999998781,3.8612099999992324,4.512679999999818,4.578224999997474,4.895769999999288,4.978779999997641,5.246054999999615,5.312244999997347,5.863279999997758,5.946164999997677]","[""trial_ahead_box"",""trial_ahead_box"",""trial_slight_left_box"",""trial_slight_left_box"",""trial_left_box"",""trial_left_box"",""trial_sharp_left_box"",""trial_sharp_left_box"",""trial_slight_right_box"",""trial_slight_right_box"",""trial_right_box"",""trial_right_box"",""trial_sharp_right_box"",""trial_sharp_right_box""]",0,87,87,68,1,liquorstore7.jpg,lightingstore4.jpg,lockerroom2.jpg,hospitalroom3.jpg,,
Image_List_2,,,,,,,,,,,,,,,,44474,2020-11-10_18h51.32.615,lingCatScenes,2020.1.3,Win32,60,"[1368,770]",,,"[""trial_ahead_box""]",,,,,,,,,,,,frontFoyer4.jpg,space,2.934945,"[-0.013636363636363636,-0.013636363636363636]","[-0.2935064935064935,-0.2935064935064935]","[1,0]","[0,0]","[0,0]","[1.1588149999988673,1.2082499999997935]","[""trial_ahead_box"",""trial_ahead_box""]",0,88,88,44,1,firestation2.jpg,elevatorOutside1.jpg,foodcourt6.jpg,dock2.jpg,,
Image_List_2,,,,,,,,,,,,,,,,44474,2020-11-10_18h51.32.615,lingCatScenes,2020.1.3,Win32,60,"[1368,770]",,,"[""trial_slight_right_box""]",,,,,,,,,,,,hut3.jpg,space,2.086795,"[0.2077922077922078,0.20974025974025973]","[-0.3064935064935065,-0.3064935064935065]","[1,0]","[0,0]","[0,0]","[1.8621649999986403,1.9271599999993896]","[""trial_slight_right_box"",""trial_slight_right_box""]",0,89,89,56,1,grocerystore5.jpg,golfcourse10.jpg,hut1.jpg,gasstation2.jpg,,
Image_List_2,,,,,,,,,,,,,,,,44474,2020-11-10_18h51.32.615,lingCatScenes,2020.1.3,Win32,60,"[1368,770]",,,"[""trial_left_box""]",,,,,,,,,,,,minigolf.jpg,space,4.27536,"[-0.38376623376623376,-0.38376623376623376]","[-0.31233766233766236,-0.31233766233766236]","[1,0]","[0,0]","[0,0]","[3.79577000000063,3.8617799999992712]","[""trial_left_box"",""trial_left_box""]",0,90,90,62,1,hotellobby2.jpg,horsebarn8.jpg,lab3.jpg,hayfield7.jpg,,
Image_List_2,,,,,,,,,,,,,,,,44474,2020-11-10_18h51.32.615,lingCatScenes,2020.1.3,Win32,60,"[1368,770]",,,"[""trial_ahead_box"",""trial_right_box""]",,,,,,,,,,,,playground10.jpg,space,2.764365,"[0.024025974025974027,0.024025974025974027,0.40194805194805194,0.40194805194805194]","[-0.30714285714285716,-0.30714285714285716,-0.3194805194805195,-0.3194805194805195]","[1,0,1,0]","[0,0,0,0]","[0,0,0,0]","[1.7092350000020815,1.7587400000011257,2.5597650000016756,2.609375]","[""trial_ahead_box"",""trial_ahead_box"",""trial_right_box"",""trial_right_box""]",0,91,91,74,1,newsstand2.jpg,observatory4.jpeg,operatingroom1.jpg,lightingstore2.jpg,,
Image_List_2,,,,,,,,,,,,,,,,44474,2020-11-10_18h51.32.615,lingCatScenes,2020.1.3,Win32,60,"[1368,770]",,,"[""trial_ahead_box""]",,,,,,,,,,,,dormroom9.jpg,space,1.71476,"[0.007142857142857143,0.007142857142857143]","[-0.3,-0.3]","[1,0]","[0,0]","[0,0]","[1.243715000000634,1.293550000002142]","[""trial_ahead_box"",""trial_ahead_box""]",0,92,92,36,1,diner14.jpg,dining_car3.jpg,doctor1.jpg,checkoutcounter9.jpg,,
Image_List_2,,,,,,,,,,,,,,,,44474,2020-11-10_18h51.32.615,lingCatScenes,2020.1.3,Win32,60,"[1368,770]",,,"[""trial_ahead_box"",""trial_right_box""]",,,,,,,,,,,,cave.jpg,space,4.46689,"[0.012987012987012988,0.012987012987012988,0.39805194805194805,0.39805194805194805]","[-0.30844155844155846,-0.30844155844155846,-0.2974025974025974,-0.2974025974025974]","[1,0,1,0]","[0,0,0,0]","[0,0,0,0]","[3.461470000002123,3.527760000000967,4.245555000001332,4.311655000001451]","[""trial_ahead_box"",""trial_ahead_box"",""trial_right_box"",""trial_right_box""]",0,93,93,20,1,boardwalk6.jpg,campsite3.jpg,cave4.jpg,basketballcourt7.jpg,,
Image_List_2,,,,,,,,,,,,,,,,44474,2020-11-10_18h51.32.615,lingCatScenes,2020.1.3,Win32,60,"[1368,770]",,,"[""trial_left_box"",""trial_right_box""]",,,,,,,,,,,,bar2.jpg,space,2.46389,"[-0.40194805194805194,-0.40194805194805194,0.41883116883116883,0.41883116883116883]","[-0.3194805194805195,-0.3194805194805195,-0.3142857142857143,-0.3142857142857143]","[1,0,1,0]","[0,0,0,0]","[0,0,0,0]","[1.6105050000005576,1.6768649999976333,2.2275649999975258,2.310480000000098]","[""trial_left_box"",""trial_left_box"",""trial_right_box"",""trial_right_box""]",0,94,94,9,1,auto_showroom3.jpg,ballroom2.jpg,basement5.jpg,arcade2.jpg,,
Image_List_2,,,,,,,,,,,,,,,,44474,2020-11-10_18h51.32.615,lingCatScenes,2020.1.3,Win32,60,"[1368,770]",,,"[""trial_slight_left_box"",""trial_ahead_box""]",,,,,,,,,,,,lab1.jpg,space,3.30025,"[0.025324675324675326,0.025324675324675326,-0.19415584415584416,-0.18831168831168832,0.005844155844155844,0.005844155844155844]","[-0.31493506493506496,-0.31493506493506496,-0.2974025974025974,-0.29805194805194807,-0.29545454545454547,-0.29545454545454547]","[1,0,1,0,1,0]","[0,0,0,0,0,0]","[0,0,0,0,0,0]","[2.2278550000011137,2.2940000000018017,2.7614299999988816,2.8109799999984943,3.095040000000381,3.161219999998252]","[""trial_slight_left_box"",""trial_slight_left_box"",""trial_ahead_box"",""trial_ahead_box""]",0,95,95,58,1,highway7.jpg,hedgemaze1.jpg,igloo4.jpg,grocerystore2.jpg,,
Image_List_2,,,,,,,,,,,,,,,,44474,2020-11-10_18h51.32.615,lingCatScenes,2020.1.3,Win32,60,"[1368,770]",,,"[""trial_slight_left_box"",""trial_ahead_box"",""trial_slight_right_box""]",,,,,,,,,,,,bowlingalley3.jpg,space,3.91856,"[0.00974025974025974,0.00974025974025974,-0.20584415584415586,-0.20584415584415586,-0.016233766233766232,-0.016233766233766232,0.20844155844155843,0.20844155844155843]","[-0.32597402597402597,-0.32597402597402597,-0.30454545454545456,-0.30454545454545456,-0.29935064935064937,-0.29935064935064937,-0.2902597402597403,-0.2902597402597403]","[1,0,1,0,1,0,1,0]","[0,0,0,0,0,0,0,0]","[0,0,0,0,0,0,0,0]","[2.31139500000063,2.3941850000010163,2.7950549999986833,2.8778800000000047,3.1451600000000326,3.2112950000009732,3.628694999999311,3.6782149999997955]","[""trial_slight_left_box"",""trial_slight_left_box"",""trial_ahead_box"",""trial_ahead_box"",""trial_slight_right_box"",""trial_slight_right_box""]",0,96,96,13,1,balconyIN2.jpg,beach2.jpg,boardwalk4.jpg,backyard6.jpg,,
Image_List_2,,,,,,,,,,,,,,,,44474,2020-11-10_18h51.32.615,lingCatScenes,2020.1.3,Win32,60,"[1368,770]",,,"[""trial_ahead_box"",""trial_left_box"",""trial_right_box""]",,,,,,,,,,,,pavilion.jpg,space,5.860725,"[0.01883116883116883,0.01883116883116883,-0.38376623376623376,-0.38376623376623376,0.4103896103896104,0.4103896103896104]","[-0.30064935064935067,-0.30064935064935067,-0.2909090909090909,-0.2909090909090909,-0.30454545454545456,-0.30454545454545456]","[1,0,1,0,1,0]","[0,0,0,0,0,0]","[0,0,0,0,0,0]","[2.7437000000027183,2.809880000000703,3.4608950000000505,3.527200000000562,4.278065000002243,4.361039999999775]","[""trial_ahead_box"",""trial_ahead_box"",""trial_left_box"",""trial_left_box"",""trial_right_box"",""trial_right_box""]",0,97,97,70,1,lockerroom4.jpg,lockerroom3.jpg,minigolf8.jpg,igloo.jpg,,
Image_List_2,,,,,,,,,,,,,,,,44474,2020-11-10_18h51.32.615,lingCatScenes,2020.1.3,Win32,60,"[1368,770]",,,"[""trial_right_box""]",,,,,,,,,,,,volleyballcourt4.jpg,space,2.719755,"[0.39675324675324675,0.39675324675324675]","[-0.30584415584415586,-0.30584415584415586]","[1,0]","[0,0]","[0,0]","[1.4264150000016116,1.492480000000569]","[""trial_right_box"",""trial_right_box""]",0,98,98,93,1,tollbooth8.jpg,staircase4.jpg,warehouseoutside2.jpg,tenniscourt.jpg,,
Image_List_2,,,,,,,,,,,,,,,,44474,2020-11-10_18h51.32.615,lingCatScenes,2020.1.3,Win32,60,"[1368,770]",,,"[""trial_sharp_left_box"",""trial_sharp_right_box""]",,,,,,,,,,,,greenhouse5.jpg,space,4.49344,"[-0.6116883116883117,-0.6116883116883117,0.6474025974025974,0.6474025974025974,0.6181818181818182,0.6181818181818182]","[-0.31103896103896106,-0.31103896103896106,-0.30194805194805197,-0.30194805194805197,-0.30454545454545456,-0.30454545454545456]","[1,0,1,0,1,0]","[0,0,0,0,0,0]","[0,0,0,0,0,0]","[3.109425000002375,3.1590450000002193,3.8598750000020345,3.9092600000003586,4.109820000001491,4.159475000000498]","[""trial_sharp_left_box"",""trial_sharp_left_box"",""trial_sharp_right_box"",""trial_sharp_right_box""]",0,99,99,49,1,frontDoor3.jpg,flowershop3.jpg,greenhouse.jpg,farm2.jpg,,
Image_List_2,,,,,,,,,,,,,,,,44474,2020-11-10_18h51.32.615,lingCatScenes,2020.1.3,Win32,60,,,,,,,,,,,,,,,,,,,,,,,,,,,,,,,,,,,space,26.9005
