image_list,key_resp_intructions.keys,key_resp_intructions.rt,key_resp_intructions_3.keys,key_resp_intructions_3.rt,PracticeComplete_2.keys,PracticeComplete_2.rt,PracticeComplete_3.keys,PracticeComplete_3.rt,demo_trials.thisRepN,demo_trials.thisTrialN,demo_trials.thisN,demo_trials.thisIndex,demo_trials.ran,demo_images,path_images,participant,date,expName,psychopyVersion,OS,frameRate,windowSize,drawing,numDrawings,drawingSizes,practice_complete.keys,practice_complete.rt,PracticeComplete.keys,PracticeComplete.rt,practice_trials.thisRepN,practice_trials.thisTrialN,practice_trials.thisN,practice_trials.thisIndex,practice_trials.ran,practice_images,feedback_images,key_resp_intructions_2.keys,key_resp_intructions_2.rt,Image_List_4,trial_complete.keys,trial_complete.rt,trials.thisRepN,trials.thisTrialN,trials.thisN,trials.thisIndex,trials.ran,Image_List_1,Image_List_2,Image_List_3,Image_List_5,key_resp.keys,key_resp.rt
Image_List_4,space,2.665505,space,2.35332,space,1.565025,space,0.981955,0,0,0,4,1,left.jpg,left_path.jpg,44480,2020-11-19_16h13.37.037,analogCatScenes,2020.1.3,MacIntel,60,,,,,,,,,,,,,,,,,,,,,,,,,,,,,,,
Image_List_4,,,,,space,0.65,space,1.135885,0,1,1,3,1,ahead_right_left.jpg,ahead_right_left_path.jpg,44480,2020-11-19_16h13.37.037,analogCatScenes,2020.1.3,MacIntel,60,,,,,,,,,,,,,,,,,,,,,,,,,,,,,,,
Image_List_4,,,,,space,0.327805,space,0.54991,0,2,2,2,1,ahead_right.jpg,ahead_right_path.jpg,44480,2020-11-19_16h13.37.037,analogCatScenes,2020.1.3,MacIntel,60,,,,,,,,,,,,,,,,,,,,,,,,,,,,,,,
Image_List_4,,,,,space,0.44216,space,0.478075,0,3,3,6,1,right_left.jpg,right_left_path.jpg,44480,2020-11-19_16h13.37.037,analogCatScenes,2020.1.3,MacIntel,60,,,,,,,,,,,,,,,,,,,,,,,,,,,,,,,
Image_List_4,,,,,space,0.39075,space,1.117285,0,4,4,1,1,ahead_left.jpg,ahead_left_path.jpg,44480,2020-11-19_16h13.37.037,analogCatScenes,2020.1.3,MacIntel,60,,,,,,,,,,,,,,,,,,,,,,,,,,,,,,,
Image_List_4,,,,,space,0.76181,space,0.54278,0,5,5,5,1,right.jpg,right_path.jpg,44480,2020-11-19_16h13.37.037,analogCatScenes,2020.1.3,MacIntel,60,,,,,,,,,,,,,,,,,,,,,,,,,,,,,,,
Image_List_4,,,,,space,0.94273,space,0.52306,0,6,6,0,1,ahead.jpg,ahead_path.jpg,44480,2020-11-19_16h13.37.037,analogCatScenes,2020.1.3,MacIntel,60,,,,,,,,,,,,,,,,,,,,,,,,,,,,,,,
Image_List_4,,,,,,,,,,,,,,,,44480,2020-11-19_16h13.37.037,analogCatScenes,2020.1.3,MacIntel,60,"[1440,900]",[],0,[],space,0.511025,space,0.82728,0,0,0,1,1,ahead_left_2.jpg,ahead_left_2_path.jpg,,,,,,,,,,,,,,,,
Image_List_4,,,,,,,,,,,,,,,,44480,2020-11-19_16h13.37.037,analogCatScenes,2020.1.3,MacIntel,60,"[1440,900]",[],0,[],space,0.752555,space,0.47526,0,1,1,0,1,ahead_2.jpg,ahead_2_path.jpg,,,,,,,,,,,,,,,,
Image_List_4,,,,,,,,,,,,,,,,44480,2020-11-19_16h13.37.037,analogCatScenes,2020.1.3,MacIntel,60,"[1440,900]",[],0,[],space,0.677935,space,0.454955,0,2,2,4,1,left_2.jpg,left_2_path.jpg,,,,,,,,,,,,,,,,
Image_List_4,,,,,,,,,,,,,,,,44480,2020-11-19_16h13.37.037,analogCatScenes,2020.1.3,MacIntel,60,"[1440,900]",[],0,[],space,0.89433,space,0.4995,0,3,3,6,1,right_left_2.jpg,right_left_2_path.jpg,,,,,,,,,,,,,,,,
Image_List_4,,,,,,,,,,,,,,,,44480,2020-11-19_16h13.37.037,analogCatScenes,2020.1.3,MacIntel,60,"[1440,900]",[],0,[],space,0.67417,space,0.536425,0,4,4,5,1,right_2.jpg,right_2_path.jpg,,,,,,,,,,,,,,,,
Image_List_4,,,,,,,,,,,,,,,,44480,2020-11-19_16h13.37.037,analogCatScenes,2020.1.3,MacIntel,60,"[1440,900]",[],0,[],space,0.93875,space,0.77306,0,5,5,2,1,ahead_right_2.jpg,ahead_right_2_path.jpg,,,,,,,,,,,,,,,,
Image_List_4,,,,,,,,,,,,,,,,44480,2020-11-19_16h13.37.037,analogCatScenes,2020.1.3,MacIntel,60,"[1440,900]",[],0,[],space,0.77732,space,0.794665,0,6,6,3,1,ahead_right_left_2.jpg,ahead_right_left_2_path.jpg,,,,,,,,,,,,,,,,
Image_List_4,,,,,,,,,,,,,,,,44480,2020-11-19_16h13.37.037,analogCatScenes,2020.1.3,MacIntel,60,"[1440,900]",[],0,[],,,,,,,,,,,,space,3.15264,weightroom4.jpg,space,0.834415,0,0,0,95,1,waitingroom2.jpg,warehouse2.jpg,stripmall6.jpg,tvstudio3.jpg,,
Image_List_4,,,,,,,,,,,,,,,,44480,2020-11-19_16h13.37.037,analogCatScenes,2020.1.3,MacIntel,60,"[1440,900]",[],0,[],,,,,,,,,,,,,,sculpturegarden2.jpg,space,0.927785,0,1,1,87,1,restaurantkitchen2.jpg,theater2.jpg,savanna.jpg,RVinside2.jpg,,
Image_List_4,,,,,,,,,,,,,,,,44480,2020-11-19_16h13.37.037,analogCatScenes,2020.1.3,MacIntel,60,"[1440,900]","[[[0.0007899305555555555,-0.20284288194444444],[0.0007899305555555555,-0.20284288194444444],[0.0007899305555555555,-0.20284288194444444],[0.0007899305555555555,-0.20284288194444444],[0.0007899305555555555,-0.20284288194444444],[0.0007899305555555555,-0.20284288194444444],[0.0007899305555555555,-0.20284288194444444],[0.0007899305555555555,-0.20284288194444444],[0.0007899305555555555,-0.20284288194444444],[0.0007899305555555555,-0.20206163194444443],[0.0007899305555555555,-0.19795572916666668],[0.0007899305555555555,-0.19325520833333334],[0.0007899305555555555,-0.18730034722222222],[-0.00015625,-0.18068576388888888],[-0.0017404513888888888,-0.1769921875],[-0.004578993055555556,-0.17091145833333332],[-0.008897569444444444,-0.1607421875],[-0.0119921875,-0.1519704861111111],[-0.01529513888888889,-0.14151041666666667],[-0.016809895833333335,-0.13405381944444444],[-0.018823784722222223,-0.12599826388888888],[-0.02021267361111111,-0.12004340277777778],[-0.021223958333333334,-0.11192708333333333],[-0.022356770833333334,-0.10037326388888888],[-0.024366319444444444,-0.08216145833333334],[-0.028537326388888888,-0.03371961805555555],[-0.03236111111111111,0.009270833333333334],[-0.03703125,0.0506640625],[-0.04010416666666667,0.07284722222222222],[-0.043897569444444444,0.09696614583333334],[-0.046163194444444444,0.10883246527777778],[-0.04836805555555555,0.11929253472222222],[-0.049756944444444444,0.12524739583333333],[-0.05096354166666667,0.12881944444444443],[-0.051284722222222225,0.13050347222222222],[-0.051605902777777775,0.13282552083333332],[-0.05230902777777778,0.1349826388888889],[-0.05319444444444445,0.14027777777777778],[-0.054049479166666664,0.1449782986111111],[-0.05493489583333333,0.1502734375],[-0.05572916666666667,0.15384548611111112],[-0.05605034722222222,0.1555295138888889],[-0.05605034722222222,0.1555295138888889],[-0.05605034722222222,0.1555295138888889]],[[-0.00021701388888888888,-0.19108072916666666],[-0.00021701388888888888,-0.19108072916666666],[-0.00021701388888888888,-0.19108072916666666],[-0.00021701388888888888,-0.19108072916666666],[-0.00021701388888888888,-0.19108072916666666],[-0.00021701388888888888,-0.19108072916666666],[-0.00021701388888888888,-0.19108072916666666],[-0.00021701388888888888,-0.19108072916666666],[-0.00021701388888888888,-0.19108072916666666],[-0.00021701388888888888,-0.1908203125],[0.0025173611111111113,-0.18694010416666668],[0.008077256944444444,-0.18036458333333333],[0.017604166666666667,-0.17082465277777778],[0.04045572916666667,-0.15128038194444443],[0.06715711805555556,-0.13061197916666667],[0.09706597222222223,-0.1116232638888889],[0.11380208333333333,-0.1029470486111111],[0.12787760416666666,-0.09867621527777778],[0.1409375,-0.095703125],[0.15138888888888888,-0.0940625],[0.1590842013888889,-0.09251736111111111],[0.16713107638888888,-0.09100694444444445],[0.17307725694444445,-0.0896484375],[0.17776909722222223,-0.08835069444444445],[0.18145833333333333,-0.08629340277777778],[0.18633680555555557,-0.0835763888888889],[0.19288628472222222,-0.07966579861111112],[0.1959765625,-0.077734375],[0.19913194444444443,-0.0757421875],[0.20222222222222222,-0.0738107638888889],[0.2043706597222222,-0.07241319444444444],[0.20604600694444444,-0.07174045138888889],[0.20731336805555556,-0.07078125],[0.20788628472222223,-0.07019965277777777],[0.20880642361111112,-0.06958767361111111],[0.2104513888888889,-0.067265625],[0.21161892361111112,-0.06416666666666666],[0.21341145833333333,-0.059340277777777777],[0.21482204861111112,-0.05325954861111111],[0.21585503472222223,-0.04430121527777778],[0.2167013888888889,-0.039600694444444445],[0.21713975694444446,-0.034305555555555554],[0.2175173611111111,-0.030733506944444444],[0.21789496527777777,-0.02816840277777778],[0.21852864583333334,-0.02689236111111111],[0.2198263888888889,-0.0245703125],[0.22165798611111112,-0.0223828125],[0.2244357638888889,-0.020008680555555554],[0.22771701388888888,-0.01754340277777778],[0.23168402777777777,-0.014509548611111112],[0.23775607638888888,-0.011263020833333333],[0.24162760416666668,-0.008671875],[0.24829427083333333,-0.005334201388888889],[0.25442708333333336,-0.0020225694444444445],[0.2591189236111111,0.00012586805555555555],[0.2692100694444444,0.004913194444444445],[0.2753732638888889,0.008250868055555555],[0.28291666666666665,0.012278645833333334],[0.2912109375,0.016966145833333335],[0.29900173611111114,0.021653645833333332],[0.3045703125,0.02490017361111111],[0.3096050347222222,0.028559027777777777],[0.31345052083333336,0.03197048611111111],[0.3168315972222222,0.035802951388888886],[0.31928819444444445,0.03909288194444444],[0.3214279513888889,0.04275607638888889],[0.3220616319444444,0.04409288194444445],[0.3226345486111111,0.04467447916666667],[0.3226345486111111,0.04496527777777778],[0.3226345486111111,0.04523871527777778],[0.3226345486111111,0.04551215277777778],[0.3226345486111111,0.04642361111111111],[0.3226345486111111,0.04700520833333333],[0.3206293402777778,0.048663194444444446],[0.3193532986111111,0.04993923611111111],[0.31807725694444444,0.0508984375],[0.3171484375,0.05182725694444444],[0.31656684027777776,0.052408854166666664],[0.31656684027777776,0.05299045138888889],[0.31656684027777776,0.05326388888888889],[0.31656684027777776,0.05326388888888889],[0.31656684027777776,0.05326388888888889],[0.31656684027777776,0.05352864583333333],[0.31656684027777776,0.053797743055555555],[0.31656684027777776,0.054071180555555556],[0.31656684027777776,0.05434027777777778],[0.31656684027777776,0.05434027777777778],[0.31601996527777776,0.05434027777777778],[0.31601996527777776,0.05434027777777778],[0.31601996527777776,0.05434027777777778]]]",2,"[44,90]",,,,,,,,,,,,,,botanicalGarden5.jpg,space,10.242685,0,2,2,14,1,ballroom1.jpg,breakroom5.jpg,bistrooutdoor5.jpg,ballroom3.jpg,,
Image_List_4,,,,,,,,,,,,,,,,44480,2020-11-19_16h13.37.037,analogCatScenes,2020.1.3,MacIntel,60,"[1440,900]","[[[0.0013237847222222223,-0.19686631944444444],[0.0013237847222222223,-0.19686631944444444],[0.0013237847222222223,-0.19686631944444444],[0.0013237847222222223,-0.19686631944444444],[0.0013237847222222223,-0.19686631944444444],[0.0013237847222222223,-0.19686631944444444],[0.0013237847222222223,-0.19686631944444444],[0.0013237847222222223,-0.19686631944444444],[0.0013237847222222223,-0.19686631944444444],[0.0013237847222222223,-0.19686631944444444],[0.0013237847222222223,-0.19686631944444444],[0.001579861111111111,-0.19686631944444444],[0.006271701388888889,-0.19686631944444444],[0.016241319444444444,-0.195859375],[0.028567708333333334,-0.19469184027777778],[0.04802517361111111,-0.19198784722222223],[0.07610677083333334,-0.18944878472222224],[0.09240017361111111,-0.18745659722222222],[0.12111111111111111,-0.18516493055555555],[0.14522135416666668,-0.18365885416666666],[0.162578125,-0.18161892361111112],[0.18302951388888888,-0.18020833333333333],[0.2097873263888889,-0.17750868055555555],[0.22586371527777777,-0.17684895833333333],[0.23993923611111112,-0.1756206597222222],[0.25213975694444446,-0.174453125],[0.2634331597222222,-0.1727517361111111],[0.2722612847222222,-0.17067274305555555],[0.2783333333333333,-0.1683376736111111],[0.2849392361111111,-0.16597222222222222],[0.2896310763888889,-0.1642361111111111],[0.2952300347222222,-0.16262586805555557],[0.29778645833333334,-0.1618923611111111],[0.29986979166666666,-0.1618923611111111],[0.30113715277777775,-0.1618923611111111],[0.30171006944444445,-0.1618923611111111],[0.30171006944444445,-0.1618923611111111],[0.30171006944444445,-0.1618923611111111],[0.30171006944444445,-0.1618923611111111],[0.30171006944444445,-0.1618923611111111],[0.30171006944444445,-0.1618923611111111]],[[-0.0005078125,-0.19327690972222222],[-0.0005078125,-0.19327690972222222],[-0.0005078125,-0.19327690972222222],[-0.0005078125,-0.19327690972222222],[-0.0005078125,-0.19327690972222222],[-0.0005078125,-0.19327690972222222],[-0.0005078125,-0.19327690972222222],[-0.0028211805555555555,-0.19327690972222222],[-0.007508680555555556,-0.19327690972222222],[-0.010546875,-0.19327690972222222],[-0.014118923611111112,-0.19327690972222222],[-0.020794270833333333,-0.19327690972222222],[-0.03641059027777778,-0.19327690972222222],[-0.0621484375,-0.19327690972222222],[-0.07951388888888888,-0.19267795138888888],[-0.09772569444444444,-0.18997829861111112],[-0.10789930555555556,-0.18828125],[-0.11926649305555556,-0.186015625],[-0.1273220486111111,-0.18500868055555555],[-0.13393663194444444,-0.1840625],[-0.14139322916666666,-0.18352430555555554],[-0.14621961805555556,-0.18352430555555554],[-0.15151475694444444,-0.18352430555555554],[-0.15621527777777777,-0.18308159722222223],[-0.16296875,-0.18225694444444446],[-0.16707465277777778,-0.1806076388888889],[-0.169765625,-0.17867621527777777],[-0.17192274305555555,-0.17727864583333333],[-0.17319878472222222,-0.17631944444444445],[-0.17412760416666667,-0.1756814236111111],[-0.1744184027777778,-0.175390625],[-0.1744184027777778,-0.175390625],[-0.1744184027777778,-0.175390625],[-0.1744184027777778,-0.175390625],[-0.1744184027777778,-0.175390625],[-0.1744184027777778,-0.175390625],[-0.1744184027777778,-0.175390625],[-0.1744184027777778,-0.175390625],[-0.1744184027777778,-0.175390625],[-0.1744184027777778,-0.175390625],[-0.1744184027777778,-0.175390625],[-0.1744184027777778,-0.175390625],[-0.1744184027777778,-0.175390625],[-0.1744184027777778,-0.175390625],[-0.1744184027777778,-0.175390625]],[[0.00022569444444444443,-0.18913194444444445],[0.00022569444444444443,-0.18913194444444445],[0.00022569444444444443,-0.18913194444444445],[0.00022569444444444443,-0.18913194444444445],[0.00022569444444444443,-0.18913194444444445],[0.00022569444444444443,-0.18913194444444445],[0.00022569444444444443,-0.18913194444444445],[0.00022569444444444443,-0.18913194444444445],[0.00022569444444444443,-0.1880859375],[0.00022569444444444443,-0.1743359375],[0.00022569444444444443,-0.1621267361111111],[0.00022569444444444443,-0.1460546875],[0.00022569444444444443,-0.11092447916666667],[0.00022569444444444443,-0.06953125],[0.00022569444444444443,-0.028203125],[-0.0004470486111111111,-0.0055078125],[-0.001953125,0.010473090277777777],[-0.001953125,0.024557291666666668],[-0.001953125,0.03267361111111111],[-0.001953125,0.04127170138888889],[-0.001953125,0.04609809027777778],[-0.0023654513888888887,0.050798611111111114],[-0.003537326388888889,0.05437065972222222],[-0.004678819444444445,0.05740885416666667],[-0.005729166666666666,0.05950086805555556],[-0.006371527777777778,0.060776909722222223],[-0.007391493055555556,0.0624609375],[-0.008003472222222223,0.06338975694444444],[-0.008611111111111111,0.06431423611111112],[-0.009192708333333334,0.06518663194444445],[-0.0098046875,0.06611545138888889],[-0.010125868055555556,0.06739149305555556],[-0.010447048611111112,0.06866753472222223],[-0.01115017361111111,0.07075954861111111],[-0.011471354166666666,0.07203559027777778],[-0.011471354166666666,0.0726171875],[-0.011471354166666666,0.0726171875],[-0.011471354166666666,0.0726171875],[-0.011471354166666666,0.0726171875],[-0.011471354166666666,0.0726171875],[-0.011471354166666666,0.0726171875]]]",3,"[41,45,41]",,,,,,,,,,,,,,metroInside1.jpg,space,6.495785,0,3,3,69,1,liquorstore8.jpg,parkinglot2.jpg,livingroom.jpg,icecream2.jpg,,
Image_List_4,,,,,,,,,,,,,,,,44480,2020-11-19_16h13.37.037,analogCatScenes,2020.1.3,MacIntel,60,"[1440,900]","[[[0.003914930555555555,-0.1955859375],[0.003914930555555555,-0.1955859375],[0.003914930555555555,-0.1955859375],[0.003914930555555555,-0.1955859375],[0.003914930555555555,-0.1955859375],[0.003914930555555555,-0.1955859375],[0.003914930555555555,-0.1955859375],[0.003914930555555555,-0.1955859375],[0.003914930555555555,-0.1955859375],[0.003914930555555555,-0.1955859375],[0.003914930555555555,-0.1955859375],[0.003914930555555555,-0.1955859375],[0.003914930555555555,-0.1955859375],[0.003914930555555555,-0.1955859375],[0.003914930555555555,-0.1955859375],[0.003914930555555555,-0.1955859375],[0.003914930555555555,-0.1955859375],[0.008506944444444444,-0.1955859375],[0.017335069444444445,-0.19454427083333334],[0.026944444444444444,-0.19293402777777777],[0.04205295138888889,-0.1916753472222222],[0.05919270833333334,-0.1896701388888889],[0.08380642361111111,-0.18731770833333333],[0.0994140625,-0.18605902777777777],[0.1176171875,-0.183359375],[0.14024739583333334,-0.17902777777777779],[0.15244791666666666,-0.1749782986111111],[0.1629253472222222,-0.16860243055555554],[0.17108072916666667,-0.15930989583333333],[0.17631510416666665,-0.1476953125],[0.1786935763888889,-0.13457899305555557],[0.17928819444444444,-0.12049479166666667],[0.17809461805555554,-0.10641059027777777],[0.1733203125,-0.09329427083333333],[0.1677951388888889,-0.07983506944444445],[0.16169704861111112,-0.06372395833333333],[0.158046875,-0.05488715277777778],[0.153671875,-0.04802517361111111],[0.1483203125,-0.04213975694444445],[0.14076822916666668,-0.03861545138888889],[0.13030815972222223,-0.03697482638888889],[0.1190060763888889,-0.03697482638888889],[0.106796875,-0.03697482638888889],[0.09934027777777778,-0.03804253472222222],[0.09338541666666667,-0.039392361111111114],[0.08876736111111111,-0.04052517361111111],[0.08876736111111111,-0.04052517361111111],[0.08876736111111111,-0.04052517361111111],[0.08876736111111111,-0.04052517361111111],[0.08876736111111111,-0.04052517361111111],[0.08876736111111111,-0.04052517361111111],[0.08876736111111111,-0.04052517361111111],[0.08876736111111111,-0.04052517361111111]],[[-0.0056640625,-0.19523871527777778],[-0.0056640625,-0.19523871527777778],[-0.0056640625,-0.19523871527777778],[-0.0056640625,-0.19523871527777778],[-0.0056640625,-0.19523871527777778],[-0.0056640625,-0.19523871527777778],[-0.0056640625,-0.19523871527777778],[-0.0056640625,-0.19523871527777778],[-0.0056640625,-0.19523871527777778],[-0.009952256944444444,-0.19523871527777778],[-0.022217881944444445,-0.19523871527777778],[-0.039396701388888886,-0.1945486111111111],[-0.059856770833333336,-0.19241753472222223],[-0.10284722222222223,-0.1895659722222222],[-0.14417534722222222,-0.1895659722222222],[-0.16965711805555556,-0.1895659722222222],[-0.19752604166666668,-0.1895659722222222],[-0.215859375,-0.1895659722222222],[-0.23447916666666666,-0.19017795138888888],[-0.24493923611111112,-0.19017795138888888],[-0.2545572916666667,-0.18643229166666667],[-0.263671875,-0.18159288194444445],[-0.2714713541666667,-0.17640190972222222],[-0.27685763888888887,-0.17154947916666666],[-0.2837456597222222,-0.16411024305555555],[-0.2882769097222222,-0.15706163194444445],[-0.2923046875,-0.1495095486111111],[-0.29582899305555554,-0.14145399305555556],[-0.30008680555555556,-0.13256944444444443],[-0.30245225694444444,-0.12595486111111112],[-0.3053515625,-0.11927951388888888],[-0.306796875,-0.1119921875],[-0.30733506944444444,-0.100625],[-0.30733506944444444,-0.08750868055555555],[-0.30733506944444444,-0.07855034722222222],[-0.30733506944444444,-0.06971354166666667],[-0.30733506944444444,-0.06303819444444445],[-0.30692708333333335,-0.05946614583333333],[-0.3065494791666667,-0.05626302083333334],[-0.3065494791666667,-0.054986979166666665],[-0.3065494791666667,-0.054986979166666665],[-0.3065494791666667,-0.054986979166666665],[-0.3065494791666667,-0.054986979166666665],[-0.3065494791666667,-0.054986979166666665],[-0.3065494791666667,-0.054986979166666665],[-0.3065494791666667,-0.054986979166666665],[-0.3065494791666667,-0.054986979166666665],[-0.3065494791666667,-0.054986979166666665],[-0.3065494791666667,-0.054986979166666665],[-0.3065494791666667,-0.054986979166666665],[-0.3065494791666667,-0.054986979166666665]]]",2,"[53,51]",,,,,,,,,,,,,,museum4.jpg,space,5.389935,0,4,4,72,1,museum5.jpg,pharmacy4.jpg,musicStore1.jpg,kindergarten_classroom.jpg,,
Image_List_4,,,,,,,,,,,,,,,,44480,2020-11-19_16h13.37.037,analogCatScenes,2020.1.3,MacIntel,60,"[1440,900]","[[[0.0023003472222222223,-0.198125],[0.0023003472222222223,-0.198125],[0.0023003472222222223,-0.198125],[0.0023003472222222223,-0.198125],[0.0023003472222222223,-0.198125],[0.0023003472222222223,-0.198125],[0.0023003472222222223,-0.198125],[0.0023003472222222223,-0.198125],[0.0023003472222222223,-0.198125],[0.0023003472222222223,-0.198125],[0.0017838541666666667,-0.198125],[-0.004574652777777778,-0.19371527777777778],[-0.014470486111111111,-0.18818142361111112],[-0.03173611111111111,-0.17981336805555556],[-0.05797309027777778,-0.1678732638888889],[-0.10276909722222222,-0.14673611111111112],[-0.12454427083333333,-0.1375824652777778],[-0.14834635416666667,-0.1260546875],[-0.16739583333333333,-0.11618489583333333],[-0.18291232638888888,-0.10539930555555556],[-0.19551215277777778,-0.0966232638888889],[-0.20774739583333332,-0.08865451388888888],[-0.21879774305555555,-0.08225260416666667],[-0.2292578125,-0.0778515625],[-0.2392404513888889,-0.07403645833333333],[-0.24694444444444444,-0.07095052083333334],[-0.25242621527777775,-0.067734375],[-0.2571267361111111,-0.06517795138888889],[-0.26069878472222224,-0.06318576388888889],[-0.2638628472222222,-0.061193576388888886],[-0.26642795138888886,-0.060460069444444445],[-0.2685199652777778,-0.060460069444444445],[-0.27108506944444444,-0.060460069444444445],[-0.2736458333333333,-0.060460069444444445],[-0.2766840277777778,-0.060460069444444445],[-0.28076822916666666,-0.060460069444444445],[-0.2833333333333333,-0.060460069444444445],[-0.2850173611111111,-0.060460069444444445],[-0.28594618055555554,-0.060460069444444445],[-0.28621961805555557,-0.060460069444444445],[-0.2868012152777778,-0.060460069444444445],[-0.2868012152777778,-0.060460069444444445],[-0.2868012152777778,-0.060460069444444445],[-0.2868012152777778,-0.060460069444444445],[-0.2868012152777778,-0.060460069444444445],[-0.2868012152777778,-0.060460069444444445],[-0.2868012152777778,-0.060460069444444445],[-0.2868012152777778,-0.060460069444444445],[-0.2868012152777778,-0.060460069444444445]]]",1,[49],,,,,,,,,,,,,,ticket_counter6.jpg,space,3.992785,0,5,5,91,1,shoestore2.jpg,trainStation5.jpg,skatepark5.jpg,sidewalk3.jpg,,
Image_List_4,,,,,,,,,,,,,,,,44480,2020-11-19_16h13.37.037,analogCatScenes,2020.1.3,MacIntel,60,"[1440,900]","[[[0.0018663194444444445,-0.20098090277777778],[0.0018663194444444445,-0.20098090277777778],[0.0018663194444444445,-0.20098090277777778],[0.0018663194444444445,-0.20098090277777778],[0.0018663194444444445,-0.20098090277777778],[0.0018663194444444445,-0.20098090277777778],[0.0018663194444444445,-0.20098090277777778],[0.0018663194444444445,-0.20098090277777778],[0.0018663194444444445,-0.19597222222222221],[-0.00043836805555555556,-0.19001736111111112],[-0.0026475694444444446,-0.18472222222222223],[-0.008676215277777777,-0.17417100694444446],[-0.014826388888888889,-0.16168402777777777],[-0.028815104166666668,-0.13827690972222223],[-0.03634114583333333,-0.1244140625],[-0.04168402777777778,-0.11624131944444445],[-0.048841145833333335,-0.10460069444444445],[-0.053875868055555554,-0.09755208333333333],[-0.06047743055555556,-0.08872395833333334],[-0.06744791666666666,-0.07767361111111111],[-0.07707465277777778,-0.0641579861111111],[-0.09248697916666666,-0.0426171875],[-0.10164496527777778,-0.028728298611111112],[-0.11292534722222222,-0.011089409722222223],[-0.12587239583333334,0.015394965277777778],[-0.1316623263888889,0.031440972222222224],[-0.13523871527777778,0.044557291666666665],[-0.13750434027777778,0.055859375],[-0.13909722222222223,0.06540364583333333],[-0.14117621527777777,0.07424045138888889],[-0.14325520833333333,0.08307725694444444],[-0.1453342013888889,0.0919140625],[-0.14625,0.09799479166666666],[-0.14669270833333334,0.10600260416666667],[-0.14669270833333334,0.1091015625],[-0.14669270833333334,0.11078559027777778],[-0.14669270833333334,0.1113671875],[-0.14669270833333334,0.11165798611111111],[-0.14669270833333334,0.11222222222222222],[-0.14536458333333332,0.11321180555555556],[-0.14321614583333334,0.11391493055555556],[-0.14065972222222223,0.11499565972222223],[-0.13812065972222223,0.11572048611111112],[-0.13540364583333334,0.11607204861111112],[-0.13413628472222222,0.11607204861111112],[-0.13356336805555555,0.11607204861111112],[-0.13356336805555555,0.11607204861111112],[-0.13356336805555555,0.11607204861111112],[-0.13356336805555555,0.11607204861111112],[-0.13356336805555555,0.11607204861111112],[-0.13356336805555555,0.11607204861111112],[-0.13356336805555555,0.11607204861111112],[-0.13356336805555555,0.11607204861111112]]]",1,[53],,,,,,,,,,,,,,boardwalk4.jpg,space,3.49272,0,6,6,13,1,balconyIN2.jpg,bowlingalley3.jpg,beach2.jpg,backyard6.jpg,,
Image_List_4,,,,,,,,,,,,,,,,44480,2020-11-19_16h13.37.037,analogCatScenes,2020.1.3,MacIntel,60,"[1440,900]","[[[0.0020963541666666665,-0.2003081597222222],[0.0020963541666666665,-0.2003081597222222],[0.0020963541666666665,-0.2003081597222222],[0.0020963541666666665,-0.2003081597222222],[0.0020963541666666665,-0.2003081597222222],[0.0020963541666666665,-0.2003081597222222],[0.0020963541666666665,-0.2003081597222222],[0.0020963541666666665,-0.2003081597222222],[0.0020963541666666665,-0.2003081597222222],[0.0020963541666666665,-0.2003081597222222],[0.0020963541666666665,-0.2003081597222222],[0.006961805555555555,-0.19983506944444446],[0.015069444444444444,-0.19680989583333333],[0.024678819444444444,-0.19359809027777777],[0.04159722222222222,-0.18682291666666667],[0.061749131944444445,-0.1774609375],[0.07725694444444445,-0.16733506944444446],[0.09444010416666666,-0.1494748263888889],[0.10405815972222222,-0.1359592013888889],[0.11420572916666667,-0.11784722222222223],[0.1239453125,-0.09666666666666666],[0.13171006944444444,-0.07692708333333333],[0.13803385416666666,-0.05646701388888889],[0.14216579861111112,-0.037161458333333335],[0.1445703125,-0.010290798611111112],[0.14528645833333334,0.007074652777777778],[0.14528645833333334,0.02734375],[0.14528645833333334,0.051987847222222223],[0.14528645833333334,0.06516493055555556],[0.14528645833333334,0.075625],[0.14528645833333334,0.08229166666666667],[0.14481336805555556,0.0896267361111111],[0.14310329861111112,0.09432725694444444],[0.14072916666666666,0.09711371527777778],[0.13794270833333333,0.09948784722222222],[0.13528211805555557,0.10138888888888889],[0.1324609375,0.10354600694444445],[0.13182291666666668,0.10418402777777777],[0.13182291666666668,0.10418402777777777],[0.13182291666666668,0.10418402777777777],[0.13182291666666668,0.10418402777777777],[0.13182291666666668,0.10418402777777777],[0.13182291666666668,0.10418402777777777],[0.13182291666666668,0.10418402777777777],[0.13182291666666668,0.10418402777777777],[0.13182291666666668,0.10418402777777777],[0.13182291666666668,0.10418402777777777]]]",1,[47],,,,,,,,,,,,,,attic4.jpg,space,2.466655,0,7,7,5,1,artStudio3.jpg,bambooforest.jpg,auto_showroom4.jpg,amusement3.jpg,,
Image_List_4,,,,,,,,,,,,,,,,44480,2020-11-19_16h13.37.037,analogCatScenes,2020.1.3,MacIntel,60,"[1440,900]","[[[-0.0061805555555555555,-0.19550347222222222],[-0.0061805555555555555,-0.19550347222222222],[-0.0061805555555555555,-0.19550347222222222],[-0.0061805555555555555,-0.19550347222222222],[-0.0061805555555555555,-0.19550347222222222],[-0.0061805555555555555,-0.19550347222222222],[-0.0061805555555555555,-0.19550347222222222],[-0.0061805555555555555,-0.19550347222222222],[-0.0061805555555555555,-0.19550347222222222],[-0.008546006944444445,-0.19550347222222222],[-0.0181640625,-0.193359375],[-0.03262152777777778,-0.18702256944444445],[-0.04767361111111111,-0.18200520833333333],[-0.07898871527777777,-0.171796875],[-0.09854166666666667,-0.1655295138888889],[-0.12137586805555556,-0.15816840277777777],[-0.145078125,-0.1469704861111111],[-0.15699652777777778,-0.13756076388888888],[-0.16491319444444444,-0.128515625],[-0.1704123263888889,-0.11915364583333334],[-0.17315104166666667,-0.1086935763888889],[-0.17428385416666667,-0.09739149305555556],[-0.17428385416666667,-0.08909288194444444],[-0.17428385416666667,-0.07848090277777778],[-0.17428385416666667,-0.07193576388888889],[-0.17428385416666667,-0.07193576388888889],[-0.17428385416666667,-0.07193576388888889],[-0.17428385416666667,-0.07193576388888889],[-0.17428385416666667,-0.07193576388888889],[-0.17428385416666667,-0.07193576388888889],[-0.17428385416666667,-0.07193576388888889],[-0.17428385416666667,-0.07193576388888889],[-0.17428385416666667,-0.07193576388888889]],[[0.0042361111111111115,-0.19626302083333333],[0.0042361111111111115,-0.19626302083333333],[0.0042361111111111115,-0.19626302083333333],[0.0042361111111111115,-0.19626302083333333],[0.0042361111111111115,-0.19626302083333333],[0.0042361111111111115,-0.19626302083333333],[0.0042361111111111115,-0.19626302083333333],[0.0042361111111111115,-0.19626302083333333],[0.0042361111111111115,-0.19626302083333333],[0.0042361111111111115,-0.19626302083333333],[0.004613715277777777,-0.19370225694444446],[0.008038194444444445,-0.18687065972222222],[0.027144097222222222,-0.15890625],[0.039852430555555554,-0.14437934027777777],[0.09160590277777778,-0.08440538194444444],[0.11865885416666666,-0.05934895833333333],[0.13550347222222223,-0.041241319444444445],[0.146875,-0.029388020833333334],[0.15584201388888888,-0.01859375],[0.1590798611111111,-0.013016493055555555],[0.16051215277777778,-0.006388888888888889],[0.1596267361111111,-0.00109375],[0.1497829861111111,0.008689236111111111],[0.1434548611111111,0.0121875],[0.13611979166666666,0.014644097222222222],[0.13082465277777777,0.01552951388888889],[0.13082465277777777,0.01552951388888889],[0.13082465277777777,0.01552951388888889],[0.13082465277777777,0.01552951388888889],[0.13082465277777777,0.01552951388888889]]]",2,"[33,30]",,,,,,,,,,,,,,cave4.jpg,space,6.24237,0,8,8,20,1,boardwalk6.jpg,cave.jpg,campsite3.jpg,basketballcourt7.jpg,,
Image_List_4,,,,,,,,,,,,,,,,44480,2020-11-19_16h13.37.037,analogCatScenes,2020.1.3,MacIntel,60,"[1440,900]","[[[0.0017708333333333332,-0.20016927083333333],[0.0017708333333333332,-0.20016927083333333],[0.0017708333333333332,-0.20016927083333333],[0.0017708333333333332,-0.20016927083333333],[0.0017708333333333332,-0.20016927083333333],[0.0017708333333333332,-0.20016927083333333],[0.0017708333333333332,-0.20016927083333333],[0.0017708333333333332,-0.20016927083333333],[0.0017708333333333332,-0.19912760416666667],[0.006480034722222222,-0.19195746527777777],[0.018967013888888887,-0.178828125],[0.03406684027777778,-0.16428385416666666],[0.061236979166666664,-0.14061197916666668],[0.08978298611111112,-0.11559461805555556],[0.11388454861111111,-0.09145399305555556],[0.13219618055555554,-0.06574652777777777],[0.1424609375,-0.039878472222222225],[0.14327256944444444,-0.011909722222222223],[0.1425173611111111,0.006675347222222222],[0.13474392361111112,0.026414930555555556],[0.13034288194444443,0.03568576388888889],[0.12442274305555556,0.04513020833333333],[0.1233420138888889,0.04728732638888889],[0.1223828125,0.04792534722222222],[0.1223828125,0.04792534722222222],[0.1223828125,0.04792534722222222],[0.1223828125,0.04792534722222222],[0.1223828125,0.04792534722222222],[0.1223828125,0.04792534722222222],[0.1223828125,0.04792534722222222],[0.1223828125,0.04792534722222222],[0.1223828125,0.04792534722222222],[0.1223828125,0.04792534722222222]],[[-0.005373263888888889,-0.20575086805555556],[-0.005373263888888889,-0.20575086805555556],[-0.005373263888888889,-0.20575086805555556],[-0.005373263888888889,-0.20575086805555556],[-0.005373263888888889,-0.20575086805555556],[-0.005373263888888889,-0.20575086805555556],[-0.005373263888888889,-0.20575086805555556],[-0.005373263888888889,-0.20575086805555556],[-0.005373263888888889,-0.20575086805555556],[-0.006410590277777778,-0.20575086805555556],[-0.0131640625,-0.20618923611111112],[-0.02537326388888889,-0.20850694444444445],[-0.043585069444444444,-0.21188802083333333],[-0.06641927083333334,-0.21410590277777777],[-0.08287760416666666,-0.21482204861111112],[-0.10108940972222222,-0.2155078125],[-0.11820746527777778,-0.2155078125],[-0.13138454861111112,-0.2155078125],[-0.14450086805555556,-0.21252604166666667],[-0.15671006944444443,-0.2090407986111111],[-0.17735243055555555,-0.20355034722222223],[-0.18942708333333333,-0.19953559027777779],[-0.20163628472222223,-0.19488715277777777],[-0.21240885416666666,-0.189765625],[-0.22120659722222222,-0.18375868055555555],[-0.22746527777777778,-0.1770269097222222],[-0.23243055555555556,-0.16713107638888888],[-0.2341623263888889,-0.154921875],[-0.2341623263888889,-0.13986979166666666],[-0.23028211805555557,-0.11413194444444444],[-0.22307725694444444,-0.09774739583333333],[-0.21452690972222221,-0.08194878472222222],[-0.2073828125,-0.07002170138888889],[-0.201171875,-0.05984809027777778],[-0.19727430555555556,-0.05392795138888889],[-0.19362413194444444,-0.04888454861111111],[-0.19063368055555555,-0.04503038194444445],[-0.18845486111111112,-0.04319010416666667],[-0.18845486111111112,-0.04319010416666667],[-0.18845486111111112,-0.04319010416666667],[-0.18845486111111112,-0.04319010416666667],[-0.18845486111111112,-0.04319010416666667],[-0.18845486111111112,-0.04319010416666667],[-0.18845486111111112,-0.04319010416666667],[-0.18845486111111112,-0.04319010416666667],[-0.18845486111111112,-0.04319010416666667],[-0.18845486111111112,-0.04319010416666667],[-0.18845486111111112,-0.04319010416666667],[-0.18845486111111112,-0.04319010416666667],[-0.18845486111111112,-0.04319010416666667],[-0.18845486111111112,-0.04319010416666667],[-0.18845486111111112,-0.04319010416666667],[-0.18845486111111112,-0.04319010416666667],[-0.18845486111111112,-0.04319010416666667],[-0.18845486111111112,-0.04319010416666667],[-0.18845486111111112,-0.04319010416666667],[-0.18845486111111112,-0.04319010416666667],[-0.18845486111111112,-0.04319010416666667]]]",2,"[33,58]",,,,,,,,,,,,,,museum3.jpg,space,4.46227,0,9,9,71,1,metroInside2.jpg,pavilion5.jpg,metroInside3.jpg,jewelrystore.jpg,,
Image_List_4,,,,,,,,,,,,,,,,44480,2020-11-19_16h13.37.037,analogCatScenes,2020.1.3,MacIntel,60,"[1440,900]","[[[0.001796875,-0.20120225694444444],[0.001796875,-0.20120225694444444],[0.001796875,-0.20120225694444444],[0.001796875,-0.20120225694444444],[0.001796875,-0.20120225694444444],[0.001796875,-0.20120225694444444],[0.001796875,-0.20120225694444444],[0.001796875,-0.20120225694444444],[0.001796875,-0.19481770833333334],[0.001796875,-0.18519965277777778],[0.003932291666666666,-0.17558159722222222],[0.00787326388888889,-0.15846354166666668],[0.015824652777777778,-0.12850260416666667],[0.022400173611111112,-0.10819444444444444],[0.030533854166666666,-0.0786328125],[0.03591579861111111,-0.05329427083333333],[0.04323784722222222,-0.023980034722222224],[0.04743055555555555,-0.005394965277777778],[0.05319010416666667,0.01628472222222222],[0.05976996527777778,0.03274305555555555],[0.06347222222222222,0.04194878472222222],[0.06774305555555556,0.051566840277777776],[0.07207899305555555,0.06220920138888889],[0.07471354166666666,0.07116753472222222],[0.07659722222222222,0.07778211805555556],[0.07823350694444445,0.08194878472222222],[0.07986979166666666,0.08611545138888889],[0.08088107638888889,0.08827256944444445],[0.08151475694444445,0.0895486111111111],[0.08243489583333333,0.09016059027777777],[0.08306857638888888,0.09143663194444444],[0.08499131944444445,0.09453559027777778],[0.08772569444444445,0.09961371527777778],[0.08977430555555556,0.10331163194444444],[0.09134982638888889,0.10600260416666667],[0.09198350694444445,0.10727864583333334],[0.0925564236111111,0.10786024305555555],[0.0925564236111111,0.10815104166666667],[0.0925564236111111,0.10815104166666667],[0.0925564236111111,0.10870659722222223],[0.0925564236111111,0.10870659722222223],[0.0925564236111111,0.10870659722222223],[0.0925564236111111,0.10870659722222223],[0.0925564236111111,0.10870659722222223],[0.0925564236111111,0.10870659722222223],[0.0925564236111111,0.10870659722222223],[0.0925564236111111,0.10870659722222223],[0.0925564236111111,0.10870659722222223]]]",1,[48],,,,,,,,,,,,,,kindergarten_classroom6.jpg,space,2.66088,0,10,10,60,1,hometheater2.jpg,lightingstore3.jpg,homegarage.jpg,hallway.jpg,,
Image_List_4,,,,,,,,,,,,,,,,44480,2020-11-19_16h13.37.037,analogCatScenes,2020.1.3,MacIntel,60,"[1440,900]","[[[0.0034027777777777776,-0.19834635416666666],[0.0034027777777777776,-0.19834635416666666],[0.0034027777777777776,-0.19834635416666666],[0.0034027777777777776,-0.19834635416666666],[0.0034027777777777776,-0.19834635416666666],[0.0034027777777777776,-0.19834635416666666],[0.0034027777777777776,-0.19834635416666666],[0.0034027777777777776,-0.19834635416666666],[0.0034027777777777776,-0.19834635416666666],[0.0034027777777777776,-0.19834635416666666],[0.0034027777777777776,-0.19834635416666666],[0.0071961805555555555,-0.19520833333333334],[0.0123828125,-0.19048177083333334],[0.019270833333333334,-0.18346788194444444],[0.027743055555555556,-0.17498697916666667],[0.03563802083333333,-0.1659592013888889],[0.0408203125,-0.15938368055555555],[0.045251736111111114,-0.15305555555555556],[0.047513020833333336,-0.14710069444444446],[0.04842013888888889,-0.14101996527777777],[0.04842013888888889,-0.13631944444444444],[0.042842881944444446,-0.12800347222222222],[0.039249131944444446,-0.12352430555555556],[0.03396267361111111,-0.11616753472222222],[0.030551215277777776,-0.11231336805555556],[0.025980902777777776,-0.10818576388888888],[0.02212673611111111,-0.10518663194444444],[0.018836805555555555,-0.10272135416666667],[0.016744791666666668,-0.10132378472222223],[0.014652777777777778,-0.09992621527777777],[0.012330729166666667,-0.09960503472222222],[0.012330729166666667,-0.09960503472222222],[0.012330729166666667,-0.09960503472222222],[0.012330729166666667,-0.09960503472222222],[0.012330729166666667,-0.09960503472222222],[0.012330729166666667,-0.09960503472222222],[0.012330729166666667,-0.09960503472222222],[0.012330729166666667,-0.09960503472222222],[0.012330729166666667,-0.09960503472222222],[0.012330729166666667,-0.09960503472222222],[0.012330729166666667,-0.09960503472222222],[0.012330729166666667,-0.09960503472222222]]]",1,[42],,,,,,,,,,,,,,doctor1.jpg,space,3.10931,0,11,11,36,1,diner14.jpg,dormroom9.jpg,dining_car3.jpg,checkoutcounter9.jpg,,
Image_List_4,,,,,,,,,,,,,,,,44480,2020-11-19_16h13.37.037,analogCatScenes,2020.1.3,MacIntel,60,"[1440,900]","[[[-0.001345486111111111,-0.19776475694444445],[-0.001345486111111111,-0.19776475694444445],[-0.001345486111111111,-0.19645833333333335],[-0.001345486111111111,-0.19288628472222222],[-0.001345486111111111,-0.18931857638888888],[-0.001345486111111111,-0.1852126736111111],[-0.001345486111111111,-0.18051215277777777],[-0.00021701388888888888,-0.17005208333333333],[0.005073784722222223,-0.15359375],[0.011809895833333334,-0.13538194444444446],[0.018411458333333332,-0.11254774305555555],[0.026041666666666668,-0.08036458333333334],[0.031514756944444444,-0.04071180555555556],[0.03539496527777778,-0.014027777777777778],[0.03833333333333333,0.007651909722222222],[0.04095920138888889,0.024830729166666666],[0.04164496527777778,0.037790798611111114],[0.04164496527777778,0.04740885416666667],[0.04164496527777778,0.05786892361111111],[0.03938368055555556,0.06915798611111111],[0.0379296875,0.07745659722222223],[0.036922743055555554,0.08551215277777778],[0.036419270833333336,0.09549479166666666],[0.036419270833333336,0.1001953125],[0.03682725694444444,0.10430121527777778],[0.03840277777777778,0.10787326388888889],[0.04038628472222222,0.11144097222222223],[0.04108072916666667,0.11359809027777777],[0.04108072916666667,0.11423611111111111],[0.04108072916666667,0.11423611111111111],[0.04108072916666667,0.11423611111111111],[0.04108072916666667,0.11423611111111111],[0.04108072916666667,0.11423611111111111],[0.04108072916666667,0.11423611111111111],[0.04108072916666667,0.11423611111111111],[0.04108072916666667,0.11423611111111111],[0.04108072916666667,0.11423611111111111],[0.04108072916666667,0.11423611111111111],[0.04108072916666667,0.11423611111111111],[0.04108072916666667,0.11423611111111111],[0.04108072916666667,0.11423611111111111]],[[-0.010677083333333334,-0.19207899305555556],[-0.010677083333333334,-0.19207899305555556],[-0.010677083333333334,-0.19207899305555556],[-0.010677083333333334,-0.19207899305555556],[-0.010677083333333334,-0.19207899305555556],[-0.014765625,-0.19207899305555556],[-0.02006076388888889,-0.19163628472222222],[-0.03226996527777778,-0.18815104166666666],[-0.05157552083333333,-0.18263020833333332],[-0.07616319444444444,-0.1742013888888889],[-0.09899739583333333,-0.16684027777777777],[-0.12326822916666667,-0.15430989583333332],[-0.13581597222222222,-0.14611979166666667],[-0.15010850694444444,-0.13389756944444445],[-0.15950520833333334,-0.1219921875],[-0.17005208333333333,-0.10554253472222222],[-0.17607638888888888,-0.0929904513888889],[-0.1831640625,-0.07565538194444445],[-0.18855902777777778,-0.05744357638888889],[-0.19260416666666666,-0.03923177083333333],[-0.19448784722222223,-0.0241796875],[-0.19448784722222223,-0.014006076388888889],[-0.19448784722222223,0.0004557291666666667],[-0.19448784722222223,0.009283854166666666],[-0.19128472222222223,0.01890190972222222],[-0.18219618055555556,0.03773003472222222],[-0.17549045138888889,0.050594618055555554],[-0.16861979166666666,0.061510416666666665],[-0.16418836805555556,0.0673046875],[-0.15931857638888888,0.07366319444444444],[-0.15460503472222223,0.07838541666666667],[-0.14910590277777777,0.0843359375],[-0.14552083333333332,0.08881510416666667],[-0.14030815972222221,0.09608072916666667],[-0.1354079861111111,0.10364149305555556],[-0.1323263888888889,0.10849826388888889],[-0.12986979166666668,0.11219618055555555],[-0.12741319444444443,0.11589409722222223],[-0.12504774305555555,0.11868055555555555],[-0.12268229166666667,0.12146701388888889],[-0.12091145833333333,0.12324652777777778],[-0.11999131944444444,0.12417534722222222],[-0.11907118055555556,0.12478732638888888],[-0.11849826388888889,0.125078125],[-0.11822916666666666,0.125078125],[-0.11767361111111112,0.125078125],[-0.11710503472222222,0.1253689236111111],[-0.11583767361111111,0.12601128472222223],[-0.11416232638888889,0.12700086805555555],[-0.11207899305555556,0.1283984375],[-0.11034288194444444,0.13014322916666668],[-0.10778645833333333,0.1316015625],[-0.10500868055555555,0.13438802083333334],[-0.1017578125,0.1368315972222222],[-0.0962717013888889,0.14106336805555555],[-0.09359375,0.14299045138888888],[-0.09191840277777778,0.14366319444444445],[-0.09065104166666667,0.14430555555555555],[-0.08897569444444445,0.1446267361111111],[-0.08730034722222223,0.14529947916666666],[-0.0847439236111111,0.14603298611111112],[-0.08171440972222223,0.14755208333333333],[-0.07743055555555556,0.15010850694444444],[-0.07269965277777778,0.15286458333333333],[-0.06967013888888889,0.15438368055555557],[-0.06711371527777778,0.15546440972222222],[-0.06584635416666666,0.15578559027777777],[-0.06555989583333334,0.15578559027777777],[-0.06555989583333334,0.15578559027777777],[-0.06555989583333334,0.15578559027777777],[-0.06555989583333334,0.15578559027777777],[-0.06555989583333334,0.15578559027777777],[-0.06555989583333334,0.15578559027777777],[-0.06555989583333334,0.15578559027777777],[-0.06555989583333334,0.15578559027777777],[-0.06555989583333334,0.15578559027777777]]]",2,"[41,76]",,,,,,,,,,,,,,pier2.jpg,space,4.828825,0,12,12,79,1,pasture.jpg,poolhall2.jpeg,playground9.jpg,observatory2.jpg,,
Image_List_4,,,,,,,,,,,,,,,,44480,2020-11-19_16h13.37.037,analogCatScenes,2020.1.3,MacIntel,60,"[1440,900]","[[[-0.0027994791666666667,-0.1994748263888889],[-0.0027994791666666667,-0.1994748263888889],[-0.0027994791666666667,-0.1994748263888889],[-0.0027994791666666667,-0.1994748263888889],[-0.0027994791666666667,-0.1994748263888889],[-0.0027994791666666667,-0.1994748263888889],[-0.0027994791666666667,-0.1981640625],[-0.0027994791666666667,-0.19346354166666666],[-0.0048480902777777776,-0.18600694444444443],[-0.012469618055555555,-0.168671875],[-0.027126736111111112,-0.13481770833333334],[-0.040716145833333335,-0.09843315972222222],[-0.05961371527777778,-0.044622395833333335],[-0.06663628472222222,-0.02062934027777778],[-0.07453125,0.006046006944444444],[-0.0823046875,0.025785590277777777],[-0.0881076388888889,0.0412109375],[-0.09319444444444444,0.051948784722222224],[-0.09884548611111112,0.06212239583333334],[-0.10209201388888889,0.068203125],[-0.10599826388888889,0.07456163194444444],[-0.11016059027777778,0.08278645833333333],[-0.11130208333333333,0.08582465277777777],[-0.11197482638888889,0.08750868055555555],[-0.112265625,0.08814670138888889],[-0.112265625,0.0884375],[-0.1125390625,0.0884375],[-0.1128125,0.0884375],[-0.11308159722222222,0.0884375],[-0.11366319444444445,0.0884375],[-0.11424045138888889,0.0884375],[-0.11546006944444444,0.0884375],[-0.11638888888888889,0.0884375],[-0.1169704861111111,0.08901909722222222],[-0.11789930555555556,0.08963107638888888],[-0.118828125,0.09055989583333333],[-0.12051215277777778,0.0915798611111111],[-0.12178819444444444,0.0925390625],[-0.12356770833333333,0.09400173611111111],[-0.12452690972222222,0.09527777777777778],[-0.12510850694444445,0.095859375],[-0.12569010416666668,0.09615017361111111],[-0.12569010416666668,0.09615017361111111],[-0.12569010416666668,0.09615017361111111],[-0.12569010416666668,0.09615017361111111],[-0.12569010416666668,0.09615017361111111],[-0.12569010416666668,0.09615017361111111],[-0.12569010416666668,0.09615017361111111],[-0.12569010416666668,0.09615017361111111],[-0.12569010416666668,0.09615017361111111],[-0.12569010416666668,0.09615017361111111]]]",1,[51],,,,,,,,,,,,,,homegarage3.jpg,space,2.51157,0,13,13,53,1,gazebo3.jpg,homeoffice.jpg,frontLawn3.jpg,fountain.jpg,,
Image_List_4,,,,,,,,,,,,,,,,44480,2020-11-19_16h13.37.037,analogCatScenes,2020.1.3,MacIntel,60,"[1440,900]","[[[-0.0011892361111111112,-0.20890190972222222],[-0.0011892361111111112,-0.20890190972222222],[-0.0011892361111111112,-0.20890190972222222],[-0.0011892361111111112,-0.20890190972222222],[-0.0011892361111111112,-0.20890190972222222],[-0.0011892361111111112,-0.20890190972222222],[-0.0011892361111111112,-0.20890190972222222],[-0.0011892361111111112,-0.20890190972222222],[-0.0008420138888888889,-0.20759548611111112],[0.002026909722222222,-0.20389756944444445],[0.009396701388888888,-0.19588975694444444],[0.024561631944444443,-0.18278645833333335],[0.044596354166666664,-0.16581163194444445],[0.06744791666666666,-0.14704861111111112],[0.09084635416666667,-0.12763020833333333],[0.11241319444444445,-0.10520833333333333],[0.13932291666666666,-0.07198350694444444],[0.15398003472222221,-0.04904947916666667],[0.16259114583333334,-0.03299913194444445],[0.17173177083333332,-0.013949652777777778],[0.1788064236111111,0.005789930555555556],[0.18302083333333333,0.02620659722222222],[0.18439236111111112,0.04551215277777778],[0.18439236111111112,0.06159722222222222],[0.17905815972222222,0.07421006944444444],[0.17003038194444445,0.0849609375],[0.1653081597222222,0.08968315972222222],[0.16203993055555554,0.09295138888888889],[0.1606423611111111,0.09504340277777777],[0.15968315972222222,0.09631944444444444],[0.15936197916666667,0.09759548611111112],[0.15808159722222223,0.09950954861111111],[0.15683159722222223,0.10107638888888888],[0.15683159722222223,0.10107638888888888],[0.15514322916666667,0.10380642361111111],[0.15415364583333332,0.10549045138888889],[0.1534201388888889,0.10805555555555556],[0.15278211805555555,0.10933159722222222],[0.15249131944444444,0.10991319444444445],[0.1519097222222222,0.10991319444444445],[0.1509809027777778,0.10991319444444445],[0.1509809027777778,0.10991319444444445],[0.1509809027777778,0.10991319444444445],[0.1509809027777778,0.10991319444444445],[0.1509809027777778,0.10991319444444445],[0.1509809027777778,0.10991319444444445],[0.1509809027777778,0.10991319444444445]],[[0.0029210069444444444,-0.20033420138888888],[0.0029210069444444444,-0.20033420138888888],[0.0029210069444444444,-0.20033420138888888],[0.0029210069444444444,-0.20033420138888888],[0.0029210069444444444,-0.20033420138888888],[0.0029210069444444444,-0.20033420138888888],[0.0029210069444444444,-0.20007378472222223],[-0.0021788194444444446,-0.19349826388888888],[-0.008780381944444445,-0.185234375],[-0.022469618055555557,-0.16794270833333333],[-0.036471354166666664,-0.14880208333333333],[-0.05025173611111111,-0.1272829861111111],[-0.06453993055555556,-0.09270399305555556],[-0.07174479166666667,-0.06473524305555556],[-0.07607204861111111,-0.04486545138888889],[-0.08040364583333333,-0.022486979166666667],[-0.08444878472222223,-0.0042751736111111115],[-0.08721788194444445,0.0058984375],[-0.09148871527777777,0.019578993055555556],[-0.09368923611111112,0.028190104166666667],[-0.09460503472222222,0.034270833333333334],[-0.095078125,0.040225694444444446],[-0.09549045138888888,0.04379774305555555],[-0.09549045138888888,0.046362847222222225],[-0.09580729166666667,0.04868055555555555],[-0.09612847222222222,0.049956597222222225],[-0.09648003472222222,0.051640625],[-0.09712239583333333,0.05291666666666667],[-0.09744357638888888,0.05419270833333333],[-0.097734375,0.054774305555555555],[-0.09802517361111111,0.054774305555555555],[-0.09802517361111111,0.054774305555555555],[-0.09828993055555556,0.054774305555555555],[-0.09828993055555556,0.054774305555555555],[-0.09828993055555556,0.054774305555555555],[-0.09828993055555556,0.054774305555555555],[-0.09828993055555556,0.054774305555555555],[-0.09828993055555556,0.054774305555555555],[-0.09828993055555556,0.054774305555555555],[-0.09828993055555556,0.054774305555555555],[-0.09828993055555556,0.054774305555555555],[-0.09828993055555556,0.054774305555555555],[-0.09828993055555556,0.054774305555555555],[-0.09828993055555556,0.054774305555555555],[-0.09828993055555556,0.054774305555555555],[-0.09828993055555556,0.054774305555555555],[-0.09828993055555556,0.054774305555555555],[-0.09828993055555556,0.054774305555555555],[-0.09828993055555556,0.054774305555555555],[-0.09828993055555556,0.054774305555555555],[-0.09828993055555556,0.054774305555555555]]]",2,"[47,51]",,,,,,,,,,,,,,driveway7.jpg,space,4.26075,0,14,14,37,1,dining_car.jpg,driveway4.jpg,dinosaur4.jpg,citystreet9.jpg,,
Image_List_4,,,,,,,,,,,,,,,,44480,2020-11-19_16h13.37.037,analogCatScenes,2020.1.3,MacIntel,60,"[1440,900]","[[[0.003910590277777778,-0.20156684027777777],[0.003910590277777778,-0.20156684027777777],[0.003910590277777778,-0.20156684027777777],[0.003910590277777778,-0.20156684027777777],[0.003910590277777778,-0.20156684027777777],[0.003910590277777778,-0.20156684027777777],[0.003910590277777778,-0.20156684027777777],[0.003910590277777778,-0.20156684027777777],[0.003910590277777778,-0.20156684027777777],[0.003910590277777778,-0.20156684027777777],[0.003910590277777778,-0.20156684027777777],[0.003910590277777778,-0.20156684027777777],[0.003910590277777778,-0.20156684027777777],[0.0054600694444444445,-0.20156684027777777],[0.010151909722222222,-0.20112413194444445],[0.019761284722222223,-0.20004774305555556],[0.032868923611111114,-0.19766059027777777],[0.04506944444444445,-0.19533420138888888],[0.053897569444444446,-0.19325520833333334],[0.06200520833333333,-0.1907638888888889],[0.06954861111111112,-0.1867361111111111],[0.07947482638888889,-0.17673611111111112],[0.08732638888888888,-0.1677560763888889],[0.09715711805555556,-0.15004774305555554],[0.10561197916666666,-0.13087239583333332],[0.11500434027777778,-0.10493923611111111],[0.12276475694444444,-0.07134114583333333],[0.12889322916666668,-0.03627170138888889],[0.13214409722222223,-0.0112109375],[0.1329253472222222,0.014127604166666667],[0.1329253472222222,0.03349392361111111],[0.1329253472222222,0.052261284722222225],[0.13167100694444445,0.06184027777777778],[0.13167100694444445,0.07066840277777778],[0.13167100694444445,0.07872395833333333],[0.1329253472222222,0.08427083333333334],[0.1350347222222222,0.08897135416666667],[0.13604600694444444,0.09112847222222223],[0.13636284722222222,0.09176649305555555],[0.13636284722222222,0.09176649305555555],[0.13636284722222222,0.09176649305555555],[0.13636284722222222,0.09176649305555555],[0.13636284722222222,0.09176649305555555],[0.13636284722222222,0.09176649305555555],[0.13636284722222222,0.09176649305555555],[0.13636284722222222,0.09176649305555555],[0.13636284722222222,0.09176649305555555],[0.13636284722222222,0.09176649305555555],[0.13636284722222222,0.09176649305555555],[0.13636284722222222,0.09176649305555555]]]",1,[50],,,,,,,,,,,,,,golfcourse7.jpg,space,3.207465,0,15,15,48,1,frontDoor2.jpg,golfcourse6.jpg,fittingroom5.jpg,fabricstore2.jpg,,
Image_List_4,,,,,,,,,,,,,,,,44480,2020-11-19_16h13.37.037,analogCatScenes,2020.1.3,MacIntel,60,"[1440,900]","[[[-0.003498263888888889,-0.20191840277777778],[-0.003498263888888889,-0.20191840277777778],[-0.003498263888888889,-0.20191840277777778],[-0.003498263888888889,-0.20191840277777778],[-0.003498263888888889,-0.20191840277777778],[-0.003498263888888889,-0.20191840277777778],[-0.003498263888888889,-0.20191840277777778],[-0.003498263888888889,-0.20191840277777778],[-0.003498263888888889,-0.20191840277777778],[-0.009926215277777779,-0.20191840277777778],[-0.02704427083333333,-0.19598958333333333],[-0.04634982638888889,-0.19046875],[-0.10267795138888888,-0.17496961805555555],[-0.12486111111111112,-0.16964409722222223],[-0.1476953125,-0.16300347222222222],[-0.16590711805555555,-0.15694878472222223],[-0.18170572916666666,-0.14838975694444445],[-0.19684895833333332,-0.1385112847222222],[-0.21067708333333332,-0.12731770833333333],[-0.22419270833333332,-0.11703125],[-0.23548611111111112,-0.10699652777777778],[-0.247421875,-0.09518229166666667],[-0.2506293402777778,-0.09144097222222222],[-0.25763020833333333,-0.08093315972222222],[-0.2616362847222222,-0.0739236111111111],[-0.26544270833333333,-0.06590711805555556],[-0.2676866319444444,-0.060546875],[-0.27005208333333336,-0.05393229166666667],[-0.2715972222222222,-0.046228298611111114],[-0.2726388888888889,-0.037269965277777775],[-0.2726388888888889,-0.028433159722222223],[-0.2726388888888889,-0.0217578125],[-0.27220052083333335,-0.012495659722222222],[-0.2702560763888889,-0.005164930555555555],[-0.26861979166666666,-0.0009982638888888888],[-0.2674565972222222,0.002573784722222222],[-0.26707899305555555,0.004092881944444444],[-0.26707899305555555,0.004092881944444444],[-0.26707899305555555,0.004092881944444444],[-0.26707899305555555,0.004092881944444444],[-0.26707899305555555,0.004092881944444444],[-0.26707899305555555,0.004092881944444444],[-0.26707899305555555,0.004092881944444444],[-0.26707899305555555,0.004092881944444444],[-0.26707899305555555,0.004092881944444444],[-0.26707899305555555,0.004092881944444444]],[[-0.0095703125,-0.20421006944444445],[-0.0095703125,-0.20421006944444445],[-0.0095703125,-0.20421006944444445],[-0.0095703125,-0.20421006944444445],[-0.0095703125,-0.20421006944444445],[-0.011349826388888888,-0.20421006944444445],[-0.015516493055555556,-0.20421006944444445],[-0.03672309027777778,-0.2001953125],[-0.05988715277777778,-0.1919487847222222],[-0.08369791666666666,-0.18151475694444444],[-0.09587239583333333,-0.17489149305555557],[-0.10578993055555555,-0.1681423611111111],[-0.11689670138888889,-0.15882378472222222],[-0.1223654513888889,-0.1530078125],[-0.12404079861111111,-0.1493142361111111],[-0.12565104166666666,-0.14574652777777777],[-0.12647569444444445,-0.141640625],[-0.12688802083333334,-0.13422743055555555],[-0.12688802083333334,-0.12893229166666667],[-0.12487847222222222,-0.12338975694444444],[-0.12185763888888888,-0.11941840277777778],[-0.11760416666666666,-0.11641927083333334],[-0.11291232638888889,-0.11430121527777778],[-0.10624565972222222,-0.11335503472222222],[-0.09891927083333334,-0.11335503472222222],[-0.09159288194444444,-0.11335503472222222],[-0.08012152777777778,-0.11731336805555556],[-0.07211371527777778,-0.12111111111111111],[-0.06328559027777778,-0.12424913194444444],[-0.05793402777777778,-0.12559895833333334],[-0.052647569444444445,-0.12647569444444445],[-0.04736111111111111,-0.1269140625],[-0.043263888888888886,-0.1269140625],[-0.039700520833333336,-0.1269140625],[-0.03592013888888889,-0.12444878472222222],[-0.031961805555555556,-0.12000868055555555],[-0.025451388888888888,-0.11348524305555556],[-0.020577256944444445,-0.10913628472222223],[-0.014730902777777779,-0.10375434027777777],[-0.00838107638888889,-0.09887586805555555],[-0.0013411458333333333,-0.09384114583333333],[0.0031293402777777778,-0.09071614583333333],[0.010477430555555556,-0.0854296875],[0.01482204861111111,-0.08277777777777778],[0.021141493055555554,-0.07887152777777778],[0.025798611111111112,-0.07521267361111111],[0.030672743055555556,-0.07086371527777778],[0.035620659722222225,-0.06420138888888889],[0.03861111111111111,-0.05993923611111111],[0.04065972222222222,-0.05583333333333333],[0.041414930555555556,-0.05279513888888889],[0.041762152777777777,-0.050703125],[0.041762152777777777,-0.048138020833333336],[0.041762152777777777,-0.045572916666666664],[0.03920572916666667,-0.04087239583333333],[0.035868055555555556,-0.03470052083333333],[0.03226996527777778,-0.026566840277777778],[0.028836805555555556,-0.01923177083333333],[0.027126736111111112,-0.01453125],[0.02491753472222222,-0.009236111111111112],[0.023268229166666668,-0.005130208333333333],[0.02161892361111111,-0.0010243055555555556],[0.019375,0.0043359375],[0.017664930555555555,0.009036458333333334],[0.015455729166666666,0.014331597222222223],[0.012482638888888889,0.021085069444444444],[0.011024305555555556,0.02365017361111111],[0.009244791666666667,0.0254296875],[0.007057291666666667,0.027269965277777777],[0.0044921875,0.028728298611111112],[-0.0003949652777777778,0.03185329861111111],[-0.006271701388888889,0.03456163194444444],[-0.0139453125,0.03722222222222222],[-0.021280381944444444,0.038702256944444444],[-0.02736111111111111,0.03920572916666667],[-0.035065104166666666,0.04018663194444445],[-0.04733072916666667,0.04018663194444445],[-0.05503472222222222,0.04018663194444445],[-0.06037760416666667,0.04018663194444445],[-0.06633246527777778,0.04018663194444445],[-0.07043836805555556,0.04018663194444445],[-0.07300347222222223,0.04126736111111111],[-0.07335503472222223,0.04231336805555556],[-0.07335503472222223,0.04231336805555556],[-0.07335503472222223,0.04231336805555556],[-0.07335503472222223,0.04231336805555556],[-0.07335503472222223,0.04231336805555556],[-0.07335503472222223,0.04231336805555556],[-0.07335503472222223,0.04231336805555556]],[[0.009522569444444445,-0.2019140625],[0.009522569444444445,-0.2019140625],[0.009522569444444445,-0.2019140625],[0.009522569444444445,-0.2019140625],[0.009522569444444445,-0.2019140625],[0.009522569444444445,-0.2019140625],[0.009522569444444445,-0.2019140625],[0.009522569444444445,-0.2019140625],[0.009522569444444445,-0.2019140625],[0.012083333333333333,-0.2019140625],[0.017369791666666665,-0.203671875],[0.03217013888888889,-0.21121527777777777],[0.06451822916666666,-0.2244921875],[0.08734375,-0.23112413194444445],[0.11530381944444444,-0.23672743055555556],[0.146015625,-0.24088975694444445],[0.16959635416666666,-0.24342447916666668],[0.192421875,-0.2463628472222222],[0.2095920138888889,-0.24898871527777777],[0.2592057291666667,-0.24872395833333333],[0.2637673611111111,-0.2441232638888889],[0.2686371527777778,-0.23776475694444443],[0.27197048611111113,-0.2321875],[0.2763628472222222,-0.22417100694444445],[0.2791927083333333,-0.2175564236111111],[0.28013020833333335,-0.21094184027777776],[0.2806640625,-0.19879774305555556],[0.2806640625,-0.18833767361111112],[0.2770876736111111,-0.17522135416666668],[0.2741059027777778,-0.16210503472222224],[0.27309461805555557,-0.1538064236111111],[0.27208767361111114,-0.14577256944444444],[0.27208767361111114,-0.13981770833333335],[0.27208767361111114,-0.1351171875],[0.27208767361111114,-0.1295703125],[0.27208767361111114,-0.12223958333333333],[0.2735763888888889,-0.11022569444444444],[0.2735763888888889,-0.10138888888888889],[0.2735763888888889,-0.09602864583333333],[0.2735763888888889,-0.08634982638888888],[0.27206597222222223,-0.07901475694444444],[0.2683203125,-0.06939670138888888],[0.26307725694444445,-0.057782118055555554],[0.25558159722222223,-0.0446875],[0.2459982638888889,-0.031241319444444443],[0.23414930555555555,-0.018072916666666668],[0.2183984375,-0.004136284722222223],[0.2087890625,0.002651909722222222],[0.19995225694444443,0.006805555555555555],[0.1894921875,0.009574652777777777],[0.17903211805555555,0.011245659722222223],[0.1677517361111111,0.012378472222222223],[0.1555425347222222,0.013546006944444444],[0.14242621527777777,0.01474392361111111],[0.13135416666666666,0.015286458333333334],[0.11914496527777778,0.015286458333333334],[0.10303385416666666,0.015286458333333334],[0.09341579861111111,0.015286458333333334],[0.08295572916666667,0.014752604166666667],[0.07249565972222222,0.01365451388888889],[0.06365885416666667,0.012118055555555556],[0.05482204861111111,0.011085069444444444],[0.04676649305555555,0.0105859375],[0.0387109375,0.0105859375],[0.030655381944444445,0.0105859375],[0.0233203125,0.0105859375],[0.011236979166666666,0.012096354166666667],[0.006410590277777778,0.014275173611111112],[0.001115451388888889,0.016484375],[-0.0035850694444444445,0.01822048611111111],[-0.0071571180555555555,0.01904513888888889],[-0.0101953125,0.01904513888888889],[-0.012760416666666666,0.01904513888888889],[-0.015043402777777777,0.016770833333333332],[-0.017921006944444446,0.013901909722222222],[-0.017921006944444446,0.013901909722222222],[-0.017921006944444446,0.013901909722222222],[-0.017921006944444446,0.013901909722222222],[-0.017921006944444446,0.013901909722222222],[-0.017921006944444446,0.013901909722222222],[-0.017921006944444446,0.013901909722222222],[-0.017921006944444446,0.013901909722222222],[-0.017921006944444446,0.013901909722222222],[-0.017921006944444446,0.013901909722222222],[-0.017921006944444446,0.013901909722222222],[-0.017921006944444446,0.013901909722222222]]]",3,"[46,89,86]",,,,,,,,,,,,,,kindergarten_classroom7.jpg,space,8.178165,0,16,16,61,1,HorseRaceTrack.jpg,metroInside4.jpg,homegarden6.jpg,hayfield6.jpg,,
Image_List_4,,,,,,,,,,,,,,,,44480,2020-11-19_16h13.37.037,analogCatScenes,2020.1.3,MacIntel,60,"[1440,900]","[[[-0.003424479166666667,-0.2021310763888889],[-0.003424479166666667,-0.2021310763888889],[-0.003424479166666667,-0.2021310763888889],[-0.003424479166666667,-0.2021310763888889],[-0.003424479166666667,-0.2021310763888889],[-0.003424479166666667,-0.2021310763888889],[-0.003424479166666667,-0.2021310763888889],[-0.003424479166666667,-0.2021310763888889],[0.0008550347222222222,-0.2021310763888889],[0.012213541666666666,-0.2021310763888889],[0.025321180555555555,-0.2021310763888889],[0.054327256944444444,-0.20491319444444445],[0.09404947916666667,-0.20954427083333332],[0.1337717013888889,-0.21229600694444445],[0.15848090277777777,-0.21229600694444445],[0.1899609375,-0.21229600694444445],[0.21163194444444444,-0.2094704861111111],[0.22917534722222221,-0.20341579861111111],[0.24233940972222223,-0.19526041666666666],[0.25049479166666666,-0.18540364583333332],[0.25490885416666664,-0.1689453125],[0.25255642361111114,-0.13395399305555555],[0.23843315972222223,-0.1057421875],[0.2221484375,-0.07969184027777777],[0.21076822916666665,-0.06568142361111111],[0.19666666666666666,-0.050138888888888886],[0.18649739583333333,-0.04053385416666667],[0.17688802083333333,-0.03375],[0.16858506944444446,-0.030069444444444444],[0.15721788194444444,-0.02899739583333333],[0.1440407986111111,-0.02899739583333333],[0.1233984375,-0.03197048611111111],[0.11028211805555556,-0.03434895833333333],[0.1006640625,-0.03434895833333333],[0.09380208333333333,-0.03274305555555555],[0.09080295138888889,-0.028888888888888888],[0.08874565972222222,-0.02478298611111111],[0.08836371527777778,-0.021744791666666666],[0.08836371527777778,-0.01965277777777778],[0.08836371527777778,-0.01796875],[0.08868055555555555,-0.016401909722222222],[0.08868055555555555,-0.015473090277777778],[0.08868055555555555,-0.014197048611111112],[0.08868055555555555,-0.013268229166666666],[0.08868055555555555,-0.012977430555555556],[0.08868055555555555,-0.012977430555555556],[0.08868055555555555,-0.012977430555555556],[0.08868055555555555,-0.012977430555555556],[0.08868055555555555,-0.012977430555555556]],[[-0.0006163194444444444,-0.2058376736111111],[-0.0006163194444444444,-0.2058376736111111],[-0.0006163194444444444,-0.2058376736111111],[-0.0006163194444444444,-0.2058376736111111],[-0.0006163194444444444,-0.2058376736111111],[-0.0006163194444444444,-0.2058376736111111],[-0.0006163194444444444,-0.2058376736111111],[-0.0006163194444444444,-0.2058376736111111],[-0.0008767361111111111,-0.2058376736111111],[-0.004982638888888889,-0.2058376736111111],[-0.011063368055555555,-0.2058376736111111],[-0.02474392361111111,-0.2058376736111111],[-0.051427951388888886,-0.2058376736111111],[-0.08502604166666666,-0.2058376736111111],[-0.10821180555555555,-0.2058376736111111],[-0.14223524305555554,-0.20436197916666668],[-0.15735243055555556,-0.20310329861111112],[-0.17143663194444445,-0.201875],[-0.18827256944444445,-0.2005815972222222],[-0.2043576388888889,-0.19866753472222223],[-0.22256944444444443,-0.1966579861111111],[-0.2386545138888889,-0.19408420138888888],[-0.2476128472222222,-0.1924782986111111],[-0.25657118055555556,-0.19039930555555556],[-0.2624652777777778,-0.18858506944444445],[-0.2673046875,-0.18497829861111112],[-0.2700737847222222,-0.17950954861111112],[-0.27143229166666666,-0.1735546875],[-0.2719357638888889,-0.16551649305555555],[-0.2719357638888889,-0.1566796875],[-0.2719357638888889,-0.14706163194444444],[-0.2691145833333333,-0.1357595486111111],[-0.26460069444444445,-0.12445746527777778],[-0.2590842013888889,-0.11099826388888889],[-0.2522048611111111,-0.0972265625],[-0.23905381944444445,-0.07837239583333333],[-0.22990017361111112,-0.06733072916666667],[-0.21977430555555555,-0.05838541666666667],[-0.20754774305555557,-0.050416666666666665],[-0.19532118055555556,-0.04244791666666667],[-0.18215711805555557,-0.03429253472222222],[-0.16899305555555555,-0.026137152777777777],[-0.15519965277777778,-0.01923611111111111],[-0.14075086805555556,-0.0135546875],[-0.12764322916666668,-0.009978298611111111],[-0.10888888888888888,-0.007022569444444444],[-0.10119357638888889,-0.006453993055555556],[-0.09453125,-0.005950520833333334],[-0.09301649305555555,-0.005950520833333334],[-0.09301649305555555,-0.005950520833333334],[-0.09301649305555555,-0.005950520833333334],[-0.09301649305555555,-0.005950520833333334],[-0.09301649305555555,-0.005950520833333334],[-0.09301649305555555,-0.005950520833333334]]]",2,"[49,54]",,,,,,,,,,,,,,cemetery5.jpg,space,4.34527,0,17,17,24,1,campsite.jpg,cliff3.jpg,cave6.jpg,boardwalk.jpg,,
Image_List_4,,,,,,,,,,,,,,,,44480,2020-11-19_16h13.37.037,analogCatScenes,2020.1.3,MacIntel,60,"[1440,900]","[[[-0.0008723958333333333,-0.19796006944444444],[-0.0008723958333333333,-0.19796006944444444],[-0.0008723958333333333,-0.19796006944444444],[-0.0008723958333333333,-0.19796006944444444],[-0.0008723958333333333,-0.19796006944444444],[-0.0008723958333333333,-0.19796006944444444],[-0.0008723958333333333,-0.19796006944444444],[-0.0008723958333333333,-0.19796006944444444],[-0.0008723958333333333,-0.19796006944444444],[-0.0008723958333333333,-0.19796006944444444],[-0.0008723958333333333,-0.19691840277777778],[-0.004210069444444444,-0.18811631944444446],[-0.008233506944444444,-0.18057291666666667],[-0.022860243055555556,-0.15899305555555557],[-0.047105034722222223,-0.1279861111111111],[-0.07246961805555556,-0.09510850694444445],[-0.08974392361111111,-0.07455729166666666],[-0.11655381944444444,-0.04079861111111111],[-0.13299913194444443,-0.019657118055555554],[-0.14215277777777777,-0.006024305555555555],[-0.15415364583333332,0.011614583333333333],[-0.1649392361111111,0.02713107638888889],[-0.17881944444444445,0.046710069444444446],[-0.18779513888888888,0.05687934027777778],[-0.19223524305555556,0.062265625],[-0.1968359375,0.0668359375],[-0.20003038194444445,0.06921006944444444],[-0.20130642361111112,0.07016927083333334],[-0.20130642361111112,0.07016927083333334],[-0.20130642361111112,0.07016927083333334],[-0.20130642361111112,0.07016927083333334],[-0.20130642361111112,0.07016927083333334],[-0.20130642361111112,0.07016927083333334],[-0.20130642361111112,0.07016927083333334],[-0.20130642361111112,0.07016927083333334],[-0.20130642361111112,0.07016927083333334],[-0.20130642361111112,0.07016927083333334],[-0.20130642361111112,0.07016927083333334],[-0.20130642361111112,0.07016927083333334],[-0.20130642361111112,0.07016927083333334],[-0.20130642361111112,0.07016927083333334]],[[0.0026866319444444446,-0.20797309027777777],[0.0026866319444444446,-0.20797309027777777],[0.0026866319444444446,-0.20797309027777777],[0.0026866319444444446,-0.20797309027777777],[0.0026866319444444446,-0.20797309027777777],[0.0026866319444444446,-0.20797309027777777],[0.0026866319444444446,-0.20797309027777777],[0.0026866319444444446,-0.20797309027777777],[0.0026866319444444446,-0.20797309027777777],[0.0026866319444444446,-0.20771267361111112],[0.0026866319444444446,-0.20467881944444444],[0.007990451388888889,-0.19078559027777778],[0.011375868055555556,-0.1794184027777778],[0.016766493055555557,-0.16686631944444444],[0.022035590277777777,-0.15515625],[0.02879340277777778,-0.14548611111111112],[0.04007378472222222,-0.13544704861111112],[0.05423611111111111,-0.12710503472222223],[0.0753125,-0.1188671875],[0.10025607638888889,-0.11164930555555555],[0.12070746527777777,-0.10600694444444445],[0.14157118055555556,-0.09879340277777778],[0.15945746527777777,-0.09121527777777778],[0.17424913194444444,-0.08284288194444445],[0.1858767361111111,-0.0742751736111111],[0.19600260416666668,-0.06532986111111111],[0.20641059027777778,-0.055542534722222224],[0.2176953125,-0.0455078125],[0.22757378472222223,-0.037374131944444444],[0.23674913194444444,-0.02875],[0.24212239583333334,-0.023368055555555555],[0.24624131944444444,-0.018797743055555555],[0.24923177083333334,-0.014535590277777777],[0.25210069444444444,-0.01165798611111111],[0.2538715277777778,-0.009878472222222223],[0.2544444444444444,-0.009296875],[0.2550173611111111,-0.009006076388888888],[0.25530381944444447,-0.008424479166666667],[0.25530381944444447,-0.008151041666666666],[0.25530381944444447,-0.007278645833333333],[0.25530381944444447,-0.0069878472222222225],[0.25530381944444447,-0.00671875],[0.25557291666666665,-0.00671875],[0.25557291666666665,-0.00671875],[0.25557291666666665,-0.00671875],[0.25557291666666665,-0.00671875],[0.25557291666666665,-0.00671875],[0.25557291666666665,-0.00671875],[0.25557291666666665,-0.00671875],[0.25557291666666665,-0.00671875],[0.25557291666666665,-0.00671875]]]",2,"[41,51]",,,,,,,,,,,,,,bleachers7.jpg,space,4.68041,0,18,18,12,1,baggageClaim4.jpg,bedroom6.jpg,bambooforest5.jpg,backyard5.jpg,,
Image_List_4,,,,,,,,,,,,,,,,44480,2020-11-19_16h13.37.037,analogCatScenes,2020.1.3,MacIntel,60,"[1440,900]","[[[0.0008463541666666667,-0.20503038194444445],[0.0008463541666666667,-0.20503038194444445],[0.0008463541666666667,-0.20503038194444445],[0.0008463541666666667,-0.20503038194444445],[0.0008463541666666667,-0.20503038194444445],[0.0008463541666666667,-0.20503038194444445],[0.0008463541666666667,-0.19965711805555555],[0.00024739583333333335,-0.1865407986111111],[-0.0011328125,-0.16832899305555554],[-0.0072048611111111115,-0.13206597222222222],[-0.019296875,-0.07279947916666667],[-0.03139756944444445,0.0008203125],[-0.03703993055555556,0.05407986111111111],[-0.0402734375,0.10951822916666666],[-0.0402734375,0.1382378472222222],[-0.0402734375,0.16235677083333333],[-0.0402734375,0.17296875],[-0.03720486111111111,0.1870529513888889],[-0.035703125,0.19510850694444445],[-0.03426215277777778,0.20611979166666666],[-0.033854166666666664,0.2114800347222222],[-0.033854166666666664,0.2168359375],[-0.033854166666666664,0.21993489583333334],[-0.033854166666666664,0.2216189236111111],[-0.033854166666666664,0.22225694444444444],[-0.033854166666666664,0.22253038194444444],[-0.033567708333333335,0.22280381944444444],[-0.033567708333333335,0.22280381944444444],[-0.03330295138888889,0.22280381944444444],[-0.03330295138888889,0.22280381944444444],[-0.033042534722222225,0.22280381944444444],[-0.033042534722222225,0.22280381944444444],[-0.03278211805555555,0.22280381944444444],[-0.03219618055555556,0.2221701388888889],[-0.03150173611111111,0.22002170138888888],[-0.03074652777777778,0.2169921875],[-0.029518229166666667,0.21289496527777776],[-0.028415798611111112,0.21033854166666666],[-0.027434895833333334,0.20802951388888888],[-0.0271484375,0.20774305555555556],[-0.0271484375,0.20774305555555556],[-0.0271484375,0.20774305555555556],[-0.0271484375,0.20774305555555556],[-0.0271484375,0.20774305555555556],[-0.0271484375,0.20774305555555556],[-0.0271484375,0.20774305555555556]]]",1,[46],,,,,,,,,,,,,,fabricstore1.jpg,space,2.860545,0,19,19,41,1,dugout4.jpg,farm3.jpg,drymountains3.jpg,dentist2.jpg,,
Image_List_4,,,,,,,,,,,,,,,,44480,2020-11-19_16h13.37.037,analogCatScenes,2020.1.3,MacIntel,60,"[1440,900]","[[[-0.007039930555555555,-0.189765625],[-0.007039930555555555,-0.189765625],[-0.007039930555555555,-0.189765625],[-0.007039930555555555,-0.189765625],[-0.007039930555555555,-0.189765625],[-0.007039930555555555,-0.189765625],[-0.007039930555555555,-0.18950520833333334],[-0.007039930555555555,-0.18640625],[-0.007039930555555555,-0.18170572916666666],[-0.008546006944444445,-0.1588454861111111],[-0.019383680555555557,-0.11246961805555555],[-0.03450086805555556,-0.0551171875],[-0.05513888888888889,0.0284765625],[-0.07431857638888889,0.11184027777777777],[-0.0802126736111111,0.13615017361111112],[-0.08861545138888889,0.16231336805555555],[-0.095390625,0.1792404513888889],[-0.10057725694444444,0.18716145833333334],[-0.10632378472222222,0.19045138888888888],[-0.10989583333333333,0.1916232638888889],[-0.11346788194444445,0.19320746527777777],[-0.11346788194444445,0.19320746527777777],[-0.11346788194444445,0.19320746527777777],[-0.11346788194444445,0.19320746527777777],[-0.11346788194444445,0.19320746527777777],[-0.11346788194444445,0.19320746527777777],[-0.11346788194444445,0.19320746527777777]]]",1,[27],,,,,,,,,,,,,,farm4.jpg,space,3.045525,0,20,20,42,1,exerciseequipment3.jpg,firestation3.jpg,drymountains6.jpg,desertvegetation2.jpg,,
Image_List_4,,,,,,,,,,,,,,,,44480,2020-11-19_16h13.37.037,analogCatScenes,2020.1.3,MacIntel,60,"[1440,900]","[[[0.0023394097222222223,-0.20633246527777777],[0.0023394097222222223,-0.20633246527777777],[0.0023394097222222223,-0.20633246527777777],[0.0023394097222222223,-0.20633246527777777],[0.0023394097222222223,-0.20633246527777777],[0.0023394097222222223,-0.20633246527777777],[0.0023394097222222223,-0.20633246527777777],[0.0023394097222222223,-0.20633246527777777],[0.0023394097222222223,-0.20633246527777777],[0.003376736111111111,-0.2060720486111111],[0.008059895833333334,-0.2048046875],[0.018993055555555555,-0.2017795138888889],[0.03119357638888889,-0.19885850694444446],[0.046302083333333334,-0.1963454861111111],[0.06141059027777778,-0.1944921875],[0.07548611111111111,-0.19141493055555556],[0.09259548611111111,-0.1874609375],[0.108671875,-0.18231770833333333],[0.12442708333333333,-0.17574652777777777],[0.15003472222222222,-0.16361979166666665],[0.16688802083333334,-0.15553385416666668],[0.1826779513888889,-0.1476345486111111],[0.19846788194444445,-0.13973524305555557],[0.21069444444444443,-0.13176649305555554],[0.22172743055555555,-0.12197916666666667],[0.22985243055555554,-0.11209201388888888],[0.23596354166666667,-0.09922743055555555],[0.2415972222222222,-0.07838975694444444],[0.24466145833333333,-0.05755642361111111],[0.24666232638888888,-0.04109809027777778],[0.2494704861111111,-0.009830729166666666],[0.25234809027777777,0.013355034722222223],[0.25648003472222225,0.032660590277777776],[0.2634592013888889,0.05837673611111111],[0.2674652777777778,0.07483506944444444],[0.27240885416666666,0.0952951388888889],[0.27741319444444446,0.12485677083333334],[0.27872395833333335,0.14222222222222222],[0.27944010416666665,0.16158854166666667],[0.27944010416666665,0.18032118055555554],[0.27890190972222223,0.19078125],[0.2783984375,0.19745659722222222],[0.27792534722222223,0.20281684027777777],[0.27792534722222223,0.2075173611111111],[0.27792534722222223,0.21107204861111112],[0.2786501736111111,0.21363715277777778],[0.27899739583333333,0.21532118055555555],[0.2792838541666667,0.21590277777777778],[0.2792838541666667,0.216484375],[0.2792838541666667,0.2170659722222222],[0.27899305555555554,0.21763020833333332],[0.2784114583333333,0.21821180555555555],[0.2774826388888889,0.21882378472222222],[0.2774826388888889,0.21911458333333333],[0.2774826388888889,0.21911458333333333],[0.2774826388888889,0.21911458333333333],[0.2774826388888889,0.21911458333333333],[0.2774826388888889,0.21911458333333333],[0.2774826388888889,0.21911458333333333],[0.2774826388888889,0.21911458333333333],[0.2774826388888889,0.21911458333333333],[0.2774826388888889,0.21911458333333333],[0.2774826388888889,0.21911458333333333],[0.2774826388888889,0.21911458333333333]]]",1,[64],,,,,,,,,,,,,,appleorchard3.jpg,space,3.66016,0,21,21,4,1,artStudio1.jpg,baggageClaim2.jpg,auto_showroom1.jpg,alley4.jpg,,
Image_List_4,,,,,,,,,,,,,,,,44480,2020-11-19_16h13.37.037,analogCatScenes,2020.1.3,MacIntel,60,"[1440,900]","[[[-0.011336805555555555,-0.19562934027777779],[-0.011336805555555555,-0.19562934027777779],[-0.011336805555555555,-0.19562934027777779],[-0.011336805555555555,-0.19562934027777779],[-0.011336805555555555,-0.19562934027777779],[-0.011336805555555555,-0.19359375],[-0.011336805555555555,-0.19002170138888888],[-0.011336805555555555,-0.18394097222222222],[-0.011336805555555555,-0.166015625],[-0.011336805555555555,-0.15193142361111112],[-0.011336805555555555,-0.1368793402777778],[-0.011336805555555555,-0.12279513888888889],[-0.011336805555555555,-0.1105859375],[-0.01033420138888889,-0.10090711805555555],[-0.009331597222222222,-0.0920703125],[-0.00829861111111111,-0.08323350694444444],[-0.007230902777777778,-0.07361545138888889],[-0.006323784722222222,-0.06766059027777778],[-0.004852430555555555,-0.05605902777777778],[-0.004852430555555555,-0.04938368055555555],[-0.004852430555555555,-0.04276909722222222],[-0.0038541666666666668,-0.034717881944444445],[-0.0029470486111111112,-0.02863715277777778],[-0.001974826388888889,-0.020933159722222223],[-0.00015190972222222222,-0.01497829861111111],[0.0006944444444444445,-0.010277777777777778],[0.0014800347222222222,-0.006705729166666666],[0.0014800347222222222,-0.0016145833333333333],[0.0014800347222222222,0.0019574652777777776],[0.0014800347222222222,0.006063368055555555],[0.0014800347222222222,0.009635416666666667],[0.0014800347222222222,0.013203125],[0.0014800347222222222,0.015768229166666668],[0.0014800347222222222,0.017860243055555555],[0.0014800347222222222,0.019544270833333332],[0.0014800347222222222,0.021228298611111113],[0.0014800347222222222,0.023793402777777778],[0.0014800347222222222,0.028350694444444446],[0.0014800347222222222,0.03138888888888889],[0.0014800347222222222,0.03348090277777778],[0.0014800347222222222,0.03563802083333333],[0.0014800347222222222,0.0369140625],[0.0014800347222222222,0.03784288194444444],[0.0014800347222222222,0.038424479166666664],[0.0014800347222222222,0.038424479166666664],[0.0014800347222222222,0.03869357638888889],[0.0014800347222222222,0.03869357638888889],[0.0014800347222222222,0.03869357638888889],[0.0014800347222222222,0.03869357638888889],[0.0014800347222222222,0.03869357638888889],[0.0014800347222222222,0.03869357638888889],[0.0014800347222222222,0.03869357638888889],[0.0014800347222222222,0.03869357638888889],[0.0014800347222222222,0.03869357638888889],[0.0014800347222222222,0.03869357638888889],[0.0014800347222222222,0.03869357638888889],[0.0014800347222222222,0.03869357638888889]]]",1,[57],,,,,,,,,,,,,,readingroom4.jpg,space,2.71472,0,22,22,82,1,publicrestroom2.jpg,sandDunes_desert_outdoor9.jpg,promenadeDeck3.jpg,postoffice4.jpg,,
Image_List_4,,,,,,,,,,,,,,,,44480,2020-11-19_16h13.37.037,analogCatScenes,2020.1.3,MacIntel,60,"[1440,900]","[[[-0.004913194444444445,-0.20469618055555555],[-0.004913194444444445,-0.20469618055555555],[-0.004913194444444445,-0.20469618055555555],[-0.004913194444444445,-0.20469618055555555],[-0.004913194444444445,-0.20469618055555555],[-0.004913194444444445,-0.20469618055555555],[-0.004913194444444445,-0.20469618055555555],[-0.004913194444444445,-0.2016059027777778],[-0.0035460069444444445,-0.19572048611111112],[-0.0011892361111111112,-0.18910590277777778],[0.0057421875,-0.17234375],[0.012009548611111111,-0.15854166666666666],[0.01837673611111111,-0.14749131944444444],[0.02443576388888889,-0.13869357638888888],[0.0305078125,-0.13214409722222223],[0.03685763888888889,-0.1277690972222222],[0.044904513888888886,-0.12374131944444444],[0.05350694444444445,-0.12172309027777778],[0.05884548611111111,-0.1199609375],[0.0702560763888889,-0.1184765625],[0.077109375,-0.11793836805555556],[0.08371527777777778,-0.11793836805555556],[0.09104166666666667,-0.11746527777777778],[0.09573350694444445,-0.11702256944444445],[0.1016796875,-0.11563368055555556],[0.10577690972222223,-0.113984375],[0.10946614583333333,-0.11151909722222222],[0.11233506944444445,-0.10822916666666667],[0.11582899305555555,-0.1047265625],[0.12211805555555555,-0.09842447916666666],[0.12611545138888888,-0.09483072916666667],[0.13149305555555554,-0.090390625],[0.13652777777777778,-0.08673177083333333],[0.14108940972222223,-0.08260416666666667],[0.14596354166666667,-0.07825520833333334],[0.15008246527777777,-0.07368489583333333],[0.15404947916666667,-0.06970920138888889],[0.15745225694444445,-0.06585503472222222],[0.16186631944444443,-0.06142795138888889],[0.164140625,-0.05914496527777778],[0.16597222222222222,-0.05695746527777778],[0.16764756944444445,-0.05562065972222222],[0.16932291666666666,-0.054283854166666666],[0.1709982638888889,-0.05329427083333333],[0.17308159722222222,-0.05259114583333333],[0.17563802083333332,-0.05259114583333333],[0.1787282986111111,-0.05259114583333333],[0.1817578125,-0.05259114583333333],[0.18630208333333334,-0.05259114583333333],[0.18986545138888888,-0.05259114583333333],[0.19342881944444446,-0.05259114583333333],[0.1977734375,-0.05223958333333333],[0.20259114583333335,-0.05006076388888889],[0.20728298611111112,-0.04791232638888889],[0.21138020833333335,-0.04585503472222222],[0.21547743055555554,-0.04461805555555556],[0.21957465277777777,-0.04338107638888889],[0.22313802083333334,-0.04258680555555556],[0.22928385416666666,-0.0409375],[0.23231336805555555,-0.03979600694444444],[0.23534288194444444,-0.03865451388888889],[0.23742621527777777,-0.03725694444444445],[0.23950954861111112,-0.035859375],[0.24159288194444445,-0.03446180555555556],[0.24367621527777777,-0.03306423611111111],[0.24585503472222223,-0.031223958333333333],[0.2479296875,-0.029830729166666667],[0.2510546875,-0.027734375],[0.2528255208333333,-0.025954861111111113],[0.25459635416666665,-0.024175347222222223],[0.2558637152777778,-0.022899305555555555],[0.2571310763888889,-0.02162326388888889],[0.25808159722222224,-0.0206640625],[0.2586545138888889,-0.020082465277777777],[0.2592274305555556,-0.019791666666666666],[0.2595138888888889,-0.019500868055555554],[0.2595138888888889,-0.019500868055555554],[0.2595138888888889,-0.019500868055555554],[0.2595138888888889,-0.019500868055555554],[0.2595138888888889,-0.019500868055555554],[0.2595138888888889,-0.019500868055555554],[0.2595138888888889,-0.019500868055555554],[0.2595138888888889,-0.019500868055555554],[0.2595138888888889,-0.019500868055555554]]]",1,[84],,,,,,,,,,,,,,park.jpg,space,2.92798,0,23,23,75,1,pantry5.jpg,playground6.jpg,operatingroom4.jpg,lockerroom.jpg,,
Image_List_4,,,,,,,,,,,,,,,,44480,2020-11-19_16h13.37.037,analogCatScenes,2020.1.3,MacIntel,60,"[1440,900]","[[[-0.009188368055555556,-0.2021484375],[-0.009188368055555556,-0.2021484375],[-0.009188368055555556,-0.2021484375],[-0.009188368055555556,-0.2021484375],[-0.009188368055555556,-0.2021484375],[-0.009188368055555556,-0.2021484375],[-0.009188368055555556,-0.2021484375],[-0.009188368055555556,-0.2021484375],[-0.009188368055555556,-0.2021484375],[-0.009188368055555556,-0.2021484375],[-0.009188368055555556,-0.2021484375],[-0.009188368055555556,-0.2021484375],[-0.009188368055555556,-0.2021484375],[-0.009188368055555556,-0.20137586805555555],[-0.010381944444444444,-0.19000868055555556],[-0.012174479166666667,-0.17689236111111112],[-0.014088541666666666,-0.16080729166666666],[-0.019071180555555556,-0.13008680555555555],[-0.02258246527777778,-0.09495659722222222],[-0.026219618055555557,-0.05682291666666667],[-0.03185763888888889,-0.0154296875],[-0.036705729166666666,0.029149305555555557],[-0.04206597222222222,0.07903645833333334],[-0.044171006944444445,0.09715711805555556],[-0.045460069444444445,0.11336805555555556],[-0.047100694444444445,0.123828125],[-0.04924045138888889,0.1336935763888889],[-0.05072048611111111,0.14102864583333333],[-0.052296006944444445,0.14932725694444443],[-0.052296006944444445,0.15414496527777777],[-0.052296006944444445,0.15825086805555555],[-0.052296006944444445,0.16239583333333332],[-0.052296006944444445,0.1640798611111111],[-0.052296006944444445,0.16535590277777779],[-0.052296006944444445,0.1662847222222222],[-0.05200954861111111,0.16721354166666666],[-0.05169270833333333,0.16889756944444445],[-0.05137586805555556,0.17058159722222221],[-0.05137586805555556,0.172265625],[-0.05137586805555556,0.17354166666666668],[-0.05137586805555556,0.17476128472222222],[-0.05137586805555556,0.17534288194444445],[-0.05137586805555556,0.1762717013888889],[-0.05137586805555556,0.17795572916666666],[-0.05137586805555556,0.18004774305555554],[-0.05137586805555556,0.18173177083333333],[-0.05137586805555556,0.1830078125],[-0.05137586805555556,0.18393663194444446],[-0.05137586805555556,0.18422743055555554],[-0.05137586805555556,0.18479166666666666],[-0.05108940972222222,0.1856640625],[-0.05080295138888889,0.18624565972222223],[-0.05080295138888889,0.18682725694444444],[-0.05080295138888889,0.18711805555555555],[-0.05080295138888889,0.18739149305555555],[-0.05080295138888889,0.18739149305555555],[-0.05080295138888889,0.18739149305555555],[-0.05080295138888889,0.18739149305555555],[-0.05080295138888889,0.18739149305555555],[-0.05080295138888889,0.18739149305555555],[-0.05080295138888889,0.18739149305555555],[-0.05080295138888889,0.18739149305555555],[-0.05080295138888889,0.18739149305555555]]]",1,[63],,,,,,,,,,,,,,soccerfield.jpg,space,3.16122,0,24,24,88,1,rooftop1.jpg,track.jpg,sculpturegarden4.jpg,sandbox.jpg,,
Image_List_4,,,,,,,,,,,,,,,,44480,2020-11-19_16h13.37.037,analogCatScenes,2020.1.3,MacIntel,60,"[1440,900]","[[[0.002348090277777778,-0.1936892361111111],[0.002348090277777778,-0.1936892361111111],[0.002348090277777778,-0.1936892361111111],[0.002348090277777778,-0.1936892361111111],[0.002348090277777778,-0.1936892361111111],[0.002348090277777778,-0.1936892361111111],[0.002348090277777778,-0.1936892361111111],[0.002348090277777778,-0.1936892361111111],[0.002348090277777778,-0.1936892361111111],[0.002348090277777778,-0.1936892361111111],[0.002348090277777778,-0.1936892361111111],[0.002348090277777778,-0.1936892361111111],[0.002348090277777778,-0.1936892361111111],[0.002348090277777778,-0.1936892361111111],[0.002348090277777778,-0.1936892361111111],[0.002348090277777778,-0.1936892361111111],[0.002348090277777778,-0.1936892361111111],[0.002348090277777778,-0.1936892361111111],[0.002348090277777778,-0.1936892361111111],[0.002348090277777778,-0.1936892361111111],[0.002348090277777778,-0.1936892361111111],[0.002348090277777778,-0.1936892361111111],[0.002348090277777778,-0.1936892361111111],[0.002348090277777778,-0.1936892361111111],[0.002348090277777778,-0.1936892361111111],[0.002348090277777778,-0.1936892361111111],[0.002348090277777778,-0.1936892361111111],[0.002348090277777778,-0.1936892361111111],[0.002348090277777778,-0.1936892361111111],[0.002348090277777778,-0.1936892361111111],[0.002348090277777778,-0.1936892361111111],[0.002348090277777778,-0.1936892361111111],[0.002348090277777778,-0.1936892361111111],[0.002348090277777778,-0.1936892361111111],[0.002348090277777778,-0.1936892361111111],[0.002348090277777778,-0.1936892361111111],[0.002348090277777778,-0.1936892361111111],[0.002348090277777778,-0.1936892361111111],[0.002348090277777778,-0.1936892361111111],[0.002348090277777778,-0.1936892361111111],[0.002348090277777778,-0.1936892361111111],[0.002348090277777778,-0.1936892361111111],[0.002348090277777778,-0.1936892361111111],[0.002348090277777778,-0.1936892361111111],[0.00003472222222222222,-0.1936892361111111],[-0.005920138888888889,-0.19274305555555554],[-0.023038194444444444,-0.18944878472222224],[-0.04465277777777778,-0.18512586805555556],[-0.06870659722222222,-0.1798611111111111],[-0.08516493055555556,-0.17584635416666666],[-0.11181423611111112,-0.1678732638888889],[-0.12661458333333334,-0.16144097222222223],[-0.14075086805555556,-0.15307291666666667],[-0.15489583333333334,-0.14470052083333335],[-0.1690407986111111,-0.136328125],[-0.18375,-0.12928385416666666],[-0.19820746527777777,-0.12360243055555556],[-0.21229166666666666,-0.11933159722222222],[-0.22540798611111112,-0.11575520833333333],[-0.24151041666666667,-0.1101953125],[-0.24796440972222222,-0.10682291666666667],[-0.2573611111111111,-0.10128472222222222],[-0.2618402777777778,-0.09815972222222222],[-0.26672743055555553,-0.09544270833333333],[-0.27139756944444443,-0.09330729166666667],[-0.27609809027777776,-0.09159722222222222],[-0.2807986111111111,-0.09029947916666667],[-0.2854904513888889,-0.08944444444444444],[-0.2909809027777778,-0.08806857638888889],[-0.29693576388888887,-0.0866796875],[-0.30428385416666665,-0.08493923611111111],[-0.30983072916666665,-0.08355034722222222],[-0.31452690972222225,-0.08225694444444444],[-0.3186328125,-0.08143229166666667],[-0.3217317708333333,-0.08032118055555555],[-0.3238845486111111,-0.07962239583333333],[-0.32556857638888886,-0.07930121527777778],[-0.32556857638888886,-0.07930121527777778],[-0.32556857638888886,-0.07930121527777778],[-0.32556857638888886,-0.07930121527777778],[-0.32556857638888886,-0.07930121527777778],[-0.32556857638888886,-0.07930121527777778],[-0.32556857638888886,-0.07930121527777778],[-0.32556857638888886,-0.07930121527777778],[-0.32556857638888886,-0.07930121527777778],[-0.32556857638888886,-0.07930121527777778],[-0.32556857638888886,-0.07930121527777778],[-0.32556857638888886,-0.07930121527777778]],[[0.003654513888888889,-0.19178385416666666],[0.003654513888888889,-0.19178385416666666],[0.003654513888888889,-0.19178385416666666],[0.003654513888888889,-0.19178385416666666],[0.003654513888888889,-0.19178385416666666],[0.003654513888888889,-0.19178385416666666],[0.003654513888888889,-0.19047743055555555],[0.003654513888888889,-0.18879340277777779],[0.005260416666666667,-0.18316840277777777],[0.010212673611111112,-0.1694878472222222],[0.014947916666666667,-0.15777777777777777],[0.02020833333333333,-0.14065972222222223],[0.028723958333333334,-0.11997395833333334],[0.0365234375,-0.10079861111111112],[0.04397569444444444,-0.08381076388888889],[0.0516796875,-0.06901041666666667],[0.05688368055555556,-0.05736545138888889],[0.06127604166666667,-0.04690538194444444],[0.06501302083333334,-0.03728732638888889],[0.06857204861111112,-0.024505208333333334],[0.07013888888888889,-0.015668402777777778],[0.07063802083333333,-0.007612847222222222],[0.07063802083333333,0.0004427083333333333],[0.07016493055555556,0.007057291666666667],[0.06714409722222223,0.015112847222222222],[0.06361979166666666,0.023168402777777777],[0.06128472222222222,0.029249131944444444],[0.05786458333333333,0.0360546875],[0.0544921875,0.04250868055555555],[0.04649739583333334,0.05148003472222222],[0.04064236111111111,0.05686197916666667],[0.03315972222222222,0.06327690972222222],[0.025677083333333333,0.07022569444444444],[0.017413194444444443,0.07792534722222222],[0.011618923611111111,0.08289930555555555],[0.005043402777777778,0.08799913194444445],[0.00015625,0.09112413194444445],[-0.003415798611111111,0.09233072916666667],[-0.00546875,0.09233072916666667],[-0.00546875,0.09233072916666667],[-0.00546875,0.09233072916666667],[-0.00546875,0.09233072916666667],[-0.00546875,0.09233072916666667],[-0.00546875,0.09233072916666667],[-0.00546875,0.09233072916666667],[-0.00546875,0.09233072916666667],[-0.00546875,0.09233072916666667],[-0.00546875,0.09233072916666667],[-0.00546875,0.09233072916666667],[-0.00546875,0.09233072916666667],[-0.00546875,0.09233072916666667],[-0.00546875,0.09233072916666667],[-0.00546875,0.09233072916666667],[-0.00546875,0.09233072916666667],[-0.00546875,0.09233072916666667],[-0.00546875,0.09233072916666667],[-0.00546875,0.09233072916666667],[-0.00546875,0.09233072916666667],[-0.00546875,0.09233072916666667],[-0.005729166666666666,0.09233072916666667],[-0.008420138888888888,0.09426215277777777],[-0.013615451388888889,0.098984375],[-0.02019097222222222,0.10455295138888888],[-0.025360243055555554,0.10830295138888889],[-0.03355902777777778,0.11483940972222222],[-0.038038194444444444,0.11796440972222222],[-0.04307725694444445,0.12209201388888889],[-0.04998697916666667,0.12641493055555555],[-0.053684895833333336,0.12888020833333333],[-0.05926215277777778,0.13263020833333333],[-0.06383246527777778,0.1367578125],[-0.06902777777777777,0.141953125],[-0.07390625,0.14831163194444444],[-0.07931423611111112,0.15532118055555555],[-0.0838498263888889,0.16098524305555556],[-0.0885720486111111,0.16665364583333334],[-0.09216579861111111,0.1711328125],[-0.09922743055555555,0.17787326388888888],[-0.10308159722222222,0.18087239583333334],[-0.10513454861111111,0.18210503472222223],[-0.10513454861111111,0.18210503472222223],[-0.10513454861111111,0.18210503472222223],[-0.10513454861111111,0.18210503472222223],[-0.10513454861111111,0.18210503472222223],[-0.10513454861111111,0.18210503472222223],[-0.10513454861111111,0.18210503472222223],[-0.10513454861111111,0.18210503472222223],[-0.10513454861111111,0.18210503472222223],[-0.10513454861111111,0.18210503472222223],[-0.10513454861111111,0.18210503472222223],[-0.10513454861111111,0.18210503472222223],[-0.10513454861111111,0.18210503472222223],[-0.10513454861111111,0.18210503472222223],[-0.10513454861111111,0.18210503472222223],[-0.10513454861111111,0.18210503472222223],[-0.10513454861111111,0.18210503472222223],[-0.11175347222222222,0.18707899305555556],[-0.11353298611111111,0.18854166666666666],[-0.11480902777777778,0.18950086805555555],[-0.1175,0.19184461805555555],[-0.1219140625,0.19543836805555556],[-0.13039496527777777,0.20281684027777777],[-0.14356336805555556,0.21466579861111112],[-0.15673177083333334,0.22582899305555557],[-0.1729296875,0.2399001736111111],[-0.18716145833333334,0.25203125],[-0.1963498263888889,0.2600911458333333],[-0.20095052083333334,0.2646614583333333],[-0.20394965277777777,0.2689236111111111],[-0.20694878472222222,0.2727777777777778],[-0.20982638888888888,0.2764756944444444],[-0.21323784722222222,0.28032986111111113],[-0.2148828125,0.2819748263888889],[-0.2148828125,0.2819748263888889],[-0.2148828125,0.2819748263888889],[-0.2148828125,0.2819748263888889],[-0.2148828125,0.2819748263888889],[-0.2148828125,0.2819748263888889],[-0.2148828125,0.2819748263888889],[-0.2148828125,0.2819748263888889],[-0.2148828125,0.2819748263888889],[-0.2148828125,0.2819748263888889],[-0.2148828125,0.2819748263888889],[-0.2148828125,0.2819748263888889],[-0.2148828125,0.2819748263888889],[-0.2148828125,0.2819748263888889],[-0.2148828125,0.2819748263888889],[-0.2148828125,0.2819748263888889],[-0.2148828125,0.2819748263888889],[-0.2148828125,0.2819748263888889],[-0.2148828125,0.2819748263888889],[-0.2156597222222222,0.28223524305555553],[-0.22101996527777779,0.28488715277777776],[-0.2280685763888889,0.28891493055555556],[-0.23745659722222223,0.29358072916666667],[-0.24672743055555554,0.2979817708333333],[-0.25427951388888886,0.3020095486111111],[-0.26061631944444447,0.30640625],[-0.2650954861111111,0.31],[-0.2701388888888889,0.31365885416666667],[-0.27342881944444447,0.3169487847222222],[-0.2757118055555556,0.3192317708333333],[-0.27789930555555553,0.3210720486111111],[-0.2801822916666667,0.3233550347222222],[-0.28195746527777776,0.32513020833333334],[-0.28484375,0.3280164930555556],[-0.28658854166666664,0.3297612847222222],[-0.2878645833333333,0.3310373263888889],[-0.28954427083333334,0.3323697916666667],[-0.29094184027777775,0.33446180555555555],[-0.29278211805555554,0.33664930555555556],[-0.29515625,0.3394357638888889],[-0.2970876736111111,0.3421267361111111],[-0.29987847222222225,0.3445703125],[-0.30115451388888886,0.34552951388888886],[-0.3020833333333333,0.3461414930555556],[-0.3027213541666667,0.3461414930555556],[-0.3027213541666667,0.3461414930555556],[-0.3027213541666667,0.3461414930555556],[-0.3027213541666667,0.3461414930555556],[-0.3027213541666667,0.3461414930555556],[-0.3027213541666667,0.3461414930555556],[-0.3027213541666667,0.3461414930555556]]]",2,"[88,163]",,,,,,,,,,,,,,staircase7.jpg,space,7.0605,0,25,25,89,1,ruralroad7.jpg,track5.jpg,ShowJumping7.jpg,sculpturegarden3.jpg,,
