image_list,key_resp_intructions.keys,key_resp_intructions.rt,key_resp_intructions_3.keys,key_resp_intructions_3.rt,PracticeComplete_2.keys,PracticeComplete_2.rt,PracticeComplete_3.keys,PracticeComplete_3.rt,demo_trials.thisRepN,demo_trials.thisTrialN,demo_trials.thisN,demo_trials.thisIndex,demo_trials.ran,demo_images,path_images,participant,date,expName,psychopyVersion,OS,frameRate,windowSize,practice_complete.keys,practice_complete.rt,boxes_checked,PracticeComplete.keys,PracticeComplete.rt,practice_trials.thisRepN,practice_trials.thisTrialN,practice_trials.thisN,practice_trials.thisIndex,practice_trials.ran,practice_images,feedback_images,key_resp_intructions_2.keys,key_resp_intructions_2.rt,Image_List_4,trial_complete.keys,trial_complete.rt,trial_mouse.x,trial_mouse.y,trial_mouse.leftButton,trial_mouse.midButton,trial_mouse.rightButton,trial_mouse.time,trial_mouse.clicked_name,trials.thisRepN,trials.thisTrialN,trials.thisN,trials.thisIndex,trials.ran,Image_List_1,Image_List_2,Image_List_3,Image_List_5,key_resp.keys,key_resp.rt
Image_List_4,space,14.40057,space,6.164875,space,14.09654,space,12.58465,0,0,0,2,1,ahead_right.jpg,ahead_right_path.jpg,44508,2020-11-18_00h58.05.380,lingCatScenes,2020.1.3,MacIntel,60,,,,,,,,,,,,,,,,,,,,,,,,,,,,,,,,,,,,
Image_List_4,,,,,space,4.762045,space,4.14402,0,1,1,0,1,ahead.jpg,ahead_path.jpg,44508,2020-11-18_00h58.05.380,lingCatScenes,2020.1.3,MacIntel,60,,,,,,,,,,,,,,,,,,,,,,,,,,,,,,,,,,,,
Image_List_4,,,,,space,5.967525,space,3.537035,0,2,2,6,1,right_left.jpg,right_left_path.jpg,44508,2020-11-18_00h58.05.380,lingCatScenes,2020.1.3,MacIntel,60,,,,,,,,,,,,,,,,,,,,,,,,,,,,,,,,,,,,
Image_List_4,,,,,space,3.50956,space,2.515095,0,3,3,3,1,ahead_right_left.jpg,ahead_right_left_path.jpg,44508,2020-11-18_00h58.05.380,lingCatScenes,2020.1.3,MacIntel,60,,,,,,,,,,,,,,,,,,,,,,,,,,,,,,,,,,,,
Image_List_4,,,,,space,2.198495,space,2.70108,0,4,4,1,1,ahead_left.jpg,ahead_left_path.jpg,44508,2020-11-18_00h58.05.380,lingCatScenes,2020.1.3,MacIntel,60,,,,,,,,,,,,,,,,,,,,,,,,,,,,,,,,,,,,
Image_List_4,,,,,space,4.346435,space,3.08554,0,5,5,5,1,right.jpg,right_path.jpg,44508,2020-11-18_00h58.05.380,lingCatScenes,2020.1.3,MacIntel,60,,,,,,,,,,,,,,,,,,,,,,,,,,,,,,,,,,,,
Image_List_4,,,,,space,2.014195,space,1.978135,0,6,6,4,1,left.jpg,left_path.jpg,44508,2020-11-18_00h58.05.380,lingCatScenes,2020.1.3,MacIntel,60,,,,,,,,,,,,,,,,,,,,,,,,,,,,,,,,,,,,
Image_List_4,,,,,,,,,,,,,,,,44508,2020-11-18_00h58.05.380,lingCatScenes,2020.1.3,MacIntel,60,"[1440,900]",space,17.511905,"[""slight_left_box"",""right_box""]",space,3.374335,0,0,0,6,1,right_left_2.jpg,right_left_2_path.jpg,,,,,,,,,,,,,,,,,,,,,,,
Image_List_4,,,,,,,,,,,,,,,,44508,2020-11-18_00h58.05.380,lingCatScenes,2020.1.3,MacIntel,60,"[1440,900]",space,11.511415,"[""right_box""]",space,1.36611,0,1,1,5,1,right_2.jpg,right_2_path.jpg,,,,,,,,,,,,,,,,,,,,,,,
Image_List_4,,,,,,,,,,,,,,,,44508,2020-11-18_00h58.05.380,lingCatScenes,2020.1.3,MacIntel,60,"[1440,900]",space,3.010325,"[""ahead_box""]",space,2.282945,0,2,2,0,1,ahead_2.jpg,ahead_2_path.jpg,,,,,,,,,,,,,,,,,,,,,,,
Image_List_4,,,,,,,,,,,,,,,,44508,2020-11-18_00h58.05.380,lingCatScenes,2020.1.3,MacIntel,60,"[1440,900]",space,9.72144,"[""slight_right_box""]",space,2.96378,0,3,3,1,1,ahead_left_2.jpg,ahead_left_2_path.jpg,,,,,,,,,,,,,,,,,,,,,,,
Image_List_4,,,,,,,,,,,,,,,,44508,2020-11-18_00h58.05.380,lingCatScenes,2020.1.3,MacIntel,60,"[1440,900]",space,19.983955,"[""ahead_box"",""sharp_right_box""]",space,3.660555,0,4,4,2,1,ahead_right_2.jpg,ahead_right_2_path.jpg,,,,,,,,,,,,,,,,,,,,,,,
Image_List_4,,,,,,,,,,,,,,,,44508,2020-11-18_00h58.05.380,lingCatScenes,2020.1.3,MacIntel,60,"[1440,900]",space,10.756785,"[""left_box""]",space,1.15837,0,5,5,4,1,left_2.jpg,left_2_path.jpg,,,,,,,,,,,,,,,,,,,,,,,
Image_List_4,,,,,,,,,,,,,,,,44508,2020-11-18_00h58.05.380,lingCatScenes,2020.1.3,MacIntel,60,"[1440,900]",space,9.937595,"[""ahead_box"",""left_box""]",space,2.79643,0,6,6,3,1,ahead_right_left_2.jpg,ahead_right_left_2_path.jpg,,,,,,,,,,,,,,,,,,,,,,,
Image_List_4,,,,,,,,,,,,,,,,44508,2020-11-18_00h58.05.380,lingCatScenes,2020.1.3,MacIntel,60,"[1440,900]",,,"[""trial_slight_left_box"",""trial_sharp_right_box""]",,,,,,,,,,space,6.79846,cemetery.jpg,space,16.939345,"[-0.19349392361111112,0.6197222222222222]","[-0.2925217013888889,-0.301484375]","[1,1]","[0,0]","[0,0]","[9.906584999989718,13.006700000027195]","[""trial_slight_left_box"",""trial_sharp_right_box""]",0,0,0,22,1,bowlingalley5.jpg,church6.jpg,cargo5.jpg,bistrooutdoor6.jpg,,
Image_List_4,,,,,,,,,,,,,,,,44508,2020-11-18_00h58.05.380,lingCatScenes,2020.1.3,MacIntel,60,"[1440,900]",,,"[""trial_slight_left_box"",""trial_right_box""]",,,,,,,,,,,,weightroom.jpg,space,10.8524,"[-0.17494791666666668,-0.1911328125,0.42088975694444447]","[-0.29953559027777776,-0.3053125,-0.3056467013888889]","[1,1,1]","[0,0,0]","[0,0,0]","[7.030404999968596,7.880260000005364,9.480034999898635]","[""trial_slight_left_box"",""trial_right_box""]",0,1,1,94,1,treehouse.jpg,waitingroom3.jpg,staircase6.jpg,trainStation3.jpg,,
Image_List_4,,,,,,,,,,,,,,,,44508,2020-11-18_00h58.05.380,lingCatScenes,2020.1.3,MacIntel,60,"[1440,900]",,,"[""trial_ahead_box""]",,,,,,,,,,,,homegarage3.jpg,space,5.16585,[-0.002230902777777778],[-0.29194878472222224],[1],[0],[0],[2.081054999958724],"[""trial_ahead_box""]",0,2,2,53,1,gazebo3.jpg,homeoffice.jpg,frontLawn3.jpg,fountain.jpg,,
Image_List_4,,,,,,,,,,,,,,,,44508,2020-11-18_00h58.05.380,lingCatScenes,2020.1.3,MacIntel,60,"[1440,900]",,,"[""trial_ahead_box"",""trial_slight_right_box""]",,,,,,,,,,,,baywindow5.jpg,space,7.00105,"[-0.008138020833333334,0.40078125,0.40432725694444444,0.23276909722222222,0.19428819444444445,0.38677517361111113]","[-0.30572482638888887,-0.32774305555555555,-0.30944444444444447,-0.3243185763888889,-0.31055555555555553,-0.3093532986111111]","[1,1,1,1,1,1]","[0,0,0,0,0,0]","[0,0,0,0,0,0]","[2.2622299999929965,4.095369999995455,4.745879999944009,5.395224999985658,5.812004999956116,6.529789999942295]","[""trial_ahead_box"",""trial_right_box"",""trial_slight_right_box"",""trial_right_box""]",0,3,3,11,1,backyard2.jpg,basketballcourt4.jpg,bambooforest3.jpg,backyard1.jpg,,
Image_List_4,,,,,,,,,,,,,,,,44508,2020-11-18_00h58.05.380,lingCatScenes,2020.1.3,MacIntel,60,"[1440,900]",,,"[""trial_right_box"",""trial_sharp_left_box"",""trial_ahead_box""]",,,,,,,,,,,,lab4.jpg,space,7.969985,"[0.40307725694444446,-0.6041276041666667,-0.014865451388888888]","[-0.29309461805555553,-0.3041015625,-0.3040407986111111]","[1,1,1]","[0,0,0]","[0,0,0]","[3.0970450000604615,4.996995000052266,7.647265000035986]","[""trial_right_box"",""trial_sharp_left_box"",""trial_ahead_box""]",0,4,4,63,1,hut2.jpg,museum6.jpg,hotelRoom2.jpg,highway2.jpg,,
Image_List_4,,,,,,,,,,,,,,,,44508,2020-11-18_00h58.05.380,lingCatScenes,2020.1.3,MacIntel,60,"[1440,900]",,,"[""trial_left_box"",""trial_sharp_right_box"",""trial_ahead_box""]",,,,,,,,,,,,winebarrel4.jpg,space,10.00068,"[-0.4098480902777778,0.5957248263888889,0.011653645833333334]","[-0.3021961805555556,-0.2929817708333333,-0.30655381944444443]","[1,1,1]","[0,0,0]","[0,0,0]","[3.864919999963604,6.3482099999673665,7.615170000004582]","[""trial_left_box"",""trial_sharp_right_box"",""trial_ahead_box""]",0,5,5,98,1,weightroom5.jpg,wineVineyard8.jpg,warehouse3.jpg,winebarrel2.jpg,,
Image_List_4,,,,,,,,,,,,,,,,44508,2020-11-18_00h58.05.380,lingCatScenes,2020.1.3,MacIntel,60,"[1440,900]",,,"[""trial_sharp_right_box"",""trial_slight_left_box""]",,,,,,,,,,,,kindergarten_classroom7.jpg,space,47.42965,"[0.5902170138888889,-0.18378472222222222]","[-0.2980555555555556,-0.298984375]","[1,1]","[0,0]","[0,0]","[6.363735000020824,44.49566000001505]","[""trial_sharp_right_box"",""trial_slight_left_box""]",0,6,6,61,1,HorseRaceTrack.jpg,metroInside4.jpg,homegarden6.jpg,hayfield6.jpg,,
Image_List_4,,,,,,,,,,,,,,,,44508,2020-11-18_00h58.05.380,lingCatScenes,2020.1.3,MacIntel,60,"[1440,900]",,,"[""trial_sharp_left_box"",""trial_left_box"",""trial_slight_left_box"",""trial_ahead_box"",""trial_slight_right_box"",""trial_right_box"",""trial_sharp_right_box""]",,,,,,,,,,,,sandDunes_desert_outdoor3.jpg,space,8.286035,"[-0.5950086805555556,-0.4145095486111111,-0.2238064236111111,-0.007243923611111111,0.1806640625,0.40392361111111114,0.6205078125]","[-0.3035720486111111,-0.30422743055555557,-0.3167013888888889,-0.29971788194444443,-0.31786458333333334,-0.31071180555555555,-0.2985763888888889]","[1,1,1,1,1,1,1]","[0,0,0,0,0,0,0]","[0,0,0,0,0,0,0]","[1.6636100000469014,2.0655600000172853,2.7481700000353158,3.7968249999685213,4.364214999950491,4.9806050000479445,5.614850000012666]","[""trial_sharp_left_box"",""trial_left_box"",""trial_slight_left_box"",""trial_ahead_box"",""trial_slight_right_box"",""trial_right_box"",""trial_sharp_right_box""]",0,7,7,85,1,recordingstudio4.jpg,sidewalk5.jpg,ruralroad2.jpg,rooftop3.jpg,,
Image_List_4,,,,,,,,,,,,,,,,44508,2020-11-18_00h58.05.380,lingCatScenes,2020.1.3,MacIntel,60,"[1440,900]",,,"[""trial_slight_right_box""]",,,,,,,,,,,,attic4.jpg,space,11.41379,[0.20847222222222223],[-0.31278211805555556],[1],[0],[0],[2.1799749999772757],"[""trial_slight_right_box""]",0,8,8,5,1,artStudio3.jpg,bambooforest.jpg,auto_showroom4.jpg,amusement3.jpg,,
Image_List_4,,,,,,,,,,,,,,,,44508,2020-11-18_00h58.05.380,lingCatScenes,2020.1.3,MacIntel,60,"[1440,900]",,,"[""trial_left_box"",""trial_slight_right_box""]",,,,,,,,,,,,museum4.jpg,space,25.26552,"[-0.40014322916666667,0.21131944444444445]","[-0.29702690972222223,-0.3033767361111111]","[1,1]","[0,0]","[0,0]","[2.328459999989718,3.7946300000185147]","[""trial_left_box"",""trial_slight_right_box""]",0,9,9,72,1,museum5.jpg,pharmacy4.jpg,musicStore1.jpg,kindergarten_classroom.jpg,,
Image_List_4,,,,,,,,,,,,,,,,44508,2020-11-18_00h58.05.380,lingCatScenes,2020.1.3,MacIntel,60,"[1440,900]",,,"[""trial_ahead_box"",""trial_sharp_right_box"",""trial_sharp_left_box""]",,,,,,,,,,,,castle2.jpg,space,7.098945,"[-0.0045703125,0.5951128472222222,-0.6045486111111111]","[-0.2918619791666667,-0.2971006944444444,-0.30765625]","[1,1,1]","[0,0,0]","[0,0,0]","[1.8801699999021366,3.345534999971278,4.31277499999851]","[""trial_ahead_box"",""trial_sharp_right_box"",""trial_sharp_left_box""]",0,10,10,18,1,bleachers5.jpg,casino1.jpg,brewery4.jpg,basement6.jpg,,
Image_List_4,,,,,,,,,,,,,,,,44508,2020-11-18_00h58.05.380,lingCatScenes,2020.1.3,MacIntel,60,"[1440,900]",,,"[""trial_ahead_box"",""trial_left_box"",""trial_right_box""]",,,,,,,,,,,,readingroom4.jpg,space,6.54979,"[0.0016493055555555556,-0.41834635416666666,0.4036284722222222,0.40219184027777777]","[-0.29875,-0.32483072916666667,-0.3273263888888889,-0.31095052083333335]","[1,1,1,1]","[0,0,0,0]","[0,0,0,0]","[1.2976949999574572,3.1654499999713153,3.916164999944158,4.747864999924786]","[""trial_ahead_box"",""trial_left_box"",""trial_right_box""]",0,11,11,82,1,publicrestroom2.jpg,sandDunes_desert_outdoor9.jpg,promenadeDeck3.jpg,postoffice4.jpg,,
Image_List_4,,,,,,,,,,,,,,,,44508,2020-11-18_00h58.05.380,lingCatScenes,2020.1.3,MacIntel,60,"[1440,900]",,,"[""trial_ahead_box""]",,,,,,,,,,,,farm4.jpg,space,12.997305,[-0.02066840277777778],[-0.30792100694444446],[1],[0],[0],[8.74586999998428],"[""trial_ahead_box""]",0,12,12,42,1,exerciseequipment3.jpg,firestation3.jpg,drymountains6.jpg,desertvegetation2.jpg,,
Image_List_4,,,,,,,,,,,,,,,,44508,2020-11-18_00h58.05.380,lingCatScenes,2020.1.3,MacIntel,60,"[1440,900]",,,"[""trial_sharp_right_box"",""trial_sharp_left_box"",""trial_ahead_box""]",,,,,,,,,,,,dentist4.jpg,space,9.38424,"[0.6021657986111111,-0.6063585069444445,0.006640625]","[-0.2961545138888889,-0.31393663194444443,-0.29606770833333335]","[1,1,1]","[0,0,0]","[0,0,0]","[4.91358500008937,6.11533500009682,7.814185000024736]","[""trial_sharp_right_box"",""trial_sharp_left_box"",""trial_ahead_box""]",0,13,13,32,1,dancestudio6.jpg,diner12.jpg,constructionSite2.jpg,cabin4.jpg,,
Image_List_4,,,,,,,,,,,,,,,,44508,2020-11-18_00h58.05.380,lingCatScenes,2020.1.3,MacIntel,60,"[1440,900]",,,"[""trial_ahead_box"",""trial_slight_left_box"",""trial_right_box""]",,,,,,,,,,,,carmechanic.jpg,space,6.75058,"[0.006640625,-0.21832465277777777,0.42786024305555553,0.4011501736111111]","[-0.29606770833333335,-0.2899479166666667,-0.2969704861111111,-0.29375]","[1,1,1,1]","[0,0,0,0]","[0,0,0,0]","[2.664604999939911,4.298994999960996,5.74808499997016,6.398439999902621]","[""trial_ahead_box"",""trial_slight_left_box"",""trial_right_box""]",0,14,14,17,1,bikerack1.jpg,campsite6.jpg,breakroom4.jpg,baseball6.jpg,,
Image_List_4,,,,,,,,,,,,,,,,44508,2020-11-18_00h58.05.380,lingCatScenes,2020.1.3,MacIntel,60,"[1440,900]",,,"[""trial_left_box"",""trial_ahead_box"",""trial_sharp_right_box""]",,,,,,,,,,,,basement5.jpg,space,6.16344,"[-0.39037760416666667,0.012274305555555556,0.6047873263888889]","[-0.29401909722222225,-0.28989149305555556,-0.29289930555555554]","[1,1,1]","[0,0,0]","[0,0,0]","[2.2292250000173226,3.4462449999991804,4.7628500000573695]","[""trial_left_box"",""trial_ahead_box"",""trial_sharp_right_box""]",0,15,15,9,1,auto_showroom3.jpg,bar2.jpg,ballroom2.jpg,arcade2.jpg,,
Image_List_4,,,,,,,,,,,,,,,,44508,2020-11-18_00h58.05.380,lingCatScenes,2020.1.3,MacIntel,60,"[1440,900]",,,"[""trial_ahead_box"",""trial_right_box""]",,,,,,,,,,,,metroInside1.jpg,space,9.780685,"[-0.02359375,0.41890625]","[-0.2903298611111111,-0.28953993055555555]","[1,1]","[0,0]","[0,0]","[1.5793450000928715,8.366070000105537]","[""trial_ahead_box"",""trial_right_box""]",0,16,16,69,1,liquorstore8.jpg,parkinglot2.jpg,livingroom.jpg,icecream2.jpg,,
Image_List_4,,,,,,,,,,,,,,,,44508,2020-11-18_00h58.05.380,lingCatScenes,2020.1.3,MacIntel,60,"[1440,900]",,,"[""trial_sharp_right_box"",""trial_sharp_left_box""]",,,,,,,,,,,,wrestlingring7.jpg,space,8.91309,"[0.6198480902777778,-0.6002213541666667]","[-0.3147048611111111,-0.28998263888888887]","[1,1]","[0,0]","[0,0]","[6.845235000015236,7.729065000079572]","[""trial_sharp_right_box"",""trial_sharp_left_box""]",0,17,17,99,1,wineVineyard9.jpg,yogastudio4.jpg,windmill2.jpg,yogastudio1.jpg,,
Image_List_4,,,,,,,,,,,,,,,,44508,2020-11-18_00h58.05.380,lingCatScenes,2020.1.3,MacIntel,60,"[1440,900]",,,"[""trial_right_box"",""trial_sharp_left_box""]",,,,,,,,,,,,lab5.jpg,space,7.118325,"[0.39892361111111113,-0.6180902777777778,-0.6024088541666667]","[-0.29660590277777776,-0.3280034722222222,-0.31832899305555556]","[1,1,1]","[0,0,0]","[0,0,0]","[2.751270000007935,5.230005000019446,5.996749999932945]","[""trial_right_box"",""trial_sharp_left_box""]",0,18,18,64,1,igloo2.jpg,newsstand5.jpg,jewelrystore8.jpg,homegarage2.jpg,,
Image_List_4,,,,,,,,,,,,,,,,44508,2020-11-18_00h58.05.380,lingCatScenes,2020.1.3,MacIntel,60,"[1440,900]",,,"[""trial_sharp_left_box""]",,,,,,,,,,,,botanicalGarden5.jpg,space,5.337525,[-0.6164626736111111],[-0.2884201388888889],[1],[0],[0],[1.7330199999269098],"[""trial_sharp_left_box""]",0,19,19,14,1,ballroom1.jpg,breakroom5.jpg,bistrooutdoor5.jpg,ballroom3.jpg,,
Image_List_4,,,,,,,,,,,,,,,,44508,2020-11-18_00h58.05.380,lingCatScenes,2020.1.3,MacIntel,60,"[1440,900]",,,"[""trial_ahead_box"",""trial_sharp_left_box"",""trial_left_box"",""trial_slight_left_box"",""trial_slight_right_box"",""trial_right_box"",""trial_sharp_right_box""]",,,,,,,,,,,,park2.jpg,space,13.23322,"[-0.016610243055555557,-0.5772526041666667,-0.3943359375,-0.19859809027777778,0.18186197916666666,0.39319010416666667,0.5980815972222222]","[-0.31473090277777777,-0.3205034722222222,-0.3009982638888889,-0.3174956597222222,-0.28205295138888886,-0.2998871527777778,-0.31299913194444445]","[1,1,1,1,1,1,1]","[0,0,0,0,0,0,0]","[0,0,0,0,0,0,0]","[2.0142200000118464,3.531264999997802,5.930509999976493,7.764510000008158,10.21426000003703,11.047855000011623,11.631230000057258]","[""trial_ahead_box"",""trial_sharp_left_box"",""trial_left_box"",""trial_slight_left_box"",""trial_slight_right_box"",""trial_right_box"",""trial_sharp_right_box""]",0,20,20,76,1,parkinggarage.jpg,playroom4.jpg,parkinggarage3.jpg,lookout4.jpg,,
Image_List_4,,,,,,,,,,,,,,,,44508,2020-11-18_00h58.05.380,lingCatScenes,2020.1.3,MacIntel,60,"[1440,900]",,,"[""trial_sharp_left_box"",""trial_right_box""]",,,,,,,,,,,,hotelRoom7.jpg,space,12.448935,"[-0.6074522569444445,0.3908289930555556]","[-0.2980295138888889,-0.2960199652777778]","[1,1]","[0,0]","[0,0]","[5.964084999985062,9.93089499999769]","[""trial_sharp_left_box"",""trial_right_box""]",0,21,21,55,1,greenmountains.jpg,hotelRoom3.jpg,gazebo5.jpg,frontLawn2.jpg,,
Image_List_4,,,,,,,,,,,,,,,,44508,2020-11-18_00h58.05.380,lingCatScenes,2020.1.3,MacIntel,60,"[1440,900]",,,"[""trial_ahead_box"",""trial_sharp_left_box"",""trial_sharp_right_box""]",,,,,,,,,,,,greenhouse.jpg,space,10.847,"[-0.0062109375,-0.6049869791666667,-0.5978862847222223,0.5712196180555555,0.6004600694444444]","[-0.3230425347222222,-0.3299565972222222,-0.2831987847222222,-0.3068793402777778,-0.3009939236111111]","[1,1,1,1,1]","[0,0,0,0,0]","[0,0,0,0,0]","[5.196289999992587,6.864240000024438,7.814030000008643,9.246874999953434,10.013165000011213]","[""trial_ahead_box"",""trial_sharp_left_box"",""trial_sharp_right_box""]",0,22,22,49,1,frontDoor3.jpg,greenhouse5.jpg,flowershop3.jpg,farm2.jpg,,
Image_List_4,,,,,,,,,,,,,,,,44508,2020-11-18_00h58.05.380,lingCatScenes,2020.1.3,MacIntel,60,"[1440,900]",,,"[""trial_ahead_box"",""trial_left_box""]",,,,,,,,,,,,ticket_counter6.jpg,space,11.917845,"[-0.02779513888888889,-0.017356770833333333,-0.602109375,-0.3868489583333333,-0.6070703125]","[-0.3082855902777778,-0.3132421875,-0.3073871527777778,-0.2938324652777778,-0.29095486111111113]","[1,1,1,1,1]","[0,0,0,0,0]","[0,0,0,0,0]","[7.41445499996189,8.0314500000095,8.813789999927394,10.647924999939278,11.313719999976456]","[""trial_ahead_box"",""trial_sharp_left_box"",""trial_left_box"",""trial_sharp_left_box""]",0,23,23,91,1,shoestore2.jpg,trainStation5.jpg,skatepark5.jpg,sidewalk3.jpg,,
Image_List_4,,,,,,,,,,,,,,,,44508,2020-11-18_00h58.05.380,lingCatScenes,2020.1.3,MacIntel,60,"[1440,900]",,,"[""trial_sharp_left_box"",""trial_sharp_right_box""]",,,,,,,,,,,,cemetery5.jpg,space,8.261625,"[-0.6130772569444445,0.5920052083333334]","[-0.2970833333333333,-0.2928559027777778]","[1,1]","[0,0]","[0,0]","[4.9290449999971315,5.964034999953583]","[""trial_sharp_left_box"",""trial_sharp_right_box""]",0,24,24,24,1,campsite.jpg,cliff3.jpg,cave6.jpg,boardwalk.jpg,,
Image_List_4,,,,,,,,,,,,,,,,44508,2020-11-18_00h58.05.380,lingCatScenes,2020.1.3,MacIntel,60,"[1440,900]",,,"[""trial_ahead_box"",""trial_sharp_right_box"",""trial_sharp_left_box""]",,,,,,,,,,,,hut5.jpg,space,6.84881,"[-0.0330859375,0.007786458333333334,0.6080729166666666,-0.5922612847222222]","[-0.3202300347222222,-0.30388454861111114,-0.30843315972222224,-0.31785590277777775]","[1,1,1,1]","[0,0,0,0]","[0,0,0,0]","[2.563620000029914,2.997964999987744,4.780610000016168,5.746690000058152]","[""trial_ahead_box"",""trial_sharp_right_box"",""trial_sharp_left_box""]",0,25,25,57,1,hayfield5.jpg,jail1.jpg,hallway4.jpg,gazebo.jpg,,
Image_List_4,,,,,,,,,,,,,,,,44508,2020-11-18_00h58.05.380,lingCatScenes,2020.1.3,MacIntel,60,"[1440,900]",,,"[""trial_ahead_box"",""trial_slight_right_box"",""trial_right_box"",""trial_sharp_right_box"",""trial_slight_left_box"",""trial_left_box"",""trial_sharp_left_box""]",,,,,,,,,,,,park.jpg,space,12.5356,"[-0.0023394097222222223,0.20370225694444444,0.41314236111111113,0.5719487847222222,0.6094097222222222,-0.19046006944444444,-0.34779947916666665,-0.4040451388888889,-0.6013888888888889]","[-0.28280815972222223,-0.30658854166666666,-0.3076302083333333,-0.29030815972222224,-0.30450086805555554,-0.31312065972222225,-0.31100694444444443,-0.30791666666666667,-0.2976953125]","[1,1,1,1,1,1,1,1,1]","[0,0,0,0,0,0,0,0,0]","[0,0,0,0,0,0,0,0,0]","[4.26362500002142,6.230240000062622,6.6472250000806525,7.347115000011399,8.180425000027753,9.613710000063293,10.064465000061318,10.38050500000827,11.097945000045002]","[""trial_ahead_box"",""trial_slight_right_box"",""trial_right_box"",""trial_sharp_right_box"",""trial_slight_left_box"",""trial_left_box"",""trial_sharp_left_box""]",0,26,26,75,1,pantry5.jpg,playground6.jpg,operatingroom4.jpg,lockerroom.jpg,,
Image_List_4,,,,,,,,,,,,,,,,44508,2020-11-18_00h58.05.380,lingCatScenes,2020.1.3,MacIntel,60,"[1440,900]",,,"[""trial_sharp_left_box"",""trial_left_box""]",,,,,,,,,,,,stripmall3.jpg,space,26.932815,"[-0.5948177083333334,-0.41602430555555553]","[-0.2850520833333333,-0.29575086805555556]","[1,1]","[0,0]","[0,0]","[7.548194999922998,12.163744999910705]","[""trial_sharp_left_box"",""trial_left_box""]",0,27,27,90,1,savanna5.jpg,trainStation1.jpg,sidewalk1.jpg,shoestore4.jpg,,
Image_List_4,,,,,,,,,,,,,,,,44508,2020-11-18_00h58.05.380,lingCatScenes,2020.1.3,MacIntel,60,"[1440,900]",,,"[""trial_ahead_box"",""trial_slight_right_box"",""trial_sharp_right_box"",""trial_sharp_left_box""]",,,,,,,,,,,,driveway7.jpg,space,6.897745,"[0.004644097222222222,0.2066623263888889,0.6245833333333334,-0.6027300347222222]","[-0.3039409722222222,-0.30615017361111113,-0.28305121527777777,-0.28359375]","[1,1,1,1]","[0,0,0,0]","[0,0,0,0]","[1.4454749999567866,2.678844999987632,5.311809999984689,6.17964500002563]","[""trial_ahead_box"",""trial_slight_right_box"",""trial_sharp_right_box"",""trial_sharp_left_box""]",0,28,28,37,1,dining_car.jpg,driveway4.jpg,dinosaur4.jpg,citystreet9.jpg,,
Image_List_4,,,,,,,,,,,,,,,,44508,2020-11-18_00h58.05.380,lingCatScenes,2020.1.3,MacIntel,60,"[1440,900]",,,"[""trial_sharp_left_box""]",,,,,,,,,,,,bar.jpg,space,6.271295,[-0.60359375],[-0.3048046875],[1],[0],[0],[1.8800650000339374],"[""trial_sharp_left_box""]",0,29,29,8,1,attic3.jpg,banquetHall6.jpg,balconyIN.jpg,applestore4.jpg,,
Image_List_4,,,,,,,,,,,,,,,,44508,2020-11-18_00h58.05.380,lingCatScenes,2020.1.3,MacIntel,60,"[1440,900]",,,"[""trial_slight_left_box"",""trial_sharp_right_box""]",,,,,,,,,,,,dugout1.jpg,space,8.572485,"[-0.20991319444444445,0.5770659722222222]","[-0.2968923611111111,-0.30092881944444444]","[1,1]","[0,0]","[0,0]","[4.230375000042841,5.9808950000442564]","[""trial_slight_left_box"",""trial_sharp_right_box""]",0,30,30,40,1,drycleaners4.jpg,farm1.jpg,drymountains.jpg,clothingstore3.jpg,,
Image_List_4,,,,,,,,,,,,,,,,44508,2020-11-18_00h58.05.380,lingCatScenes,2020.1.3,MacIntel,60,"[1440,900]",,,"[""trial_ahead_box"",""trial_sharp_right_box"",""trial_sharp_left_box""]",,,,,,,,,,,,tvstudio2.jpg,space,6.0982,"[-0.003220486111111111,0.0168359375,0.6115451388888888,-0.5820876736111111]","[-0.3301866319444444,-0.3184809027777778,-0.28503038194444447,-0.2915277777777778]","[1,1,1,1]","[0,0,0,0]","[0,0,0,0]","[1.9136599999619648,2.429409999982454,3.479049999965355,5.713829999906011]","[""trial_ahead_box"",""trial_sharp_right_box"",""trial_sharp_left_box""]",0,31,31,92,1,staircase.jpg,volleyballcourt.jpg,skatepark7.jpg,soccerfield2.jpg,,
Image_List_4,,,,,,,,,,,,,,,,44508,2020-11-18_00h58.05.380,lingCatScenes,2020.1.3,MacIntel,60,"[1440,900]",,,"[""trial_sharp_right_box""]",,,,,,,,,,,,copyroom2.jpg,space,3.74793,[0.6016623263888888],[-0.3171744791666667],[1],[0],[0],[1.7815100000007078],"[""trial_sharp_right_box""]",0,32,32,30,1,courthouse1.jpg,desertvegetation3.jpg,clothingstore2.jpg,bus_shelter3.jpg,,
Image_List_4,,,,,,,,,,,,,,,,44508,2020-11-18_00h58.05.380,lingCatScenes,2020.1.3,MacIntel,60,"[1440,900]",,,"[""trial_right_box""]",,,,,,,,,,,,appleorchard3.jpg,space,3.497585,[0.38536458333333334],[-0.31918836805555556],[1],[0],[0],[2.1314250000286847],"[""trial_right_box""]",0,33,33,4,1,artStudio1.jpg,baggageClaim2.jpg,auto_showroom1.jpg,alley4.jpg,,
Image_List_4,,,,,,,,,,,,,,,,44508,2020-11-18_00h58.05.380,lingCatScenes,2020.1.3,MacIntel,60,"[1440,900]",,,"[""trial_ahead_box"",""trial_slight_left_box""]",,,,,,,,,,,,drymountains5.jpg,space,8.0015,"[0.0308984375,0.012855902777777779,-0.21327256944444445]","[-0.3041015625,-0.3041015625,-0.305546875]","[1,1,1]","[0,0,0]","[0,0,0]","[2.0631000000284985,2.5133800000185147,3.4463949999772012]","[""trial_ahead_box"",""trial_slight_left_box""]",0,34,34,39,1,driveway6.jpg,eyeglassstore9.jpg,drycleaners6.jpg,cliff5.jpg,,
Image_List_4,,,,,,,,,,,,,,,,44508,2020-11-18_00h58.05.380,lingCatScenes,2020.1.3,MacIntel,60,"[1440,900]",,,"[""trial_sharp_right_box""]",,,,,,,,,,,,kindergarten_classroom5.jpg,space,5.664645,[0.6157638888888889],[-0.30095052083333335],[1],[0],[0],[4.2298750000773],"[""trial_sharp_right_box""]",0,35,35,59,1,homegarden7.jpg,library_aisle8.jpg,highway4.jpg,grocerystore3.jpg,,
Image_List_4,,,,,,,,,,,,,,,,44508,2020-11-18_00h58.05.380,lingCatScenes,2020.1.3,MacIntel,60,"[1440,900]",,,"[""trial_sharp_right_box"",""trial_sharp_left_box"",""trial_left_box"",""trial_right_box"",""trial_slight_left_box"",""trial_slight_right_box"",""trial_ahead_box""]",,,,,,,,,,,,sculpturegarden2.jpg,space,11.07445,"[0.5889105902777778,-0.6179904513888889,-0.4463888888888889,-0.40866319444444443,0.4158159722222222,-0.1886892361111111,0.20929253472222223,0.026141493055555555,0.004361979166666667]","[-0.31207899305555553,-0.31420572916666667,-0.31427951388888886,-0.29858072916666667,-0.3015581597222222,-0.30526041666666665,-0.2868012152777778,-0.30070746527777775,-0.3003559027777778]","[1,1,1,1,1,1,1,1,1]","[0,0,0,0,0,0,0,0,0]","[0,0,0,0,0,0,0,0,0]","[1.6118000000715256,2.645740000065416,3.5446399999782443,4.911154999979772,5.811405000044033,7.411290000076406,8.145060000009835,9.596134999999776,10.311624999972992]","[""trial_sharp_right_box"",""trial_sharp_left_box"",""trial_left_box"",""trial_right_box"",""trial_slight_left_box"",""trial_slight_right_box"",""trial_ahead_box""]",0,36,36,87,1,restaurantkitchen2.jpg,theater2.jpg,savanna.jpg,RVinside2.jpg,,
Image_List_4,,,,,,,,,,,,,,,,44508,2020-11-18_00h58.05.380,lingCatScenes,2020.1.3,MacIntel,60,"[1440,900]",,,[],,,,,,,,,,,,rainforest5.jpg,space,8.17557,[],[],[],[],[],[],[],0,37,37,81,1,promenadeDeck.jpg,ruralroad5.jpg,promenadeDeck2.jpg,pasture8.jpg,,
Image_List_4,,,,,,,,,,,,,,,,44508,2020-11-18_00h58.05.380,lingCatScenes,2020.1.3,MacIntel,60,"[1440,900]",,,"[""trial_ahead_box""]",,,,,,,,,,,,winebarrel3.jpg,space,10.571975,[0.008454861111111111],[-0.2832204861111111],[1],[0],[0],[4.397465000045486],"[""trial_ahead_box""]",0,38,38,97,1,warehouseoutside4.jpg,wineVineyard2.jpg,waitingroom4.jpg,warehouseoutside3.jpg,,
Image_List_4,,,,,,,,,,,,,,,,44508,2020-11-18_00h58.05.380,lingCatScenes,2020.1.3,MacIntel,60,"[1440,900]",,,"[""trial_sharp_right_box"",""trial_right_box"",""trial_sharp_left_box"",""trial_left_box"",""trial_ahead_box"",""trial_slight_left_box"",""trial_slight_right_box""]",,,,,,,,,,,,baggageClaim3.jpg,space,10.349705,"[0.6050607638888889,0.3793229166666667,-0.6012934027777778,-0.39687934027777777,0.01529513888888889,-0.20477430555555556,0.1878515625]","[-0.29296875,-0.29296875,-0.29159288194444444,-0.31225694444444446,-0.2883420138888889,-0.3130598958333333,-0.30590711805555554]","[1,1,1,1,1,1,1]","[0,0,0,0,0,0,0]","[0,0,0,0,0,0,0]","[2.1972000000532717,2.680445000063628,4.847135000047274,5.580539999995381,8.29742499999702,8.764170000096783,9.580685000051744]","[""trial_sharp_right_box"",""trial_right_box"",""trial_sharp_left_box"",""trial_left_box"",""trial_ahead_box"",""trial_slight_left_box"",""trial_slight_right_box""]",0,39,39,7,1,attic2.jpg,banquetHall4.jpg,backstage1.jpg,applestore2.jpg,,
Image_List_4,,,,,,,,,,,,,,,,44508,2020-11-18_00h58.05.380,lingCatScenes,2020.1.3,MacIntel,60,"[1440,900]",,,"[""trial_sharp_right_box"",""trial_ahead_box"",""trial_sharp_left_box""]",,,,,,,,,,,,constructionSite4.jpg,space,6.15135,"[0.6167838541666667,0.0029774305555555556,-0.5789236111111111]","[-0.3149609375,-0.29098524305555556,-0.30539496527777776]","[1,1,1]","[0,0,0]","[0,0,0]","[1.7963699999963865,3.264134999946691,5.113069999963045]","[""trial_sharp_right_box"",""trial_ahead_box"",""trial_sharp_left_box""]",0,40,40,29,1,cornfield2.jpg,deck2.jpg,cliff2.jpg,bridalboutique3.jpg,,
Image_List_4,,,,,,,,,,,,,,,,44508,2020-11-18_00h58.05.380,lingCatScenes,2020.1.3,MacIntel,60,"[1440,900]",,,"[""trial_ahead_box"",""trial_slight_left_box"",""trial_sharp_left_box"",""trial_left_box""]",,,,,,,,,,,,park8.jpg,space,8.970555,"[0.018120659722222224,-0.22751736111111112,-0.20731336805555556,-0.3708897569444444,-0.6062369791666666,-0.40348958333333335]","[-0.2872265625,-0.30269097222222224,-0.30269097222222224,-0.30269097222222224,-0.2982899305555556,-0.2976475694444444]","[1,1,1,1,1,1]","[0,0,0,0,0,0]","[0,0,0,0,0,0]","[1.7128200000151992,5.696005000034347,6.162805000087246,6.613285000086762,7.196210000081919,7.7138750000158325]","[""trial_ahead_box"",""trial_slight_left_box"",""trial_sharp_left_box"",""trial_left_box""]",0,41,41,77,1,parkinggarage2.jpg,playroom6.jpg,pasture9.jpg,mallindoor6.jpg,,
Image_List_4,,,,,,,,,,,,,,,,44508,2020-11-18_00h58.05.380,lingCatScenes,2020.1.3,MacIntel,60,"[1440,900]",,,"[""trial_ahead_box"",""trial_slight_left_box""]",,,,,,,,,,,,kindergarten_classroom6.jpg,space,5.91486,"[-0.013832465277777779,-0.20434027777777777]","[-0.30757378472222224,-0.280859375]","[1,1]","[0,0]","[0,0]","[2.7126300000818446,3.629060000064783]","[""trial_ahead_box"",""trial_slight_left_box""]",0,42,42,60,1,hometheater2.jpg,lightingstore3.jpg,homegarage.jpg,hallway.jpg,,
Image_List_4,,,,,,,,,,,,,,,,44508,2020-11-18_00h58.05.380,lingCatScenes,2020.1.3,MacIntel,60,"[1440,900]",,,"[""trial_ahead_box""]",,,,,,,,,,,,churchInside3.jpg,space,2.2305,[-0.010013020833333334],[-0.30560763888888887],[1],[0],[0],[1.4147850000299513],"[""trial_ahead_box""]",0,43,43,26,1,campusquad2.jpg,cornfield4.jpg,church4.jpg,botanicalGarden7.jpg,,
Image_List_4,,,,,,,,,,,,,,,,44508,2020-11-18_00h58.05.380,lingCatScenes,2020.1.3,MacIntel,60,"[1440,900]",,,"[""trial_ahead_box"",""trial_sharp_right_box"",""trial_sharp_left_box""]",,,,,,,,,,,,igloo4.jpg,space,8.43133,"[-0.001966145833333333,0.5955164930555555,-0.6045616319444445,-0.4104644097222222,-0.4104644097222222]","[-0.302421875,-0.2991753472222222,-0.3106640625,-0.2912326388888889,-0.2912326388888889]","[1,1,1,1,1]","[0,0,0,0,0]","[0,0,0,0,0]","[2.0968799999682233,3.8135950000723824,4.814870000001974,6.379644999979064,6.8131849999772385]","[""trial_ahead_box"",""trial_sharp_right_box"",""trial_sharp_left_box"",""trial_left_box"",""trial_left_box""]",0,44,44,58,1,highway7.jpg,lab1.jpg,hedgemaze1.jpg,grocerystore2.jpg,,
Image_List_4,,,,,,,,,,,,,,,,44508,2020-11-18_00h58.05.380,lingCatScenes,2020.1.3,MacIntel,60,"[1440,900]",,,"[""trial_ahead_box"",""trial_sharp_right_box"",""trial_sharp_left_box"",""trial_right_box""]",,,,,,,,,,,,airportTerminal3.jpg,space,5.83188,"[0.00009548611111111112,0.6169574652777777,-0.5763194444444445,0.4339279513888889,0.42200086805555553]","[-0.30528211805555555,-0.32316840277777775,-0.29063802083333334,-0.2984765625,-0.2984765625]","[1,1,1,1,1]","[0,0,0,0,0]","[0,0,0,0,0]","[1.713800000026822,3.1133649999974295,3.964094999944791,4.663685000035912,5.029910000041127]","[""trial_ahead_box"",""trial_sharp_right_box"",""trial_sharp_left_box"",""trial_right_box""]",0,45,45,1,1,airportTerminal4.jpg,apartmentBuilding1.jpg,applestore1.jpg,airportTerminal2.jpg,,
Image_List_4,,,,,,,,,,,,,,,,44508,2020-11-18_00h58.05.380,lingCatScenes,2020.1.3,MacIntel,60,"[1440,900]",,,"[""trial_sharp_right_box"",""trial_right_box"",""trial_sharp_left_box"",""trial_left_box""]",,,,,,,,,,,,liquorstore2.jpg,space,6.147415,"[0.6041840277777778,0.6389453125,0.6241145833333334,0.3981293402777778,-0.5838324652777778,-0.40237413194444444]","[-0.3282378472222222,-0.28946614583333335,-0.2908116319444444,-0.30821614583333334,-0.2991623263888889,-0.29375]","[1,1,1,1,1,1]","[0,0,0,0,0,0]","[0,0,0,0,0,0]","[1.4638900000136346,2.1142199999885634,2.4306499999947846,3.2642500000074506,4.347345000016503,4.963989999960177]","[""trial_sharp_right_box"",""trial_right_box"",""trial_sharp_left_box"",""trial_left_box""]",0,46,46,67,1,library_aisle3.jpg,park7.jpg,laundromat4.jpg,hospitalroom2.jpg,,
Image_List_4,,,,,,,,,,,,,,,,44508,2020-11-18_00h58.05.380,lingCatScenes,2020.1.3,MacIntel,60,"[1440,900]",,,"[""trial_sharp_right_box"",""trial_left_box"",""trial_sharp_left_box""]",,,,,,,,,,,,bleachers7.jpg,space,10.1205,"[0.6111588541666667,-0.38565538194444443,-0.5638628472222222,-0.59265625]","[-0.303203125,-0.3240017361111111,-0.3093359375,-0.3093359375]","[1,1,1,1]","[0,0,0,0]","[0,0,0,0]","[5.831065000034869,6.781774999923073,7.348269999958575,7.780969999963418]","[""trial_sharp_right_box"",""trial_left_box"",""trial_sharp_left_box""]",0,47,47,12,1,baggageClaim4.jpg,bedroom6.jpg,bambooforest5.jpg,backyard5.jpg,,
Image_List_4,,,,,,,,,,,,,,,,44508,2020-11-18_00h58.05.380,lingCatScenes,2020.1.3,MacIntel,60,"[1440,900]",,,"[""trial_ahead_box"",""trial_sharp_left_box"",""trial_left_box""]",,,,,,,,,,,,staircase7.jpg,space,12.81917,"[0.009522569444444445,-0.5738237847222222,-0.5775086805555556,-0.3764236111111111,-0.19161458333333334,-0.19490017361111112,-0.19490017361111112]","[-0.31103298611111113,-0.2815668402777778,-0.28213975694444443,-0.3130338541666667,-0.33731336805555556,-0.3227170138888889,-0.3227170138888889]","[1,1,1,1,1,1,1]","[0,0,0,0,0,0,0]","[0,0,0,0,0,0,0]","[2.6143900000024587,3.696929999976419,4.130435000057332,6.513494999962859,9.396970000001602,10.114204999990761,12.247435000026599]","[""trial_ahead_box"",""trial_sharp_left_box"",""trial_left_box"",""trial_slight_left_box"",""trial_slight_left_box""]",0,48,48,89,1,ruralroad7.jpg,track5.jpg,ShowJumping7.jpg,sculpturegarden3.jpg,,
Image_List_4,,,,,,,,,,,,,,,,44508,2020-11-18_00h58.05.380,lingCatScenes,2020.1.3,MacIntel,60,"[1440,900]",,,"[""trial_sharp_right_box"",""trial_right_box""]",,,,,,,,,,,,diner11.jpg,space,5.68777,"[0.5825303819444444,0.399609375]","[-0.31146701388888887,-0.32005208333333335]","[1,1]","[0,0]","[0,0]","[2.7307199999922886,4.564204999944195]","[""trial_sharp_right_box"",""trial_right_box""]",0,49,49,34,1,deck4.jpg,diningroom5.jpg,courthouse4.jpg,campusquad1.jpg,,
Image_List_4,,,,,,,,,,,,,,,,44508,2020-11-18_00h58.05.380,lingCatScenes,2020.1.3,MacIntel,60,"[1440,900]",,,"[""trial_ahead_box"",""trial_sharp_right_box"",""trial_right_box"",""trial_sharp_left_box"",""trial_left_box""]",,,,,,,,,,,,apartmentBuilding4.jpg,space,9.364975,"[0.007269965277777778,0.5902907986111111,0.4189236111111111,-0.6188671875,-0.41172743055555555]","[-0.3036197916666667,-0.30328993055555553,-0.30676649305555553,-0.3027734375,-0.3072916666666667]","[1,1,1,1,1]","[0,0,0,0,0]","[0,0,0,0,0]","[2.7980400000233203,5.414374999934807,6.481114999973215,8.1645299999509,8.614079999970272]","[""trial_ahead_box"",""trial_sharp_right_box"",""trial_right_box"",""trial_sharp_left_box"",""trial_left_box""]",0,50,50,2,1,alley1.jpg,arcade1.jpg,applestore6.jpg,airportTerminal6.jpg,,
Image_List_4,,,,,,,,,,,,,,,,44508,2020-11-18_00h58.05.380,lingCatScenes,2020.1.3,MacIntel,60,"[1440,900]",,,"[""trial_sharp_left_box"",""trial_left_box"",""trial_slight_left_box"",""trial_ahead_box"",""trial_slight_right_box"",""trial_right_box"",""trial_sharp_right_box""]",,,,,,,,,,,,soccerfield.jpg,space,13.164495,"[-0.5755902777777778,-0.38343315972222225,-0.19729166666666667,-0.005290798611111111,0.19340277777777778,0.4227126736111111,0.5886979166666667]","[-0.3066232638888889,-0.30733940972222223,-0.3054253472222222,-0.3049131944444444,-0.2919791666666667,-0.3059375,-0.29563802083333335]","[1,1,1,1,1,1,1]","[0,0,0,0,0,0,0]","[0,0,0,0,0,0,0]","[8.230400000000373,8.696429999894463,9.396909999893978,10.046709999907762,10.746774999890476,11.413654999923892,12.14719999989029]","[""trial_sharp_left_box"",""trial_left_box"",""trial_slight_left_box"",""trial_ahead_box"",""trial_slight_right_box"",""trial_right_box"",""trial_sharp_right_box""]",0,51,51,88,1,rooftop1.jpg,track.jpg,sculpturegarden4.jpg,sandbox.jpg,,
Image_List_4,,,,,,,,,,,,,,,,44508,2020-11-18_00h58.05.380,lingCatScenes,2020.1.3,MacIntel,60,"[1440,900]",,,"[""trial_sharp_right_box""]",,,,,,,,,,,,foodcourt6.jpg,space,7.88274,[0.6147395833333333],[-0.3106467013888889],[1],[0],[0],[6.69696499989368],"[""trial_sharp_right_box""]",0,52,52,44,1,firestation2.jpg,frontFoyer4.jpg,elevatorOutside1.jpg,dock2.jpg,,
Image_List_4,,,,,,,,,,,,,,,,44508,2020-11-18_00h58.05.380,lingCatScenes,2020.1.3,MacIntel,60,"[1440,900]",,,"[""trial_ahead_box"",""trial_slight_left_box"",""trial_left_box""]",,,,,,,,,,,,boardwalk4.jpg,space,5.96404,"[0.01905815972222222,-0.20104166666666667,-0.37952256944444446]","[-0.3034852430555556,-0.28989583333333335,-0.293359375]","[1,1,1]","[0,0,0]","[0,0,0]","[1.9302350000943989,2.4963400000706315,5.296540000010282]","[""trial_ahead_box"",""trial_slight_left_box"",""trial_left_box""]",0,53,53,13,1,balconyIN2.jpg,bowlingalley3.jpg,beach2.jpg,backyard6.jpg,,
Image_List_4,,,,,,,,,,,,,,,,44508,2020-11-18_00h58.05.380,lingCatScenes,2020.1.3,MacIntel,60,"[1440,900]",,,"[""trial_ahead_box"",""trial_sharp_right_box"",""trial_right_box""]",,,,,,,,,,,,foodcourt.jpg,space,23.674185,"[0.0005338541666666666,0.5933376736111111,0.41377604166666665]","[-0.30346788194444446,-0.2795138888888889,-0.29292534722222224]","[1,1,1]","[0,0,0]","[0,0,0]","[20.319340000045486,21.536165000055917,23.0700600000564]","[""trial_ahead_box"",""trial_sharp_right_box"",""trial_right_box""]",0,54,54,43,1,exerciseequipment5.jpg,forestpath10.jpg,dugout2.jpg,diningroom3.jpg,,
Image_List_4,,,,,,,,,,,,,,,,44508,2020-11-18_00h58.05.380,lingCatScenes,2020.1.3,MacIntel,60,"[1440,900]",,,"[""trial_sharp_right_box"",""trial_sharp_left_box""]",,,,,,,,,,,,fountain7.jpg,space,4.18642,"[0.5807508680555555,-0.6083940972222223]","[-0.3138151041666667,-0.3048958333333333]","[1,1]","[0,0]","[0,0]","[1.4814100000075996,2.5139450000133365]","[""trial_sharp_right_box"",""trial_sharp_left_box""]",0,55,55,47,1,frontDoor.jpg,gasstation8.jpg,firestation4.jpg,elevatorOutside2.jpg,,
Image_List_4,,,,,,,,,,,,,,,,44508,2020-11-18_00h58.05.380,lingCatScenes,2020.1.3,MacIntel,60,"[1440,900]",,,[],,,,,,,,,,,,highway.jpg,space,6.943425,[],[],[],[],[],[],[],0,56,56,52,1,gasstation7.jpg,hardwarestore1.jpg,frontFoyer6.jpg,forestpath2.jpg,,
Image_List_4,,,,,,,,,,,,,,,,44508,2020-11-18_00h58.05.380,lingCatScenes,2020.1.3,MacIntel,60,"[1440,900]",,,"[""trial_left_box"",""trial_sharp_left_box"",""trial_sharp_right_box""]",,,,,,,,,,,,driveway8.jpg,space,10.499315,"[-0.41751302083333336,-0.5739800347222223,-0.5817925347222223,0.6046267361111111]","[-0.27976996527777775,-0.2925,-0.29281684027777777,-0.29495225694444444]","[1,1,1,1]","[0,0,0,0]","[0,0,0,0]","[6.748295000055805,7.415490000043064,7.815265000099316,9.882370000006631]","[""trial_left_box"",""trial_sharp_left_box"",""trial_sharp_right_box""]",0,57,57,38,1,dining_car2.jpg,elevatorOutside4.jpg,dock1.jpg,classroom1.jpg,,
Image_List_4,,,,,,,,,,,,,,,,44508,2020-11-18_00h58.05.380,lingCatScenes,2020.1.3,MacIntel,60,"[1440,900]",,,"[""trial_slight_right_box"",""trial_right_box""]",,,,,,,,,,,,closet.jpg,space,6.69696,"[0.20055121527777778,0.3818532986111111]","[-0.2925998263888889,-0.30635850694444444]","[1,1]","[0,0]","[0,0]","[4.462034999975003,5.662479999940842]","[""trial_slight_right_box"",""trial_right_box""]",0,58,58,27,1,castle3.jpg,courtroom3.jpg,churchInside4.jpg,brewery2.jpg,,
Image_List_4,,,,,,,,,,,,,,,,44508,2020-11-18_00h58.05.380,lingCatScenes,2020.1.3,MacIntel,60,"[1440,900]",,,"[""trial_sharp_left_box"",""trial_left_box"",""trial_slight_left_box"",""trial_ahead_box"",""trial_slight_right_box"",""trial_right_box"",""trial_sharp_right_box""]",,,,,,,,,,,,basketballcourt3.jpg,space,9.949275,"[-0.6389149305555556,-0.6003515625,-0.40393663194444446,-0.19245659722222222,0.040716145833333335,0.008324652777777778,0.1840277777777778,0.3996397569444444,0.5902039930555556]","[-0.28567274305555557,-0.2906901041666667,-0.30486979166666667,-0.2906076388888889,-0.29790798611111113,-0.29834635416666666,-0.3124869791666667,-0.3081640625,-0.2973090277777778]","[1,1,1,1,1,1,1,1,1]","[0,0,0,0,0,0,0,0,0]","[0,0,0,0,0,0,0,0,0]","[5.061805000063032,5.4956249999813735,6.013210000004619,6.6630300000542775,7.162699999986216,7.578465000027791,8.129844999988563,8.662000000011176,9.362859999993816]","[""trial_sharp_left_box"",""trial_left_box"",""trial_slight_left_box"",""trial_ahead_box"",""trial_slight_right_box"",""trial_right_box"",""trial_sharp_right_box""]",0,59,59,10,1,backstage2.jpg,barbershop3.jpg,ballroom4.jpg,ATM4.jpg,,
Image_List_4,,,,,,,,,,,,,,,,44508,2020-11-18_00h58.05.380,lingCatScenes,2020.1.3,MacIntel,60,"[1440,900]",,,"[""trial_right_box"",""trial_left_box"",""trial_ahead_box"",""trial_slight_left_box"",""trial_slight_right_box""]",,,,,,,,,,,,minigolf8.jpg,space,7.245785,"[0.4252517361111111,0.4117838541666667,-0.3875737847222222,-0.008793402777777778,-0.19721354166666666,0.1922829861111111]","[-0.2931032986111111,-0.29506510416666665,-0.278125,-0.3151345486111111,-0.31115885416666667,-0.29515625]","[1,1,1,1,1,1]","[0,0,0,0,0,0]","[0,0,0,0,0,0]","[2.9630949998972937,3.5628949999809265,4.612569999997504,5.612819999922067,6.1123299999162555,6.712869999930263]","[""trial_right_box"",""trial_left_box"",""trial_ahead_box"",""trial_slight_left_box"",""trial_slight_right_box""]",0,60,60,70,1,lockerroom4.jpg,pavilion.jpg,lockerroom3.jpg,igloo.jpg,,
Image_List_4,,,,,,,,,,,,,,,,44508,2020-11-18_00h58.05.380,lingCatScenes,2020.1.3,MacIntel,60,"[1440,900]",,,"[""trial_ahead_box"",""trial_sharp_left_box"",""trial_sharp_right_box"",""trial_slight_left_box"",""trial_slight_right_box""]",,,,,,,,,,,,pavilion3.jpg,space,9.386655,"[0.008211805555555556,-0.5934982638888889,0.6141579861111112,-0.1909375,0.21518663194444446]","[-0.29907552083333333,-0.2865668402777778,-0.28366319444444443,-0.2950564236111111,-0.3076302083333333]","[1,1,1,1,1]","[0,0,0,0,0]","[0,0,0,0,0]","[2.178760000038892,3.228555000037886,4.2462300000479445,8.195550000062212,8.87909500009846]","[""trial_ahead_box"",""trial_sharp_left_box"",""trial_sharp_right_box"",""trial_slight_left_box"",""trial_slight_right_box""]",0,61,61,78,1,parkinglot3.jpg,poolhall1.jpg,pier5.jpg,observatory1.jpg,,
Image_List_4,,,,,,,,,,,,,,,,44508,2020-11-18_00h58.05.380,lingCatScenes,2020.1.3,MacIntel,60,"[1440,900]",,,"[""trial_sharp_left_box"",""trial_left_box"",""trial_slight_left_box"",""trial_ahead_box"",""trial_slight_right_box"",""trial_right_box"",""trial_sharp_right_box""]",,,,,,,,,,,,cave4.jpg,space,7.48467,"[-0.5961588541666667,-0.40682725694444444,-0.20633246527777777,0.006427951388888889,0.22109809027777777,0.39104600694444447,0.6088671875]","[-0.2859157986111111,-0.30601996527777775,-0.3071788194444444,-0.3058420138888889,-0.31897135416666667,-0.30258246527777777,-0.2975564236111111]","[1,1,1,1,1,1,1]","[0,0,0,0,0,0,0]","[0,0,0,0,0,0,0]","[2.9948650000151247,3.8285750000504777,4.42808999994304,5.227364999940619,5.894734999979846,6.494695000001229,7.11109000002034]","[""trial_sharp_left_box"",""trial_left_box"",""trial_slight_left_box"",""trial_ahead_box"",""trial_slight_right_box"",""trial_right_box"",""trial_sharp_right_box""]",0,62,62,20,1,boardwalk6.jpg,cave.jpg,campsite3.jpg,basketballcourt7.jpg,,
Image_List_4,,,,,,,,,,,,,,,,44508,2020-11-18_00h58.05.380,lingCatScenes,2020.1.3,MacIntel,60,"[1440,900]",,,"[""trial_slight_right_box"",""trial_ahead_box""]",,,,,,,,,,,,doctor1.jpg,space,5.84985,"[0.19677083333333334,-0.018298611111111113,-0.013971354166666667]","[-0.3008984375,-0.3403819444444444,-0.3126953125]","[1,1,1]","[0,0,0]","[0,0,0]","[3.5626049999846146,5.129694999894127,5.496014999924228]","[""trial_slight_right_box"",""trial_ahead_box""]",0,63,63,36,1,diner14.jpg,dormroom9.jpg,dining_car3.jpg,checkoutcounter9.jpg,,
Image_List_4,,,,,,,,,,,,,,,,44508,2020-11-18_00h58.05.380,lingCatScenes,2020.1.3,MacIntel,60,"[1440,900]",,,"[""trial_sharp_left_box"",""trial_left_box"",""trial_slight_left_box"",""trial_ahead_box"",""trial_slight_right_box"",""trial_right_box"",""trial_sharp_right_box""]",,,,,,,,,,,,campusquad4.jpg,space,5.815235,"[-0.5796137152777778,-0.40953125,-0.21312934027777777,-0.0003559027777777778,0.2018793402777778,0.39200520833333335,0.5921961805555556]","[-0.30256510416666665,-0.30450520833333333,-0.3008810763888889,-0.2986024305555556,-0.28237847222222223,-0.30355902777777777,-0.29701822916666665]","[1,1,1,1,1,1,1]","[0,0,0,0,0,0,0]","[0,0,0,0,0,0,0]","[1.694385000038892,2.1956650000065565,2.7117700000526384,3.4951550000114366,4.245549999992363,4.878445000038482,5.477659999975003]","[""trial_sharp_left_box"",""trial_left_box"",""trial_slight_left_box"",""trial_ahead_box"",""trial_slight_right_box"",""trial_right_box"",""trial_sharp_right_box""]",0,64,64,16,1,basement.jpg,cafeteria6.jpg,breakroom2.jpg,barbershop2.jpg,,
Image_List_4,,,,,,,,,,,,,,,,44508,2020-11-18_00h58.05.380,lingCatScenes,2020.1.3,MacIntel,60,"[1440,900]",,,"[""trial_slight_right_box""]",,,,,,,,,,,,checkoutcounter2.jpg,space,6.68163,[0.21227430555555554],[-0.28999565972222224],[1],[0],[0],[4.6974600000539795],"[""trial_slight_right_box""]",0,65,65,25,1,campsite7.jpg,conference3.jpg,church3.jpg,botanicalGarden4.jpg,,
Image_List_4,,,,,,,,,,,,,,,,44508,2020-11-18_00h58.05.380,lingCatScenes,2020.1.3,MacIntel,60,"[1440,900]",,,"[""trial_sharp_left_box"",""trial_left_box"",""trial_ahead_box"",""trial_slight_right_box"",""trial_slight_left_box"",""trial_right_box"",""trial_sharp_right_box""]",,,,,,,,,,,,sandDunes_desert_outdoor8.jpg,space,6.715955,"[-0.5995789930555555,-0.38453125,-0.16995659722222223,-0.012482638888888889,0.2602907986111111,0.21620225694444445,-0.19855034722222223,0.40466145833333333,0.613671875]","[-0.2994661458333333,-0.30863715277777776,-0.31836805555555553,-0.30634114583333333,-0.2950520833333333,-0.30312065972222224,-0.30094184027777776,-0.29778211805555554,-0.31126302083333335]","[1,1,1,1,1,1,1,1,1]","[0,0,0,0,0,0,0,0,0]","[0,0,0,0,0,0,0,0,0]","[1.296585000003688,1.813384999986738,2.2464250000193715,2.6477550000417978,3.129395000054501,3.612764999968931,4.313770000007935,4.9626599999610335,5.745995000004768]","[""trial_sharp_left_box"",""trial_left_box"",""trial_ahead_box"",""trial_slight_right_box"",""trial_slight_left_box"",""trial_right_box"",""trial_sharp_right_box""]",0,66,66,86,1,restaurant14.jpg,stripmall.jpg,ruralroad3.jpg,rooftop4.jpg,,
Image_List_4,,,,,,,,,,,,,,,,44508,2020-11-18_00h58.05.380,lingCatScenes,2020.1.3,MacIntel,60,"[1440,900]",,,"[""trial_slight_right_box"",""trial_right_box"",""trial_ahead_box""]",,,,,,,,,,,,clothingstore5.jpg,space,10.62642,"[0.2191796875,0.3680685763888889,0.39385850694444446,-0.04641927083333333,-0.020269097222222223]","[-0.3103385416666667,-0.3103385416666667,-0.3103385416666667,-0.2986111111111111,-0.2986111111111111]","[1,1,1,1,1]","[0,0,0,0,0]","[0,0,0,0,0]","[7.260065000038594,7.693815000005998,8.327620000112802,9.143425000016578,9.52752500004135]","[""trial_slight_right_box"",""trial_right_box"",""trial_ahead_box""]",0,67,67,28,1,churchInside1.jpg,dancestudio5.jpg,citystreet10.jpg,bridalboutique2.jpg,,
Image_List_4,,,,,,,,,,,,,,,,44508,2020-11-18_00h58.05.380,lingCatScenes,2020.1.3,MacIntel,60,"[1440,900]",,,"[""trial_slight_right_box"",""trial_left_box"",""trial_ahead_box""]",,,,,,,,,,,,lab3.jpg,space,5.30903,"[0.20645833333333333,-0.37266493055555555,-0.40139756944444444,-0.0012109375]","[-0.28528211805555553,-0.30147569444444444,-0.30328993055555553,-0.32394097222222223]","[1,1,1,1]","[0,0,0,0]","[0,0,0,0]","[1.644425000064075,3.0618549999780953,3.5942100000102073,4.627779999980703]","[""trial_slight_right_box"",""trial_left_box"",""trial_ahead_box""]",0,68,68,62,1,hotellobby2.jpg,minigolf.jpg,horsebarn8.jpg,hayfield7.jpg,,
Image_List_4,,,,,,,,,,,,,,,,44508,2020-11-18_00h58.05.380,lingCatScenes,2020.1.3,MacIntel,60,"[1440,900]",,,"[""trial_ahead_box""]",,,,,,,,,,,,hallway2.jpg,space,2.53699,[-0.005642361111111111],[-0.3106510416666667],[1],[0],[0],[1.997830000007525],"[""trial_ahead_box""]",0,69,69,50,1,frontLawn4.jpg,grocerystore6.jpg,forestpath6.jpg,fireplace4.jpg,,
Image_List_4,,,,,,,,,,,,,,,,44508,2020-11-18_00h58.05.380,lingCatScenes,2020.1.3,MacIntel,60,"[1440,900]",,,"[""trial_sharp_right_box""]",,,,,,,,,,,,liquorstore.jpg,space,4.319835,[0.5998784722222222],[-0.30787760416666665],[1],[0],[0],[1.9833249999210238],"[""trial_sharp_right_box""]",0,70,70,66,1,library_aisle10.jpg,office3.jpg,laundromat3.jpg,horsebarn9.jpg,,
Image_List_4,,,,,,,,,,,,,,,,44508,2020-11-18_00h58.05.380,lingCatScenes,2020.1.3,MacIntel,60,"[1440,900]",,,"[""trial_ahead_box""]",,,,,,,,,,,,cemetery3.jpg,space,3.336615,[0.0027213541666666666],[-0.2837717013888889],[1],[0],[0],[2.1974799999734387],"[""trial_ahead_box""]",0,71,71,23,1,bus_shelter.jpg,church8.jpg,carmechanic4.jpeg,bleachers6.jpg,,
Image_List_4,,,,,,,,,,,,,,,,44508,2020-11-18_00h58.05.380,lingCatScenes,2020.1.3,MacIntel,60,"[1440,900]",,,"[""trial_slight_right_box"",""trial_right_box"",""trial_ahead_box""]",,,,,,,,,,,,lockerroom2.jpg,space,8.766025,"[0.21148871527777777,0.3758463541666667,-0.02245659722222222]","[-0.2942751736111111,-0.30106770833333335,-0.31204427083333336]","[1,1,1]","[0,0,0]","[0,0,0]","[1.6309099999489263,2.3475300000282004,8.331404999946244]","[""trial_slight_right_box"",""trial_right_box"",""trial_ahead_box""]",0,72,72,68,1,liquorstore7.jpg,parkinglot.jpg,lightingstore4.jpg,hospitalroom3.jpg,,
Image_List_4,,,,,,,,,,,,,,,,44508,2020-11-18_00h58.05.380,lingCatScenes,2020.1.3,MacIntel,60,"[1440,900]",,,"[""trial_slight_right_box""]",,,,,,,,,,,,restaurant8.jpg,space,3.41926,[0.21503472222222222],[-0.30779947916666667],[1],[0],[0],[1.3461699999170378],"[""trial_slight_right_box""]",0,73,73,83,1,readingroom1.jpg,sculpturegarden1.jpg,promenadeDeck6.jpg,readingroom2.jpg,,
Image_List_4,,,,,,,,,,,,,,,,44508,2020-11-18_00h58.05.380,lingCatScenes,2020.1.3,MacIntel,60,"[1440,900]",,,"[""trial_sharp_left_box"",""trial_left_box"",""trial_slight_left_box"",""trial_ahead_box"",""trial_slight_right_box"",""trial_right_box"",""trial_sharp_right_box""]",,,,,,,,,,,,windmill1.jpg,space,5.180655,"[-0.6002430555555556,-0.3805208333333333,-0.20477864583333333,-0.008893229166666667,0.1930859375,0.39926215277777777,0.5957986111111111]","[-0.2971137152777778,-0.3065017361111111,-0.3052126736111111,-0.294140625,-0.2970703125,-0.3001215277777778,-0.2947092013888889]","[1,1,1,1,1,1,1]","[0,0,0,0,0,0,0]","[0,0,0,0,0,0,0]","[1.4788399999961257,1.830034999991767,2.4455549999838695,3.1626199999591336,3.662554999929853,4.212254999903962,4.828815000015311]","[""trial_sharp_left_box"",""trial_left_box"",""trial_slight_left_box"",""trial_ahead_box"",""trial_slight_right_box"",""trial_right_box"",""trial_sharp_right_box""]",0,74,74,96,1,warehouse4.jpg,warehouseoutside1.jpg,tenniscourt3.jpg,warehouse1.jpg,,
Image_List_4,,,,,,,,,,,,,,,,44508,2020-11-18_00h58.05.380,lingCatScenes,2020.1.3,MacIntel,60,"[1440,900]",,,"[""trial_ahead_box"",""trial_right_box"",""trial_sharp_right_box"",""trial_left_box""]",,,,,,,,,,,,hut1.jpg,space,5.627765,"[0.0062977430555555556,0.39099826388888886,0.5921831597222222,-0.40099392361111114]","[-0.31338975694444443,-0.3125954861111111,-0.31591145833333334,-0.30595052083333335]","[1,1,1,1]","[0,0,0,0]","[0,0,0,0]","[1.3120450000278652,2.9620649999706075,3.6124699999345466,4.945240000030026]","[""trial_ahead_box"",""trial_right_box"",""trial_sharp_right_box"",""trial_left_box""]",0,75,75,56,1,grocerystore5.jpg,hut3.jpg,golfcourse10.jpg,gasstation2.jpg,,
Image_List_4,,,,,,,,,,,,,,,,44508,2020-11-18_00h58.05.380,lingCatScenes,2020.1.3,MacIntel,60,"[1440,900]",,,"[""trial_left_box"",""trial_slight_left_box""]",,,,,,,,,,,,poolhall5.jpg,space,6.087725,"[-0.39457465277777776,-0.1987282986111111]","[-0.3029557291666667,-0.3081293402777778]","[1,1]","[0,0]","[0,0]","[3.77773500001058,5.2779800000134856]","[""trial_left_box"",""trial_slight_left_box""]",0,76,76,80,1,pavilion2.jpg,racecarcourse2.jpg,porch.jpg,parkinggarage4.jpg,,
Image_List_4,,,,,,,,,,,,,,,,44508,2020-11-18_00h58.05.380,lingCatScenes,2020.1.3,MacIntel,60,"[1440,900]",,,"[""trial_slight_right_box"",""trial_ahead_box"",""trial_left_box""]",,,,,,,,,,,,pier2.jpg,space,10.97868,"[0.1982986111111111,0.39905815972222225,0.3951822916666667,0.012886284722222223,-0.3861935763888889]","[-0.30378038194444446,-0.29006944444444444,-0.29006944444444444,-0.28227430555555555,-0.28871961805555557]","[1,1,1,1,1]","[0,0,0,0,0]","[0,0,0,0,0]","[2.676954999915324,4.960929999942891,5.710814999998547,7.943119999952614,9.46014500001911]","[""trial_slight_right_box"",""trial_right_box"",""trial_right_box"",""trial_ahead_box"",""trial_left_box""]",0,77,77,79,1,pasture.jpg,poolhall2.jpeg,playground9.jpg,observatory2.jpg,,
Image_List_4,,,,,,,,,,,,,,,,44508,2020-11-18_00h58.05.380,lingCatScenes,2020.1.3,MacIntel,60,"[1440,900]",,,"[""trial_slight_right_box"",""trial_ahead_box""]",,,,,,,,,,,,forestpath4.jpg,space,8.26618,"[0.19364149305555556,0.00234375]","[-0.29686631944444447,-0.299375]","[1,1]","[0,0]","[0,0]","[4.580324999988079,6.313164999941364]","[""trial_slight_right_box"",""trial_ahead_box""]",0,78,78,45,1,fittingroom2.jpg,frontFoyer7.jpg,factory1.jpg,dock4.jpg,,
Image_List_4,,,,,,,,,,,,,,,,44508,2020-11-18_00h58.05.380,lingCatScenes,2020.1.3,MacIntel,60,"[1440,900]",,,"[""trial_slight_right_box""]",,,,,,,,,,,,dining_car6.jpg,space,3.431645,[0.18844184027777777],[-0.29097222222222224],[1],[0],[0],[1.9959299999754876],"[""trial_slight_right_box""]",0,79,79,35,1,deck5.jpg,dock3.jpg,cubicle7.jpg,carmechanic2.jpg,,
Image_List_4,,,,,,,,,,,,,,,,44508,2020-11-18_00h58.05.380,lingCatScenes,2020.1.3,MacIntel,60,"[1440,900]",,,"[""trial_right_box"",""trial_slight_right_box"",""trial_ahead_box""]",,,,,,,,,,,,nursery4.jpg,space,8.74368,"[0.22529513888888889,0.2257595486111111,0.39124565972222225,0.2237109375,-0.21611979166666667,-0.22243055555555555,-0.03219618055555556,-0.012769097222222222]","[-0.2993880208333333,-0.2976345486111111,-0.2976345486111111,-0.3032682291666667,-0.29746527777777776,-0.2946267361111111,-0.2946267361111111,-0.2946267361111111]","[1,1,1,1,1,1,1,1]","[0,0,0,0,0,0,0,0]","[0,0,0,0,0,0,0,0]","[1.7636250000214204,2.8457300000591204,3.3462000000290573,3.8465050000231713,5.81295500008855,6.712715000030585,7.146285000024363,7.529260000097565]","[""trial_right_box"",""trial_slight_right_box"",""trial_slight_left_box"",""trial_slight_left_box"",""trial_ahead_box""]",0,80,80,73,1,musicStore3.jpg,photographer_studio2.jpg,nursery.jpg,library_aisle9.jpg,,
Image_List_4,,,,,,,,,,,,,,,,44508,2020-11-18_00h58.05.380,lingCatScenes,2020.1.3,MacIntel,60,"[1440,900]",,,"[""trial_ahead_box"",""trial_sharp_right_box"",""trial_sharp_left_box""]",,,,,,,,,,,,weightroom4.jpg,space,9.83725,"[-0.012769097222222222,0.5944097222222222,-0.5795616319444444]","[-0.2946267361111111,-0.30510850694444447,-0.2875]","[1,1,1]","[0,0,0]","[0,0,0]","[3.3323399999644607,7.8485149999614805,8.898165000020526]","[""trial_ahead_box"",""trial_sharp_right_box"",""trial_sharp_left_box""]",0,81,81,95,1,waitingroom2.jpg,warehouse2.jpg,stripmall6.jpg,tvstudio3.jpg,,
Image_List_4,,,,,,,,,,,,,,,,44508,2020-11-18_00h58.05.380,lingCatScenes,2020.1.3,MacIntel,60,"[1440,900]",,,"[""trial_left_box"",""trial_ahead_box""]",,,,,,,,,,,,homegarage4.jpg,space,7.75089,"[-0.36914930555555553,-0.38186631944444444,-0.017860243055555555]","[-0.3105338541666667,-0.3105338541666667,-0.2890668402777778]","[1,1,1]","[0,0,0]","[0,0,0]","[1.7305499999783933,2.0796799999661744,7.346275000018068]","[""trial_left_box"",""trial_ahead_box""]",0,82,82,54,1,greenhouse2.jpg,horsebarn11.jpg,gazebo2.jpg,frontFoyer.jpg,,
Image_List_4,,,,,,,,,,,,,,,,44508,2020-11-18_00h58.05.380,lingCatScenes,2020.1.3,MacIntel,60,"[1440,900]",,,"[""trial_slight_left_box"",""trial_left_box"",""trial_ahead_box"",""trial_sharp_left_box""]",,,,,,,,,,,,castle4.jpg,space,7.500535,"[-0.20797743055555556,-0.3958333333333333,0.003125,-0.6015885416666666]","[-0.2829079861111111,-0.2981987847222222,-0.3146310763888889,-0.3032465277777778]","[1,1,1,1]","[0,0,0,0]","[0,0,0,0]","[1.5312100000446662,3.1485399999655783,5.730544999940321,6.598239999962971]","[""trial_slight_left_box"",""trial_left_box"",""trial_ahead_box"",""trial_sharp_left_box""]",0,83,83,19,1,boardwalk2.jpg,casino3.jpg,cafeteria1.jpg,basketballcourt.jpg,,
Image_List_4,,,,,,,,,,,,,,,,44508,2020-11-18_00h58.05.380,lingCatScenes,2020.1.3,MacIntel,60,"[1440,900]",,,"[""trial_ahead_box"",""trial_slight_right_box"",""trial_slight_left_box"",""trial_right_box""]",,,,,,,,,,,,operatingroom1.jpg,space,11.439415,"[0.01756076388888889,0.1901171875,-0.20557291666666666,0.38104600694444446]","[-0.2943967013888889,-0.2975390625,-0.3155295138888889,-0.3039279513888889]","[1,1,1,1]","[0,0,0,0]","[0,0,0,0]","[6.228269999963231,8.645374999963678,9.911994999973103,10.778840000042692]","[""trial_ahead_box"",""trial_slight_right_box"",""trial_slight_left_box"",""trial_right_box""]",0,84,84,74,1,newsstand2.jpg,playground10.jpg,observatory4.jpeg,lightingstore2.jpg,,
Image_List_4,,,,,,,,,,,,,,,,44508,2020-11-18_00h58.05.380,lingCatScenes,2020.1.3,MacIntel,60,"[1440,900]",,,"[""trial_sharp_left_box""]",,,,,,,,,,,,airplanecabin5.jpg,space,4.073105,"[-0.37746961805555557,-0.6084288194444445,-0.41180989583333333]","[-0.3071701388888889,-0.3141015625,-0.3056770833333333]","[1,1,1]","[0,0,0]","[0,0,0]","[1.4080250000115484,1.9419550000457093,2.692060000030324]","[""trial_left_box"",""trial_sharp_left_box"",""trial_left_box""]",0,85,85,0,1,airplanecabin1.jpg,alley2.jpg,appleorchard4.jpg,airplanecabin3.jpg,,
Image_List_4,,,,,,,,,,,,,,,,44508,2020-11-18_00h58.05.380,lingCatScenes,2020.1.3,MacIntel,60,"[1440,900]",,,"[""trial_slight_left_box"",""trial_left_box""]",,,,,,,,,,,,appleorchard2.jpg,space,5.292065,"[-0.18702690972222222,-0.3934722222222222]","[-0.28247395833333333,-0.29453993055555555]","[1,1]","[0,0]","[0,0]","[1.7280449999962002,3.5774299999466166]","[""trial_slight_left_box"",""trial_left_box""]",0,86,86,3,1,apartmentBuilding2.jpg,attic1.jpg,aquarium1.jpg,alley3.jpg,,
Image_List_4,,,,,,,,,,,,,,,,44508,2020-11-18_00h58.05.380,lingCatScenes,2020.1.3,MacIntel,60,"[1440,900]",,,"[""trial_slight_right_box"",""trial_ahead_box""]",,,,,,,,,,,,diner10.jpg,space,3.896915,"[0.19366753472222223,-0.012703993055555555]","[-0.28671875,-0.2957204861111111]","[1,1]","[0,0]","[0,0]","[1.7962500000139698,3.6129249999066815]","[""trial_slight_right_box"",""trial_ahead_box""]",0,87,87,33,1,deck1.jpg,diningroom1.jpg,courthouse2.jpg,cabinIndoors5.jpg,,
Image_List_4,,,,,,,,,,,,,,,,44508,2020-11-18_00h58.05.380,lingCatScenes,2020.1.3,MacIntel,60,"[1440,900]",,,"[""trial_slight_left_box""]",,,,,,,,,,,,labClass7.jpg,space,7.32818,"[-0.20784288194444445,0.03105902777777778,0.03105902777777778]","[-0.28260850694444445,-0.2857855902777778,-0.2857855902777778]","[1,1,1]","[0,0,0]","[0,0,0]","[3.5952500000130385,5.31175999995321,5.961840000003576]","[""trial_slight_left_box""]",0,88,88,65,1,igloo5.jpg,newsstand7.jpg,laundromat2.jpeg,homeoffice8.jpg,,
Image_List_4,,,,,,,,,,,,,,,,44508,2020-11-18_00h58.05.380,lingCatScenes,2020.1.3,MacIntel,60,"[1440,900]",,,"[""trial_right_box"",""trial_sharp_right_box"",""trial_sharp_left_box""]",,,,,,,,,,,,cabinIndoors.jpg,space,9.7326,"[0.3921701388888889,0.6018402777777778,-0.574609375,-0.5900607638888888]","[-0.3145355902777778,-0.3147829861111111,-0.31084635416666667,-0.30484375]","[1,1,1,1]","[0,0,0,0]","[0,0,0,0]","[6.3985850000754,7.045010000001639,8.112070000031963,8.694430000032298]","[""trial_right_box"",""trial_sharp_right_box"",""trial_sharp_left_box""]",0,89,89,15,1,bambooforest4.jpg,cafeteria5.jpg,bleachers8.jpg,bar8.jpg,,
Image_List_4,,,,,,,,,,,,,,,,44508,2020-11-18_00h58.05.380,lingCatScenes,2020.1.3,MacIntel,60,"[1440,900]",,,"[""trial_ahead_box""]",,,,,,,,,,,,fabricstore1.jpg,space,3.24441,[0.0031163194444444446],[-0.2872265625],[1],[0],[0],[2.778814999968745],"[""trial_ahead_box""]",0,90,90,41,1,dugout4.jpg,farm3.jpg,drymountains3.jpg,dentist2.jpg,,
Image_List_4,,,,,,,,,,,,,,,,44508,2020-11-18_00h58.05.380,lingCatScenes,2020.1.3,MacIntel,60,"[1440,900]",,,"[""trial_left_box"",""trial_ahead_box"",""trial_sharp_right_box"",""trial_sharp_left_box"",""trial_slight_left_box""]",,,,,,,,,,,,baggageClaim1.jpg,space,10.29637,"[-0.3997526041666667,-0.007973090277777779,0.573203125,0.589765625,-0.5952647569444445,-0.20598090277777778]","[-0.3065625,-0.3162977430555556,-0.2883420138888889,-0.28969618055555557,-0.28866319444444444,-0.30578993055555553]","[1,1,1,1,1,1]","[0,0,0,0,0,0]","[0,0,0,0,0,0]","[1.7628500000573695,3.4112450000829995,4.711615000036545,5.260755000053905,6.695100000011735,7.6621450000675395]","[""trial_left_box"",""trial_ahead_box"",""trial_sharp_right_box"",""trial_sharp_left_box"",""trial_slight_left_box""]",0,91,91,6,1,ATM1.jpg,banquetHall2.jpg,auto_showroom5.jpg,apartmentBuilding3.jpg,,
Image_List_4,,,,,,,,,,,,,,,,44508,2020-11-18_00h58.05.380,lingCatScenes,2020.1.3,MacIntel,60,"[1440,900]",,,"[""trial_left_box"",""trial_sharp_left_box"",""trial_slight_right_box"",""trial_right_box"",""trial_sharp_right_box""]",,,,,,,,,,,,museum3.jpg,space,10.013015,"[-0.007721354166666666,-0.007721354166666666,-0.38416232638888886,-0.5707074652777778,-0.5859548611111111,0.20703993055555556,0.3984548611111111,0.6069661458333333]","[-0.305234375,-0.305234375,-0.3045659722222222,-0.2952907986111111,-0.2980078125,-0.29757378472222223,-0.3052170138888889,-0.30328125]","[1,1,1,1,1,1,1,1]","[0,0,0,0,0,0,0,0]","[0,0,0,0,0,0,0,0]","[4.095214999979362,4.928964999970049,5.644665000028908,6.278425000025891,6.877734999987297,7.845044999965467,8.37809000001289,8.979000000050291]","[""trial_ahead_box"",""trial_ahead_box"",""trial_left_box"",""trial_sharp_left_box"",""trial_slight_right_box"",""trial_right_box"",""trial_sharp_right_box""]",0,92,92,71,1,metroInside2.jpg,pavilion5.jpg,metroInside3.jpg,jewelrystore.jpg,,
Image_List_4,,,,,,,,,,,,,,,,44508,2020-11-18_00h58.05.380,lingCatScenes,2020.1.3,MacIntel,60,"[1440,900]",,,"[""trial_sharp_right_box"",""trial_right_box"",""trial_slight_right_box"",""trial_ahead_box"",""trial_slight_left_box"",""trial_left_box"",""trial_sharp_left_box""]",,,,,,,,,,,,warehouseoutside2.jpg,space,6.831725,"[0.6069661458333333,0.41337239583333335,0.18237413194444443,-0.005941840277777778,-0.19247395833333333,-0.3904123263888889,-0.5765364583333333]","[-0.30328125,-0.30539496527777776,-0.29272569444444446,-0.2924435763888889,-0.2945095486111111,-0.2942751736111111,-0.2876692708333333]","[1,1,1,1,1,1,1]","[0,0,0,0,0,0,0]","[0,0,0,0,0,0,0]","[1.812804999994114,2.4957899999571964,3.2289749999763444,3.8294499999610707,4.512420000042766,5.179175000055693,5.929525000043213]","[""trial_sharp_right_box"",""trial_right_box"",""trial_slight_right_box"",""trial_ahead_box"",""trial_slight_left_box"",""trial_left_box"",""trial_sharp_left_box""]",0,93,93,93,1,tollbooth8.jpg,volleyballcourt4.jpg,staircase4.jpg,tenniscourt.jpg,,
Image_List_4,,,,,,,,,,,,,,,,44508,2020-11-18_00h58.05.380,lingCatScenes,2020.1.3,MacIntel,60,"[1440,900]",,,"[""trial_ahead_box"",""trial_slight_right_box"",""trial_slight_left_box""]",,,,,,,,,,,,courtroom2.jpg,space,4.83124,"[-0.0033897569444444444,0.2061675347222222,-0.2100390625]","[-0.3100086805555556,-0.3034852430555556,-0.3002387152777778]","[1,1,1]","[0,0,0]","[0,0,0]","[1.6793899999465793,3.564350000000559,4.3969550000038]","[""trial_ahead_box"",""trial_slight_right_box"",""trial_slight_left_box""]",0,94,94,31,1,cubicle4.jpg,desertvegetation6.jpg,conference4.jpg,cabin3.jpg,,
Image_List_4,,,,,,,,,,,,,,,,44508,2020-11-18_00h58.05.380,lingCatScenes,2020.1.3,MacIntel,60,"[1440,900]",,,"[""trial_right_box"",""trial_sharp_right_box"",""trial_left_box"",""trial_sharp_left_box""]",,,,,,,,,,,,fountain4.jpg,space,5.882195,"[0.4171961805555556,0.6507725694444444,0.5962326388888889,-0.3973480902777778,-0.5871006944444445]","[-0.29094618055555554,-0.3097873263888889,-0.3097873263888889,-0.2784765625,-0.29294270833333336]","[1,1,1,1,1]","[0,0,0,0,0]","[0,0,0,0,0]","[2.928940000012517,3.428290000068955,3.811699999962002,4.611995000042953,5.2784649999812245]","[""trial_right_box"",""trial_sharp_right_box"",""trial_left_box"",""trial_sharp_left_box""]",0,95,95,46,1,flowershop.jpg,frontLawn5.jpg,farmersmarket4.jpg,dormroom6.jpg,,
Image_List_4,,,,,,,,,,,,,,,,44508,2020-11-18_00h58.05.380,lingCatScenes,2020.1.3,MacIntel,60,"[1440,900]",,,"[""trial_sharp_left_box"",""trial_left_box"",""trial_right_box"",""trial_sharp_right_box"",""trial_ahead_box"",""trial_slight_left_box"",""trial_slight_right_box""]",,,,,,,,,,,,hayfield4.jpg,space,9.330335,"[-0.5886328125,-0.3421354166666667,-0.40673611111111113,0.3763454861111111,0.5923133680555556,-0.004526909722222222,-0.20289930555555555,0.18358506944444444]","[-0.3206423611111111,-0.28436197916666667,-0.29213975694444444,-0.30030815972222225,-0.3108810763888889,-0.3033203125,-0.2998090277777778,-0.31127604166666667]","[1,1,1,1,1,1,1,1]","[0,0,0,0,0,0,0,0]","[0,0,0,0,0,0,0,0]","[2.561254999949597,3.145354999927804,3.7778000000398606,5.311534999986179,5.878030000021681,7.32785000000149,7.995454999967478,8.645535000017844]","[""trial_sharp_left_box"",""trial_left_box"",""trial_right_box"",""trial_sharp_right_box"",""trial_ahead_box"",""trial_slight_left_box"",""trial_slight_right_box""]",0,96,96,51,1,gasstation6.jpg,hallway5.jpg,frontDoor5.jpg,firestation5.jpg,,
Image_List_4,,,,,,,,,,,,,,,,44508,2020-11-18_00h58.05.380,lingCatScenes,2020.1.3,MacIntel,60,"[1440,900]",,,"[""trial_ahead_box""]",,,,,,,,,,,,cave5.jpg,space,9.848765,[-0.0028515625],[-0.2900520833333333],[1],[0],[0],[7.412819999968633],"[""trial_ahead_box""]",0,97,97,21,1,botanicalGarden6.jpg,cemetery6.jpg,campusquad3.jpg,beach1.jpeg,,
Image_List_4,,,,,,,,,,,,,,,,44508,2020-11-18_00h58.05.380,lingCatScenes,2020.1.3,MacIntel,60,"[1440,900]",,,"[""trial_sharp_left_box"",""trial_left_box"",""trial_slight_left_box"",""trial_ahead_box"",""trial_slight_right_box"",""trial_right_box"",""trial_sharp_right_box""]",,,,,,,,,,,,golfcourse7.jpg,space,7.26408,"[-0.6036935763888889,-0.41129774305555555,-0.15296006944444446,-0.19259114583333334,0.011584201388888889,0.2088671875,0.4025998263888889,0.5875520833333333]","[-0.29930989583333334,-0.29930989583333334,-0.3148220486111111,-0.2990581597222222,-0.3220269097222222,-0.30888020833333335,-0.3100086805555556,-0.30399305555555556]","[1,1,1,1,1,1,1,1]","[0,0,0,0,0,0,0,0]","[0,0,0,0,0,0,0,0]","[2.4296449999092147,2.896409999928437,3.446354999905452,3.896394999930635,4.41302499989979,5.212764999945648,5.846969999955036,6.59746499999892]","[""trial_sharp_left_box"",""trial_left_box"",""trial_slight_left_box"",""trial_ahead_box"",""trial_slight_right_box"",""trial_right_box"",""trial_sharp_right_box""]",0,98,98,48,1,frontDoor2.jpg,golfcourse6.jpg,fittingroom5.jpg,fabricstore2.jpg,,
Image_List_4,,,,,,,,,,,,,,,,44508,2020-11-18_00h58.05.380,lingCatScenes,2020.1.3,MacIntel,60,"[1440,900]",,,"[""trial_sharp_left_box"",""trial_left_box"",""trial_slight_left_box"",""trial_ahead_box"",""trial_slight_right_box"",""trial_right_box"",""trial_sharp_right_box""]",,,,,,,,,,,,sandDunes_desert_outdoor.jpg,space,6.722165,"[-0.5779774305555555,-0.3717404513888889,-0.428984375,-0.4209331597222222,-0.2121831597222222,-0.02099392361111111,0.21011284722222223,0.39415364583333334,0.6005989583333333]","[-0.31297743055555555,-0.2960980902777778,-0.28509548611111113,-0.2860980902777778,-0.3048090277777778,-0.2899001736111111,-0.29562065972222223,-0.2998958333333333,-0.2968793402777778]","[1,1,1,1,1,1,1,1,1]","[0,0,0,0,0,0,0,0,0]","[0,0,0,0,0,0,0,0,0]","[1.5954649999039248,2.0621249999385327,2.6618749999906868,3.1618299999972805,3.8290849999757484,4.395320000010543,4.945229999953881,5.579595000017434,6.178809999953955]","[""trial_sharp_left_box"",""trial_left_box"",""trial_slight_left_box"",""trial_ahead_box"",""trial_slight_right_box"",""trial_right_box"",""trial_sharp_right_box""]",0,99,99,84,1,readingroom5.jpg,sidewalk2.jpg,restaurant13.jpg,rooftop2.jpg,,
Image_List_4,,,,,,,,,,,,,,,,44508,2020-11-18_00h58.05.380,lingCatScenes,2020.1.3,MacIntel,60,,,,,,,,,,,,,,,,,,,,,,,,,,,,,,,,,,,space,26.63464
