image_list,key_resp_intructions.keys,key_resp_intructions.rt,key_resp_intructions_3.keys,key_resp_intructions_3.rt,PracticeComplete_2.keys,PracticeComplete_2.rt,PracticeComplete_3.keys,PracticeComplete_3.rt,demo_trials.thisRepN,demo_trials.thisTrialN,demo_trials.thisN,demo_trials.thisIndex,demo_trials.ran,demo_images,path_images,participant,date,expName,psychopyVersion,OS,frameRate,windowSize,practice_complete.keys,practice_complete.rt,boxes_checked,PracticeComplete.keys,PracticeComplete.rt,practice_trials.thisRepN,practice_trials.thisTrialN,practice_trials.thisN,practice_trials.thisIndex,practice_trials.ran,practice_images,feedback_images,key_resp_intructions_2.keys,key_resp_intructions_2.rt,Image_List_4,trial_complete.keys,trial_complete.rt,trial_mouse.x,trial_mouse.y,trial_mouse.leftButton,trial_mouse.midButton,trial_mouse.rightButton,trial_mouse.time,trial_mouse.clicked_name,trials.thisRepN,trials.thisTrialN,trials.thisN,trials.thisIndex,trials.ran,Image_List_1,Image_List_2,Image_List_3,Image_List_5,key_resp.keys,key_resp.rt
Image_List_4,space,6.517825,space,3.369095,space,7.91617,space,3.870455,0,0,0,3,1,ahead_right_left.jpg,ahead_right_left_path.jpg,44517,2020-11-23_10h10.03.479,lingCatScenes,2020.1.3,MacIntel,60,,,,,,,,,,,,,,,,,,,,,,,,,,,,,,,,,,,,
Image_List_4,,,,,space,1.432405,space,1.56985,0,1,1,2,1,ahead_right.jpg,ahead_right_path.jpg,44517,2020-11-23_10h10.03.479,lingCatScenes,2020.1.3,MacIntel,60,,,,,,,,,,,,,,,,,,,,,,,,,,,,,,,,,,,,
Image_List_4,,,,,space,0.96997,space,0.95348,0,2,2,5,1,right.jpg,right_path.jpg,44517,2020-11-23_10h10.03.479,lingCatScenes,2020.1.3,MacIntel,60,,,,,,,,,,,,,,,,,,,,,,,,,,,,,,,,,,,,
Image_List_4,,,,,space,0.90258,space,1.437425,0,3,3,4,1,left.jpg,left_path.jpg,44517,2020-11-23_10h10.03.479,lingCatScenes,2020.1.3,MacIntel,60,,,,,,,,,,,,,,,,,,,,,,,,,,,,,,,,,,,,
Image_List_4,,,,,space,0.828115,space,0.94865,0,4,4,6,1,right_left.jpg,right_left_path.jpg,44517,2020-11-23_10h10.03.479,lingCatScenes,2020.1.3,MacIntel,60,,,,,,,,,,,,,,,,,,,,,,,,,,,,,,,,,,,,
Image_List_4,,,,,space,1.16937,space,0.6203,0,5,5,0,1,ahead.jpg,ahead_path.jpg,44517,2020-11-23_10h10.03.479,lingCatScenes,2020.1.3,MacIntel,60,,,,,,,,,,,,,,,,,,,,,,,,,,,,,,,,,,,,
Image_List_4,,,,,space,0.66772,space,0.822225,0,6,6,1,1,ahead_left.jpg,ahead_left_path.jpg,44517,2020-11-23_10h10.03.479,lingCatScenes,2020.1.3,MacIntel,60,,,,,,,,,,,,,,,,,,,,,,,,,,,,,,,,,,,,
Image_List_4,,,,,,,,,,,,,,,,44517,2020-11-23_10h10.03.479,lingCatScenes,2020.1.3,MacIntel,60,"[1440,900]",space,1.096515,[],space,0.99439,0,0,0,6,1,right_left_2.jpg,right_left_2_path.jpg,,,,,,,,,,,,,,,,,,,,,,,
Image_List_4,,,,,,,,,,,,,,,,44517,2020-11-23_10h10.03.479,lingCatScenes,2020.1.3,MacIntel,60,"[1440,900]",space,1.068075,[],space,0.87025,0,1,1,5,1,right_2.jpg,right_2_path.jpg,,,,,,,,,,,,,,,,,,,,,,,
Image_List_4,,,,,,,,,,,,,,,,44517,2020-11-23_10h10.03.479,lingCatScenes,2020.1.3,MacIntel,60,"[1440,900]",space,0.656035,[],space,0.90382,0,2,2,1,1,ahead_left_2.jpg,ahead_left_2_path.jpg,,,,,,,,,,,,,,,,,,,,,,,
Image_List_4,,,,,,,,,,,,,,,,44517,2020-11-23_10h10.03.479,lingCatScenes,2020.1.3,MacIntel,60,"[1440,900]",space,0.84568,[],space,0.498615,0,3,3,0,1,ahead_2.jpg,ahead_2_path.jpg,,,,,,,,,,,,,,,,,,,,,,,
Image_List_4,,,,,,,,,,,,,,,,44517,2020-11-23_10h10.03.479,lingCatScenes,2020.1.3,MacIntel,60,"[1440,900]",space,0.63564,[],space,0.55302,0,4,4,3,1,ahead_right_left_2.jpg,ahead_right_left_2_path.jpg,,,,,,,,,,,,,,,,,,,,,,,
Image_List_4,,,,,,,,,,,,,,,,44517,2020-11-23_10h10.03.479,lingCatScenes,2020.1.3,MacIntel,60,"[1440,900]",space,0.33825,[],space,0.29189,0,5,5,4,1,left_2.jpg,left_2_path.jpg,,,,,,,,,,,,,,,,,,,,,,,
Image_List_4,,,,,,,,,,,,,,,,44517,2020-11-23_10h10.03.479,lingCatScenes,2020.1.3,MacIntel,60,"[1440,900]",space,0.36937,[],space,0.318845,0,6,6,2,1,ahead_right_2.jpg,ahead_right_2_path.jpg,,,,,,,,,,,,,,,,,,,,,,,
Image_List_4,,,,,,,,,,,,,,,,44517,2020-11-23_10h10.03.479,lingCatScenes,2020.1.3,MacIntel,60,"[1440,900]",,,[],,,,,,,,,,space,0.153565,hut5.jpg,space,0.117725,[],[],[],[],[],[],[],0,0,0,57,1,hayfield5.jpg,jail1.jpg,hallway4.jpg,gazebo.jpg,,
Image_List_4,,,,,,,,,,,,,,,,44517,2020-11-23_10h10.03.479,lingCatScenes,2020.1.3,MacIntel,60,"[1440,900]",,,[],,,,,,,,,,,,weightroom4.jpg,space,0.902615,[],[],[],[],[],[],[],0,1,1,95,1,waitingroom2.jpg,warehouse2.jpg,stripmall6.jpg,tvstudio3.jpg,,
Image_List_4,,,,,,,,,,,,,,,,44517,2020-11-23_10h10.03.479,lingCatScenes,2020.1.3,MacIntel,60,"[1440,900]",,,[],,,,,,,,,,,,baggageClaim1.jpg,space,0.88582,[],[],[],[],[],[],[],0,2,2,6,1,ATM1.jpg,banquetHall2.jpg,auto_showroom5.jpg,apartmentBuilding3.jpg,,
Image_List_4,,,,,,,,,,,,,,,,44517,2020-11-23_10h10.03.479,lingCatScenes,2020.1.3,MacIntel,60,"[1440,900]",,,"[""trial_sharp_left_box""]",,,,,,,,,,,,foodcourt6.jpg,space,6.36493,[-0.6077821180555556],[-0.306796875],[1],[0],[0],[5.494940000004135],"[""trial_sharp_left_box""]",0,3,3,44,1,firestation2.jpg,frontFoyer4.jpg,elevatorOutside1.jpg,dock2.jpg,,
Image_List_4,,,,,,,,,,,,,,,,44517,2020-11-23_10h10.03.479,lingCatScenes,2020.1.3,MacIntel,60,"[1440,900]",,,"[""trial_ahead_box""]",,,,,,,,,,,,lab5.jpg,space,2.116135,[0.020538194444444446],[-0.30307725694444443],[1],[0],[0],[1.6989249999751337],"[""trial_ahead_box""]",0,4,4,64,1,igloo2.jpg,newsstand5.jpg,jewelrystore8.jpg,homegarage2.jpg,,
Image_List_4,,,,,,,,,,,,,,,,44517,2020-11-23_10h10.03.479,lingCatScenes,2020.1.3,MacIntel,60,"[1440,900]",,,"[""trial_ahead_box""]",,,,,,,,,,,,basement5.jpg,space,3.1532,[-0.0020616319444444445],[-0.3089019097222222],[1],[0],[0],[2.6311799999675713],"[""trial_ahead_box""]",0,5,5,9,1,auto_showroom3.jpg,bar2.jpg,ballroom2.jpg,arcade2.jpg,,
Image_List_4,,,,,,,,,,,,,,,,44517,2020-11-23_10h10.03.479,lingCatScenes,2020.1.3,MacIntel,60,"[1440,900]",,,"[""trial_ahead_box""]",,,,,,,,,,,,homegarage4.jpg,space,1.6863,[-0.0020616319444444445],[-0.3089019097222222],[1],[0],[0],[1.396115000010468],"[""trial_ahead_box""]",0,6,6,54,1,greenhouse2.jpg,horsebarn11.jpg,gazebo2.jpg,frontFoyer.jpg,,
Image_List_4,,,,,,,,,,,,,,,,44517,2020-11-23_10h10.03.479,lingCatScenes,2020.1.3,MacIntel,60,"[1440,900]",,,"[""trial_slight_right_box""]",,,,,,,,,,,,driveway7.jpg,space,4.40306,[0.1854296875],[-0.3070833333333333],[1],[0],[0],[3.696635000000242],"[""trial_slight_right_box""]",0,7,7,37,1,dining_car.jpg,driveway4.jpg,dinosaur4.jpg,citystreet9.jpg,,
Image_List_4,,,,,,,,,,,,,,,,44517,2020-11-23_10h10.03.479,lingCatScenes,2020.1.3,MacIntel,60,"[1440,900]",,,"[""trial_ahead_box""]",,,,,,,,,,,,churchInside3.jpg,space,2.186145,[0.0054904513888888885],[-0.30115885416666666],[1],[0],[0],[1.1784650000045076],"[""trial_ahead_box""]",0,8,8,26,1,campusquad2.jpg,cornfield4.jpg,church4.jpg,botanicalGarden7.jpg,,
Image_List_4,,,,,,,,,,,,,,,,44517,2020-11-23_10h10.03.479,lingCatScenes,2020.1.3,MacIntel,60,"[1440,900]",,,"[""trial_slight_right_box""]",,,,,,,,,,,,checkoutcounter2.jpg,space,2.736515,[0.1821875],[-0.2936284722222222],[1],[0],[0],[2.2292299999971874],"[""trial_slight_right_box""]",0,9,9,25,1,campsite7.jpg,conference3.jpg,church3.jpg,botanicalGarden4.jpg,,
Image_List_4,,,,,,,,,,,,,,,,44517,2020-11-23_10h10.03.479,lingCatScenes,2020.1.3,MacIntel,60,"[1440,900]",,,"[""trial_slight_left_box""]",,,,,,,,,,,,warehouseoutside2.jpg,space,2.96903,"[-0.23162760416666667,-0.2182595486111111]","[-0.3346397569444444,-0.29022135416666667]","[1,1]","[0,0]","[0,0]","[2.031574999971781,2.5646249999990687]","[""trial_slight_left_box""]",0,10,10,93,1,tollbooth8.jpg,volleyballcourt4.jpg,staircase4.jpg,tenniscourt.jpg,,
Image_List_4,,,,,,,,,,,,,,,,44517,2020-11-23_10h10.03.479,lingCatScenes,2020.1.3,MacIntel,60,"[1440,900]",,,"[""trial_slight_left_box""]",,,,,,,,,,,,bar.jpg,space,1.92039,"[-0.19895833333333332,-0.1916015625]","[-0.25146267361111113,-0.29835503472222225]","[1,1]","[0,0]","[0,0]","[0.9279700000188313,1.475414999993518]","[""trial_slight_left_box""]",0,11,11,8,1,attic3.jpg,banquetHall6.jpg,balconyIN.jpg,applestore4.jpg,,
Image_List_4,,,,,,,,,,,,,,,,44517,2020-11-23_10h10.03.479,lingCatScenes,2020.1.3,MacIntel,60,"[1440,900]",,,"[""trial_ahead_box""]",,,,,,,,,,,,greenhouse.jpg,space,1.72019,[-0.015737847222222223],[-0.2903732638888889],[1],[0],[0],[1.4635850000195205],"[""trial_ahead_box""]",0,12,12,49,1,frontDoor3.jpg,greenhouse5.jpg,flowershop3.jpg,farm2.jpg,,
Image_List_4,,,,,,,,,,,,,,,,44517,2020-11-23_10h10.03.479,lingCatScenes,2020.1.3,MacIntel,60,"[1440,900]",,,"[""trial_slight_left_box""]",,,,,,,,,,,,stripmall3.jpg,space,2.619565,"[-0.20435329861111112,-0.20170572916666665]","[-0.34065104166666665,-0.29034288194444446]","[1,1]","[0,0]","[0,0]","[1.7592699999804609,2.2769250000128523]","[""trial_slight_left_box""]",0,13,13,90,1,savanna5.jpg,trainStation1.jpg,sidewalk1.jpg,shoestore4.jpg,,
Image_List_4,,,,,,,,,,,,,,,,44517,2020-11-23_10h10.03.479,lingCatScenes,2020.1.3,MacIntel,60,"[1440,900]",,,"[""trial_ahead_box""]",,,,,,,,,,,,wrestlingring7.jpg,space,1.603265,[-0.013871527777777778],[-0.27688368055555557],[1],[0],[0],[1.2776900000171736],"[""trial_ahead_box""]",0,14,14,99,1,wineVineyard9.jpg,yogastudio4.jpg,windmill2.jpg,yogastudio1.jpg,,
Image_List_4,,,,,,,,,,,,,,,,44517,2020-11-23_10h10.03.479,lingCatScenes,2020.1.3,MacIntel,60,"[1440,900]",,,"[""trial_ahead_box""]",,,,,,,,,,,,cemetery5.jpg,space,1.636235,[-0.013871527777777778],[-0.27688368055555557],[1],[0],[0],[0.9800999999861233],"[""trial_ahead_box""]",0,15,15,24,1,campsite.jpg,cliff3.jpg,cave6.jpg,boardwalk.jpg,,
Image_List_4,,,,,,,,,,,,,,,,44517,2020-11-23_10h10.03.479,lingCatScenes,2020.1.3,MacIntel,60,"[1440,900]",,,"[""trial_ahead_box""]",,,,,,,,,,,,castle4.jpg,space,1.386345,[-0.01907986111111111],[-0.29509114583333335],[1],[0],[0],[1.1140500000328757],"[""trial_ahead_box""]",0,16,16,19,1,boardwalk2.jpg,casino3.jpg,cafeteria1.jpg,basketballcourt.jpg,,
Image_List_4,,,,,,,,,,,,,,,,44517,2020-11-23_10h10.03.479,lingCatScenes,2020.1.3,MacIntel,60,"[1440,900]",,,"[""trial_ahead_box"",""trial_sharp_right_box""]",,,,,,,,,,,,appleorchard3.jpg,space,3.437425,"[-0.013333333333333334,0.6183289930555556]","[-0.30027777777777775,-0.2857074652777778]","[1,1]","[0,0]","[0,0]","[0.894060000020545,2.8552350000245497]","[""trial_ahead_box"",""trial_sharp_right_box""]",0,17,17,4,1,artStudio1.jpg,baggageClaim2.jpg,auto_showroom1.jpg,alley4.jpg,,
Image_List_4,,,,,,,,,,,,,,,,44517,2020-11-23_10h10.03.479,lingCatScenes,2020.1.3,MacIntel,60,"[1440,900]",,,"[""trial_ahead_box""]",,,,,,,,,,,,castle2.jpg,space,2.586625,[0.003589409722222222],[-0.29454427083333334],[1],[0],[0],[2.3291850000387058],"[""trial_ahead_box""]",0,18,18,18,1,bleachers5.jpg,casino1.jpg,brewery4.jpg,basement6.jpg,,
Image_List_4,,,,,,,,,,,,,,,,44517,2020-11-23_10h10.03.479,lingCatScenes,2020.1.3,MacIntel,60,"[1440,900]",,,"[""trial_ahead_box""]",,,,,,,,,,,,staircase7.jpg,space,1.41969,[0.005386284722222222],[-0.29624131944444443],[1],[0],[0],[1.130925000004936],"[""trial_ahead_box""]",0,19,19,89,1,ruralroad7.jpg,track5.jpg,ShowJumping7.jpg,sculpturegarden3.jpg,,
Image_List_4,,,,,,,,,,,,,,,,44517,2020-11-23_10h10.03.479,lingCatScenes,2020.1.3,MacIntel,60,"[1440,900]",,,"[""trial_left_box""]",,,,,,,,,,,,doctor1.jpg,space,2.02021,[-0.3971527777777778],[-0.3045659722222222],[1],[0],[0],[1.8114949999726377],"[""trial_left_box""]",0,20,20,36,1,diner14.jpg,dormroom9.jpg,dining_car3.jpg,checkoutcounter9.jpg,,
Image_List_4,,,,,,,,,,,,,,,,44517,2020-11-23_10h10.03.479,lingCatScenes,2020.1.3,MacIntel,60,"[1440,900]",,,"[""trial_ahead_box""]",,,,,,,,,,,,botanicalGarden5.jpg,space,2.268455,"[0.0412890625,0.01728732638888889]","[-0.30235243055555555,-0.3037109375]","[1,1]","[0,0]","[0,0]","[1.577724999981001,1.9611949999816716]","[""trial_ahead_box""]",0,21,21,14,1,ballroom1.jpg,breakroom5.jpg,bistrooutdoor5.jpg,ballroom3.jpg,,
Image_List_4,,,,,,,,,,,,,,,,44517,2020-11-23_10h10.03.479,lingCatScenes,2020.1.3,MacIntel,60,"[1440,900]",,,"[""trial_ahead_box""]",,,,,,,,,,,,apartmentBuilding4.jpg,space,0.93602,[0.0017621527777777778],[-0.30163194444444447],[1],[0],[0],[0.7280700000119396],"[""trial_ahead_box""]",0,22,22,2,1,alley1.jpg,arcade1.jpg,applestore6.jpg,airportTerminal6.jpg,,
Image_List_4,,,,,,,,,,,,,,,,44517,2020-11-23_10h10.03.479,lingCatScenes,2020.1.3,MacIntel,60,"[1440,900]",,,[],,,,,,,,,,,,golfcourse7.jpg,space,0.986915,[],[],[],[],[],[],[],0,23,23,48,1,frontDoor2.jpg,golfcourse6.jpg,fittingroom5.jpg,fabricstore2.jpg,,
Image_List_4,,,,,,,,,,,,,,,,44517,2020-11-23_10h10.03.479,lingCatScenes,2020.1.3,MacIntel,60,"[1440,900]",,,"[""trial_ahead_box""]",,,,,,,,,,,,constructionSite4.jpg,space,0.91946,[0.0017621527777777778],[-0.30163194444444447],[1],[0],[0],[0.726569999998901],"[""trial_ahead_box""]",0,24,24,29,1,cornfield2.jpg,deck2.jpg,cliff2.jpg,bridalboutique3.jpg,,
Image_List_4,,,,,,,,,,,,,,,,44517,2020-11-23_10h10.03.479,lingCatScenes,2020.1.3,MacIntel,60,"[1440,900]",,,"[""trial_ahead_box""]",,,,,,,,,,,,winebarrel4.jpg,space,0.73385,[0.0017621527777777778],[-0.30163194444444447],[1],[0],[0],[0.5795250000082888],"[""trial_ahead_box""]",0,25,25,98,1,weightroom5.jpg,wineVineyard8.jpg,warehouse3.jpg,winebarrel2.jpg,,
Image_List_4,,,,,,,,,,,,,,,,44517,2020-11-23_10h10.03.479,lingCatScenes,2020.1.3,MacIntel,60,"[1440,900]",,,"[""trial_ahead_box""]",,,,,,,,,,,,hayfield4.jpg,space,0.653995,[0.0017621527777777778],[-0.30163194444444447],[1],[0],[0],[0.46483999997144565],"[""trial_ahead_box""]",0,26,26,51,1,gasstation6.jpg,hallway5.jpg,frontDoor5.jpg,firestation5.jpg,,
Image_List_4,,,,,,,,,,,,,,,,44517,2020-11-23_10h10.03.479,lingCatScenes,2020.1.3,MacIntel,60,"[1440,900]",,,"[""trial_ahead_box""]",,,,,,,,,,,,sandDunes_desert_outdoor3.jpg,space,0.576595,[0.0017621527777777778],[-0.30163194444444447],[1],[0],[0],[0.32926500000758097],"[""trial_ahead_box""]",0,27,27,85,1,recordingstudio4.jpg,sidewalk5.jpg,ruralroad2.jpg,rooftop3.jpg,,
Image_List_4,,,,,,,,,,,,,,,,44517,2020-11-23_10h10.03.479,lingCatScenes,2020.1.3,MacIntel,60,"[1440,900]",,,"[""trial_ahead_box""]",,,,,,,,,,,,park2.jpg,space,0.50234,[0.0017621527777777778],[-0.30163194444444447],[1],[0],[0],[0.33790500002214685],"[""trial_ahead_box""]",0,28,28,76,1,parkinggarage.jpg,playroom4.jpg,parkinggarage3.jpg,lookout4.jpg,,
Image_List_4,,,,,,,,,,,,,,,,44517,2020-11-23_10h10.03.479,lingCatScenes,2020.1.3,MacIntel,60,"[1440,900]",,,"[""trial_ahead_box""]",,,,,,,,,,,,poolhall5.jpg,space,0.642955,[0.0017621527777777778],[-0.30163194444444447],[1],[0],[0],[0.44378500001039356],"[""trial_ahead_box""]",0,29,29,80,1,pavilion2.jpg,racecarcourse2.jpg,porch.jpg,parkinggarage4.jpg,,
Image_List_4,,,,,,,,,,,,,,,,44517,2020-11-23_10h10.03.479,lingCatScenes,2020.1.3,MacIntel,60,"[1440,900]",,,"[""trial_ahead_box""]",,,,,,,,,,,,sandDunes_desert_outdoor8.jpg,space,0.635355,[0.0017621527777777778],[-0.30163194444444447],[1],[0],[0],[0.42271999997319654],"[""trial_ahead_box""]",0,30,30,86,1,restaurant14.jpg,stripmall.jpg,ruralroad3.jpg,rooftop4.jpg,,
Image_List_4,,,,,,,,,,,,,,,,44517,2020-11-23_10h10.03.479,lingCatScenes,2020.1.3,MacIntel,60,"[1440,900]",,,[],,,,,,,,,,,,forestpath4.jpg,space,0.5885,[0.0017621527777777778],[-0.30163194444444447],[1],[0],[0],[0.4281949999858625],"[""trial_ahead_box""]",0,31,31,45,1,fittingroom2.jpg,frontFoyer7.jpg,factory1.jpg,dock4.jpg,,
Image_List_4,,,,,,,,,,,,,,,,44517,2020-11-23_10h10.03.479,lingCatScenes,2020.1.3,MacIntel,60,"[1440,900]",,,[],,,,,,,,,,,,airplanecabin5.jpg,space,0.63023,[0.0017621527777777778],[-0.30163194444444447],[1],[0],[0],[0.4416049999999814],"[""trial_ahead_box""]",0,32,32,0,1,airplanecabin1.jpg,alley2.jpg,appleorchard4.jpg,airplanecabin3.jpg,,
Image_List_4,,,,,,,,,,,,,,,,44517,2020-11-23_10h10.03.479,lingCatScenes,2020.1.3,MacIntel,60,"[1440,900]",,,"[""trial_ahead_box""]",,,,,,,,,,,,boardwalk4.jpg,space,0.56657,[0.0017621527777777778],[-0.30163194444444447],[1],[0],[0],[0.41688000003341585],"[""trial_ahead_box""]",0,33,33,13,1,balconyIN2.jpg,bowlingalley3.jpg,beach2.jpg,backyard6.jpg,,
Image_List_4,,,,,,,,,,,,,,,,44517,2020-11-23_10h10.03.479,lingCatScenes,2020.1.3,MacIntel,60,"[1440,900]",,,[],,,,,,,,,,,,homegarage3.jpg,space,0.621725,[0.0017621527777777778],[-0.30163194444444447],[1],[0],[0],[0.46339499996975064],"[""trial_ahead_box""]",0,34,34,53,1,gazebo3.jpg,homeoffice.jpg,frontLawn3.jpg,fountain.jpg,,
Image_List_4,,,,,,,,,,,,,,,,44517,2020-11-23_10h10.03.479,lingCatScenes,2020.1.3,MacIntel,60,"[1440,900]",,,[],,,,,,,,,,,,lockerroom2.jpg,space,0.63477,[0.0017621527777777778],[-0.30163194444444447],[1],[0],[0],[0.463019999966491],"[""trial_ahead_box""]",0,35,35,68,1,liquorstore7.jpg,parkinglot.jpg,lightingstore4.jpg,hospitalroom3.jpg,,
Image_List_4,,,,,,,,,,,,,,,,44517,2020-11-23_10h10.03.479,lingCatScenes,2020.1.3,MacIntel,60,"[1440,900]",,,[],,,,,,,,,,,,readingroom4.jpg,space,0.47948,[0.0017621527777777778],[-0.30163194444444447],[1],[0],[0],[0.3659699999843724],"[""trial_ahead_box""]",0,36,36,82,1,publicrestroom2.jpg,sandDunes_desert_outdoor9.jpg,promenadeDeck3.jpg,postoffice4.jpg,,
Image_List_4,,,,,,,,,,,,,,,,44517,2020-11-23_10h10.03.479,lingCatScenes,2020.1.3,MacIntel,60,"[1440,900]",,,[],,,,,,,,,,,,windmill1.jpg,space,0.58673,[0.0017621527777777778],[-0.30163194444444447],[1],[0],[0],[0.43543999997200444],"[""trial_ahead_box""]",0,37,37,96,1,warehouse4.jpg,warehouseoutside1.jpg,tenniscourt3.jpg,warehouse1.jpg,,
Image_List_4,,,,,,,,,,,,,,,,44517,2020-11-23_10h10.03.479,lingCatScenes,2020.1.3,MacIntel,60,"[1440,900]",,,[],,,,,,,,,,,,farm4.jpg,space,0.56831,[0.0017621527777777778],[-0.2989453125],[1],[0],[0],[0.43180000002030283],"[""trial_ahead_box""]",0,38,38,42,1,exerciseequipment3.jpg,firestation3.jpg,drymountains6.jpg,desertvegetation2.jpg,,
Image_List_4,,,,,,,,,,,,,,,,44517,2020-11-23_10h10.03.479,lingCatScenes,2020.1.3,MacIntel,60,"[1440,900]",,,[],,,,,,,,,,,,operatingroom1.jpg,space,0.597735,[0.0017621527777777778],[-0.2989453125],[1],[0],[0],[0.4135299999616109],"[""trial_ahead_box""]",0,39,39,74,1,newsstand2.jpg,playground10.jpg,observatory4.jpeg,lightingstore2.jpg,,
Image_List_4,,,,,,,,,,,,,,,,44517,2020-11-23_10h10.03.479,lingCatScenes,2020.1.3,MacIntel,60,"[1440,900]",,,[],,,,,,,,,,,,park8.jpg,space,0.61649,[0.0017621527777777778],[-0.2989453125],[1],[0],[0],[0.4480300000286661],"[""trial_ahead_box""]",0,40,40,77,1,parkinggarage2.jpg,playroom6.jpg,pasture9.jpg,mallindoor6.jpg,,
Image_List_4,,,,,,,,,,,,,,,,44517,2020-11-23_10h10.03.479,lingCatScenes,2020.1.3,MacIntel,60,"[1440,900]",,,[],,,,,,,,,,,,park.jpg,space,0.577025,[0.0017621527777777778],[-0.2989453125],[1],[0],[0],[0.4021699999575503],"[""trial_ahead_box""]",0,41,41,75,1,pantry5.jpg,playground6.jpg,operatingroom4.jpg,lockerroom.jpg,,
Image_List_4,,,,,,,,,,,,,,,,44517,2020-11-23_10h10.03.479,lingCatScenes,2020.1.3,MacIntel,60,"[1440,900]",,,[],,,,,,,,,,,,appleorchard2.jpg,space,1.486805,[0.0017621527777777778],[-0.2989453125],[1],[0],[0],[1.3338450000155717],"[""trial_ahead_box""]",0,42,42,3,1,apartmentBuilding2.jpg,attic1.jpg,aquarium1.jpg,alley3.jpg,,
Image_List_4,,,,,,,,,,,,,,,,44517,2020-11-23_10h10.03.479,lingCatScenes,2020.1.3,MacIntel,60,"[1440,900]",,,[],,,,,,,,,,,,museum3.jpg,space,0.66181,[0.0017621527777777778],[-0.2989453125],[1],[0],[0],[0.4626100000459701],"[""trial_ahead_box""]",0,43,43,71,1,metroInside2.jpg,pavilion5.jpg,metroInside3.jpg,jewelrystore.jpg,,
Image_List_4,,,,,,,,,,,,,,,,44517,2020-11-23_10h10.03.479,lingCatScenes,2020.1.3,MacIntel,60,"[1440,900]",,,[],,,,,,,,,,,,highway.jpg,space,0.636455,[0.0017621527777777778],[-0.2989453125],[1],[0],[0],[0.47919500002171844],"[""trial_ahead_box""]",0,44,44,52,1,gasstation7.jpg,hardwarestore1.jpg,frontFoyer6.jpg,forestpath2.jpg,,
Image_List_4,,,,,,,,,,,,,,,,44517,2020-11-23_10h10.03.479,lingCatScenes,2020.1.3,MacIntel,60,"[1440,900]",,,[],,,,,,,,,,,,driveway8.jpg,space,0.552795,[0.0017621527777777778],[-0.2989453125],[1],[0],[0],[0.41201999998884276],"[""trial_ahead_box""]",0,45,45,38,1,dining_car2.jpg,elevatorOutside4.jpg,dock1.jpg,classroom1.jpg,,
Image_List_4,,,,,,,,,,,,,,,,44517,2020-11-23_10h10.03.479,lingCatScenes,2020.1.3,MacIntel,60,"[1440,900]",,,[],,,,,,,,,,,,diner10.jpg,space,0.65188,[0.0017621527777777778],[-0.2989453125],[1],[0],[0],[0.5146399999503046],"[""trial_ahead_box""]",0,46,46,33,1,deck1.jpg,diningroom1.jpg,courthouse2.jpg,cabinIndoors5.jpg,,
Image_List_4,,,,,,,,,,,,,,,,44517,2020-11-23_10h10.03.479,lingCatScenes,2020.1.3,MacIntel,60,"[1440,900]",,,[],,,,,,,,,,,,liquorstore2.jpg,space,0.56933,[0.0017621527777777778],[-0.2989453125],[1],[0],[0],[0.4293549999711104],"[""trial_ahead_box""]",0,47,47,67,1,library_aisle3.jpg,park7.jpg,laundromat4.jpg,hospitalroom2.jpg,,
Image_List_4,,,,,,,,,,,,,,,,44517,2020-11-23_10h10.03.479,lingCatScenes,2020.1.3,MacIntel,60,"[1440,900]",,,[],,,,,,,,,,,,nursery4.jpg,space,0.70231,[0.0014670138888888888],[-0.29586805555555556],[1],[0],[0],[0.49576999997952953],"[""trial_ahead_box""]",0,48,48,73,1,musicStore3.jpg,photographer_studio2.jpg,nursery.jpg,library_aisle9.jpg,,
Image_List_4,,,,,,,,,,,,,,,,44517,2020-11-23_10h10.03.479,lingCatScenes,2020.1.3,MacIntel,60,"[1440,900]",,,[],,,,,,,,,,,,winebarrel3.jpg,space,0.534895,[0.0014670138888888888],[-0.29586805555555556],[1],[0],[0],[0.43082499998854473],"[""trial_ahead_box""]",0,49,49,97,1,warehouseoutside4.jpg,wineVineyard2.jpg,waitingroom4.jpg,warehouseoutside3.jpg,,
Image_List_4,,,,,,,,,,,,,,,,44517,2020-11-23_10h10.03.479,lingCatScenes,2020.1.3,MacIntel,60,"[1440,900]",,,[],,,,,,,,,,,,metroInside1.jpg,space,0.637115,[-0.00024305555555555555],[-0.2947265625],[1],[0],[0],[0.448499999998603],"[""trial_ahead_box""]",0,50,50,69,1,liquorstore8.jpg,parkinglot2.jpg,livingroom.jpg,icecream2.jpg,,
Image_List_4,,,,,,,,,,,,,,,,44517,2020-11-23_10h10.03.479,lingCatScenes,2020.1.3,MacIntel,60,"[1440,900]",,,[],,,,,,,,,,,,carmechanic.jpg,space,0.6484,[-0.00024305555555555555],[-0.2947265625],[1],[0],[0],[0.4485149999964051],"[""trial_ahead_box""]",0,51,51,17,1,bikerack1.jpg,campsite6.jpg,breakroom4.jpg,baseball6.jpg,,
Image_List_4,,,,,,,,,,,,,,,,44517,2020-11-23_10h10.03.479,lingCatScenes,2020.1.3,MacIntel,60,"[1440,900]",,,[],,,,,,,,,,,,pavilion3.jpg,space,0.535555,[-0.00024305555555555555],[-0.2947265625],[1],[0],[0],[0.36810500000137836],"[""trial_ahead_box""]",0,52,52,78,1,parkinglot3.jpg,poolhall1.jpg,pier5.jpg,observatory1.jpg,,
Image_List_4,,,,,,,,,,,,,,,,44517,2020-11-23_10h10.03.479,lingCatScenes,2020.1.3,MacIntel,60,"[1440,900]",,,[],,,,,,,,,,,,igloo4.jpg,space,0.58553,[-0.00024305555555555555],[-0.2947265625],[1],[0],[0],[0.4260399999911897],"[""trial_ahead_box""]",0,53,53,58,1,highway7.jpg,lab1.jpg,hedgemaze1.jpg,grocerystore2.jpg,,
Image_List_4,,,,,,,,,,,,,,,,44517,2020-11-23_10h10.03.479,lingCatScenes,2020.1.3,MacIntel,60,"[1440,900]",,,[],,,,,,,,,,,,lab3.jpg,space,0.56956,[-0.00024305555555555555],[-0.2947265625],[1],[0],[0],[0.4082300000009127],"[""trial_ahead_box""]",0,54,54,62,1,hotellobby2.jpg,minigolf.jpg,horsebarn8.jpg,hayfield7.jpg,,
Image_List_4,,,,,,,,,,,,,,,,44517,2020-11-23_10h10.03.479,lingCatScenes,2020.1.3,MacIntel,60,"[1440,900]",,,[],,,,,,,,,,,,courtroom2.jpg,space,0.56328,[-0.00024305555555555555],[-0.29313368055555555],[1],[0],[0],[0.4031350000295788],"[""trial_ahead_box""]",0,55,55,31,1,cubicle4.jpg,desertvegetation6.jpg,conference4.jpg,cabin3.jpg,,
Image_List_4,,,,,,,,,,,,,,,,44517,2020-11-23_10h10.03.479,lingCatScenes,2020.1.3,MacIntel,60,"[1440,900]",,,[],,,,,,,,,,,,kindergarten_classroom7.jpg,space,0.61441,[-0.00024305555555555555],[-0.29313368055555555],[1],[0],[0],[0.4697399999713525],"[""trial_ahead_box""]",0,56,56,61,1,HorseRaceTrack.jpg,metroInside4.jpg,homegarden6.jpg,hayfield6.jpg,,
Image_List_4,,,,,,,,,,,,,,,,44517,2020-11-23_10h10.03.479,lingCatScenes,2020.1.3,MacIntel,60,"[1440,900]",,,[],,,,,,,,,,,,kindergarten_classroom5.jpg,space,0.503135,[-0.00024305555555555555],[-0.29313368055555555],[1],[0],[0],[0.38550000003306195],"[""trial_ahead_box""]",0,57,57,59,1,homegarden7.jpg,library_aisle8.jpg,highway4.jpg,grocerystore3.jpg,,
Image_List_4,,,,,,,,,,,,,,,,44517,2020-11-23_10h10.03.479,lingCatScenes,2020.1.3,MacIntel,60,"[1440,900]",,,[],,,,,,,,,,,,basketballcourt3.jpg,space,0.431355,[-0.00024305555555555555],[-0.29313368055555555],[1],[0],[0],[0.43101999995997176],"[""trial_ahead_box""]",0,58,58,10,1,backstage2.jpg,barbershop3.jpg,ballroom4.jpg,ATM4.jpg,,
Image_List_4,,,,,,,,,,,,,,,,44517,2020-11-23_10h10.03.479,lingCatScenes,2020.1.3,MacIntel,60,"[1440,900]",,,[],,,,,,,,,,,,kindergarten_classroom6.jpg,space,0.41646,[-0.00024305555555555555],[-0.29313368055555555],[1],[0],[0],[0.41617499996209517],"[""trial_ahead_box""]",0,59,59,60,1,hometheater2.jpg,lightingstore3.jpg,homegarage.jpg,hallway.jpg,,
Image_List_4,,,,,,,,,,,,,,,,44517,2020-11-23_10h10.03.479,lingCatScenes,2020.1.3,MacIntel,60,"[1440,900]",,,"[""trial_ahead_box""]",,,,,,,,,,,,museum4.jpg,space,0.302355,[],[],[],[],[],[],[],0,60,60,72,1,museum5.jpg,pharmacy4.jpg,musicStore1.jpg,kindergarten_classroom.jpg,,
Image_List_4,,,,,,,,,,,,,,,,44517,2020-11-23_10h10.03.479,lingCatScenes,2020.1.3,MacIntel,60,"[1440,900]",,,"[""trial_ahead_box""]",,,,,,,,,,,,pier2.jpg,space,0.269225,[-0.00024305555555555555],[-0.29313368055555555],[1],[0],[0],[0.07808000000659376],"[""trial_ahead_box""]",0,61,61,79,1,pasture.jpg,poolhall2.jpeg,playground9.jpg,observatory2.jpg,,
Image_List_4,,,,,,,,,,,,,,,,44517,2020-11-23_10h10.03.479,lingCatScenes,2020.1.3,MacIntel,60,"[1440,900]",,,"[""trial_ahead_box""]",,,,,,,,,,,,airportTerminal3.jpg,space,0.24723,[-0.00024305555555555555],[-0.29313368055555555],[1],[0],[0],[0.028125000011641532],"[""trial_ahead_box""]",0,62,62,1,1,airportTerminal4.jpg,apartmentBuilding1.jpg,applestore1.jpg,airportTerminal2.jpg,,
Image_List_4,,,,,,,,,,,,,,,,44517,2020-11-23_10h10.03.479,lingCatScenes,2020.1.3,MacIntel,60,"[1440,900]",,,[],,,,,,,,,,,,copyroom2.jpg,space,0.19571,"[-0.00024305555555555555,-0.00024305555555555555]","[-0.29313368055555555,-0.29313368055555555]","[1,1]","[0,0]","[0,0]","[0.01790499995695427,0.21307499997783452]","[""trial_ahead_box"",""trial_ahead_box""]",0,63,63,30,1,courthouse1.jpg,desertvegetation3.jpg,clothingstore2.jpg,bus_shelter3.jpg,,
Image_List_4,,,,,,,,,,,,,,,,44517,2020-11-23_10h10.03.479,lingCatScenes,2020.1.3,MacIntel,60,"[1440,900]",,,"[""trial_ahead_box""]",,,,,,,,,,,,clothingstore5.jpg,space,0.46544,"[-0.00024305555555555555,-0.00024305555555555555]","[-0.29313368055555555,-0.29313368055555555]","[1,1]","[0,0]","[0,0]","[0.1953300000168383,0.46257000003242865]","[""trial_ahead_box"",""trial_ahead_box""]",0,64,64,28,1,churchInside1.jpg,dancestudio5.jpg,citystreet10.jpg,bridalboutique2.jpg,,
Image_List_4,,,,,,,,,,,,,,,,44517,2020-11-23_10h10.03.479,lingCatScenes,2020.1.3,MacIntel,60,"[1440,900]",,,"[""trial_ahead_box""]",,,,,,,,,,,,lab4.jpg,space,0.54894,"[-0.00024305555555555555,-0.00024305555555555555]","[-0.29313368055555555,-0.29313368055555555]","[1,1]","[0,0]","[0,0]","[0.2690350000048056,0.534029999980703]","[""trial_ahead_box"",""trial_ahead_box""]",0,65,65,63,1,hut2.jpg,museum6.jpg,hotelRoom2.jpg,highway2.jpg,,
Image_List_4,,,,,,,,,,,,,,,,44517,2020-11-23_10h10.03.479,lingCatScenes,2020.1.3,MacIntel,60,"[1440,900]",,,"[""trial_ahead_box""]",,,,,,,,,,,,rainforest5.jpg,space,0.153805,[],[],[],[],[],[],[],0,66,66,81,1,promenadeDeck.jpg,ruralroad5.jpg,promenadeDeck2.jpg,pasture8.jpg,,
Image_List_4,,,,,,,,,,,,,,,,44517,2020-11-23_10h10.03.479,lingCatScenes,2020.1.3,MacIntel,60,"[1440,900]",,,"[""trial_ahead_box""]",,,,,,,,,,,,hut1.jpg,space,1.05083,"[-0.00024305555555555555,-0.00024305555555555555,-0.00024305555555555555,-0.00024305555555555555,-0.00024305555555555555]","[-0.29313368055555555,-0.29313368055555555,-0.29313368055555555,-0.29313368055555555,-0.29313368055555555]","[1,1,1,1,1]","[0,0,0,0,0]","[0,0,0,0,0]","[0.026335000002291054,0.29590500000631437,0.49608499999158084,0.7306850000168197,1.0450350000173785]","[""trial_ahead_box"",""trial_ahead_box"",""trial_ahead_box"",""trial_ahead_box"",""trial_ahead_box""]",0,67,67,56,1,grocerystore5.jpg,hut3.jpg,golfcourse10.jpg,gasstation2.jpg,,
Image_List_4,,,,,,,,,,,,,,,,44517,2020-11-23_10h10.03.479,lingCatScenes,2020.1.3,MacIntel,60,"[1440,900]",,,[],,,,,,,,,,,,cabinIndoors.jpg,space,0.511445,[-0.00024305555555555555],[-0.29313368055555555],[1],[0],[0],[0.4807649999856949],"[""trial_ahead_box""]",0,68,68,15,1,bambooforest4.jpg,cafeteria5.jpg,bleachers8.jpg,bar8.jpg,,
Image_List_4,,,,,,,,,,,,,,,,44517,2020-11-23_10h10.03.479,lingCatScenes,2020.1.3,MacIntel,60,"[1440,900]",,,[],,,,,,,,,,,,cemetery3.jpg,space,0.722685,[-0.00024305555555555555],[-0.29313368055555555],[1],[0],[0],[0.3868299999739975],"[""trial_ahead_box""]",0,69,69,23,1,bus_shelter.jpg,church8.jpg,carmechanic4.jpeg,bleachers6.jpg,,
Image_List_4,,,,,,,,,,,,,,,,44517,2020-11-23_10h10.03.479,lingCatScenes,2020.1.3,MacIntel,60,"[1440,900]",,,"[""trial_ahead_box""]",,,,,,,,,,,,baggageClaim3.jpg,space,1.315695,"[-0.00024305555555555555,-0.00024305555555555555,-0.00024305555555555555]","[-0.29313368055555555,-0.29313368055555555,-0.29313368055555555]","[1,1,1]","[0,0,0]","[0,0,0]","[0.06263999996008351,0.5970049999887124,1.0810749999945983]","[""trial_ahead_box"",""trial_ahead_box"",""trial_ahead_box""]",0,70,70,7,1,attic2.jpg,banquetHall4.jpg,backstage1.jpg,applestore2.jpg,,
Image_List_4,,,,,,,,,,,,,,,,44517,2020-11-23_10h10.03.479,lingCatScenes,2020.1.3,MacIntel,60,"[1440,900]",,,"[""trial_ahead_box""]",,,,,,,,,,,,restaurant8.jpg,space,0.54346,[-0.00024305555555555555],[-0.29313368055555555],[1],[0],[0],[0.29874500003643334],"[""trial_ahead_box""]",0,71,71,83,1,readingroom1.jpg,sculpturegarden1.jpg,promenadeDeck6.jpg,readingroom2.jpg,,
Image_List_4,,,,,,,,,,,,,,,,44517,2020-11-23_10h10.03.479,lingCatScenes,2020.1.3,MacIntel,60,"[1440,900]",,,"[""trial_ahead_box""]",,,,,,,,,,,,fabricstore1.jpg,space,0.478665,[-0.00024305555555555555],[-0.29313368055555555],[1],[0],[0],[0.25254499999573454],"[""trial_ahead_box""]",0,72,72,41,1,dugout4.jpg,farm3.jpg,drymountains3.jpg,dentist2.jpg,,
Image_List_4,,,,,,,,,,,,,,,,44517,2020-11-23_10h10.03.479,lingCatScenes,2020.1.3,MacIntel,60,"[1440,900]",,,"[""trial_ahead_box""]",,,,,,,,,,,,sculpturegarden2.jpg,space,0.75097,[-0.00024305555555555555],[-0.29313368055555555],[1],[0],[0],[0.5692000000271946],"[""trial_ahead_box""]",0,73,73,87,1,restaurantkitchen2.jpg,theater2.jpg,savanna.jpg,RVinside2.jpg,,
Image_List_4,,,,,,,,,,,,,,,,44517,2020-11-23_10h10.03.479,lingCatScenes,2020.1.3,MacIntel,60,"[1440,900]",,,"[""trial_ahead_box""]",,,,,,,,,,,,cemetery.jpg,space,0.60426,[-0.00024305555555555555],[-0.29313368055555555],[1],[0],[0],[0.3138949999702163],"[""trial_ahead_box""]",0,74,74,22,1,bowlingalley5.jpg,church6.jpg,cargo5.jpg,bistrooutdoor6.jpg,,
Image_List_4,,,,,,,,,,,,,,,,44517,2020-11-23_10h10.03.479,lingCatScenes,2020.1.3,MacIntel,60,"[1440,900]",,,"[""trial_ahead_box""]",,,,,,,,,,,,dining_car6.jpg,space,0.948145,[-0.00024305555555555555],[-0.29313368055555555],[1],[0],[0],[0.8788700000150129],"[""trial_ahead_box""]",0,75,75,35,1,deck5.jpg,dock3.jpg,cubicle7.jpg,carmechanic2.jpg,,
Image_List_4,,,,,,,,,,,,,,,,44517,2020-11-23_10h10.03.479,lingCatScenes,2020.1.3,MacIntel,60,"[1440,900]",,,[],,,,,,,,,,,,tvstudio2.jpg,space,0.31846,[-0.00024305555555555555],[-0.29313368055555555],[1],[0],[0],[0.2143900000373833],"[""trial_ahead_box""]",0,76,76,92,1,staircase.jpg,volleyballcourt.jpg,skatepark7.jpg,soccerfield2.jpg,,
Image_List_4,,,,,,,,,,,,,,,,44517,2020-11-23_10h10.03.479,lingCatScenes,2020.1.3,MacIntel,60,"[1440,900]",,,"[""trial_ahead_box""]",,,,,,,,,,,,sandDunes_desert_outdoor.jpg,space,0.281195,[-0.00024305555555555555],[-0.29313368055555555],[1],[0],[0],[0.14601999998558313],"[""trial_ahead_box""]",0,77,77,84,1,readingroom5.jpg,sidewalk2.jpg,restaurant13.jpg,rooftop2.jpg,,
Image_List_4,,,,,,,,,,,,,,,,44517,2020-11-23_10h10.03.479,lingCatScenes,2020.1.3,MacIntel,60,"[1440,900]",,,"[""trial_ahead_box""]",,,,,,,,,,,,liquorstore.jpg,space,0.232225,[-0.00024305555555555555],[-0.29313368055555555],[1],[0],[0],[0.10051499999826774],"[""trial_ahead_box""]",0,78,78,66,1,library_aisle10.jpg,office3.jpg,laundromat3.jpg,horsebarn9.jpg,,
Image_List_4,,,,,,,,,,,,,,,,44517,2020-11-23_10h10.03.479,lingCatScenes,2020.1.3,MacIntel,60,"[1440,900]",,,"[""trial_ahead_box""]",,,,,,,,,,,,ticket_counter6.jpg,space,0.302155,[-0.00024305555555555555],[-0.29313368055555555],[1],[0],[0],[0.13008500001160428],"[""trial_ahead_box""]",0,79,79,91,1,shoestore2.jpg,trainStation5.jpg,skatepark5.jpg,sidewalk3.jpg,,
Image_List_4,,,,,,,,,,,,,,,,44517,2020-11-23_10h10.03.479,lingCatScenes,2020.1.3,MacIntel,60,"[1440,900]",,,"[""trial_ahead_box""]",,,,,,,,,,,,fountain7.jpg,space,0.247505,[-0.00024305555555555555],[-0.29313368055555555],[1],[0],[0],[0.07764999999199063],"[""trial_ahead_box""]",0,80,80,47,1,frontDoor.jpg,gasstation8.jpg,firestation4.jpg,elevatorOutside2.jpg,,
Image_List_4,,,,,,,,,,,,,,,,44517,2020-11-23_10h10.03.479,lingCatScenes,2020.1.3,MacIntel,60,"[1440,900]",,,[],,,,,,,,,,,,labClass7.jpg,space,0.29471,"[-0.00024305555555555555,-0.00024305555555555555]","[-0.29313368055555555,-0.29313368055555555]","[1,1]","[0,0]","[0,0]","[0.04790499998489395,0.31254999997327104]","[""trial_ahead_box"",""trial_ahead_box""]",0,81,81,65,1,igloo5.jpg,newsstand7.jpg,laundromat2.jpeg,homeoffice8.jpg,,
Image_List_4,,,,,,,,,,,,,,,,44517,2020-11-23_10h10.03.479,lingCatScenes,2020.1.3,MacIntel,60,"[1440,900]",,,[],,,,,,,,,,,,dentist4.jpg,space,0.303445,[-0.00024305555555555555],[-0.29313368055555555],[1],[0],[0],[0.19317499996395782],"[""trial_ahead_box""]",0,82,82,32,1,dancestudio6.jpg,diner12.jpg,constructionSite2.jpg,cabin4.jpg,,
Image_List_4,,,,,,,,,,,,,,,,44517,2020-11-23_10h10.03.479,lingCatScenes,2020.1.3,MacIntel,60,"[1440,900]",,,"[""trial_ahead_box""]",,,,,,,,,,,,dugout1.jpg,space,0.26925,[-0.00024305555555555555],[-0.29313368055555555],[1],[0],[0],[0.1279699999722652],"[""trial_ahead_box""]",0,83,83,40,1,drycleaners4.jpg,farm1.jpg,drymountains.jpg,clothingstore3.jpg,,
Image_List_4,,,,,,,,,,,,,,,,44517,2020-11-23_10h10.03.479,lingCatScenes,2020.1.3,MacIntel,60,"[1440,900]",,,"[""trial_ahead_box""]",,,,,,,,,,,,attic4.jpg,space,0.269455,[-0.00024305555555555555],[-0.29313368055555555],[1],[0],[0],[0.08179500000551343],"[""trial_ahead_box""]",0,84,84,5,1,artStudio3.jpg,bambooforest.jpg,auto_showroom4.jpg,amusement3.jpg,,
Image_List_4,,,,,,,,,,,,,,,,44517,2020-11-23_10h10.03.479,lingCatScenes,2020.1.3,MacIntel,60,"[1440,900]",,,[],,,,,,,,,,,,hotelRoom7.jpg,space,0.318405,"[-0.00024305555555555555,-0.00024305555555555555]","[-0.29313368055555555,-0.29313368055555555]","[1,1]","[0,0]","[0,0]","[0.029310000012628734,0.26295499998377636]","[""trial_ahead_box"",""trial_ahead_box""]",0,85,85,55,1,greenmountains.jpg,hotelRoom3.jpg,gazebo5.jpg,frontLawn2.jpg,,
Image_List_4,,,,,,,,,,,,,,,,44517,2020-11-23_10h10.03.479,lingCatScenes,2020.1.3,MacIntel,60,"[1440,900]",,,[],,,,,,,,,,,,drymountains5.jpg,space,0.278965,[-0.00024305555555555555],[-0.29313368055555555],[1],[0],[0],[0.1644899999955669],"[""trial_ahead_box""]",0,86,86,39,1,driveway6.jpg,eyeglassstore9.jpg,drycleaners6.jpg,cliff5.jpg,,
Image_List_4,,,,,,,,,,,,,,,,44517,2020-11-23_10h10.03.479,lingCatScenes,2020.1.3,MacIntel,60,"[1440,900]",,,"[""trial_ahead_box""]",,,,,,,,,,,,closet.jpg,space,0.269315,[-0.00024305555555555555],[-0.29313368055555555],[1],[0],[0],[0.1048200000077486],"[""trial_ahead_box""]",0,87,87,27,1,castle3.jpg,courtroom3.jpg,churchInside4.jpg,brewery2.jpg,,
Image_List_4,,,,,,,,,,,,,,,,44517,2020-11-23_10h10.03.479,lingCatScenes,2020.1.3,MacIntel,60,"[1440,900]",,,"[""trial_ahead_box""]",,,,,,,,,,,,minigolf8.jpg,space,0.23401,[-0.00024305555555555555],[-0.29313368055555555],[1],[0],[0],[0.07876000000396743],"[""trial_ahead_box""]",0,88,88,70,1,lockerroom4.jpg,pavilion.jpg,lockerroom3.jpg,igloo.jpg,,
Image_List_4,,,,,,,,,,,,,,,,44517,2020-11-23_10h10.03.479,lingCatScenes,2020.1.3,MacIntel,60,"[1440,900]",,,[],,,,,,,,,,,,diner11.jpg,space,0.28685,"[-0.00024305555555555555,-0.00024305555555555555]","[-0.29313368055555555,-0.29313368055555555]","[1,1]","[0,0]","[0,0]","[0.05528500000946224,0.3145350000122562]","[""trial_ahead_box"",""trial_ahead_box""]",0,89,89,34,1,deck4.jpg,diningroom5.jpg,courthouse4.jpg,campusquad1.jpg,,
Image_List_4,,,,,,,,,,,,,,,,44517,2020-11-23_10h10.03.479,lingCatScenes,2020.1.3,MacIntel,60,"[1440,900]",,,"[""trial_ahead_box""]",,,,,,,,,,,,hallway2.jpg,space,0.24429,[],[],[],[],[],[],[],0,90,90,50,1,frontLawn4.jpg,grocerystore6.jpg,forestpath6.jpg,fireplace4.jpg,,
Image_List_4,,,,,,,,,,,,,,,,44517,2020-11-23_10h10.03.479,lingCatScenes,2020.1.3,MacIntel,60,"[1440,900]",,,[],,,,,,,,,,,,weightroom.jpg,space,0.349995,"[-0.00024305555555555555,-0.00024305555555555555]","[-0.29313368055555555,-0.29313368055555555]","[1,1]","[0,0]","[0,0]","[0.03681499999947846,0.2523249999503605]","[""trial_ahead_box"",""trial_ahead_box""]",0,91,91,94,1,treehouse.jpg,waitingroom3.jpg,staircase6.jpg,trainStation3.jpg,,
Image_List_4,,,,,,,,,,,,,,,,44517,2020-11-23_10h10.03.479,lingCatScenes,2020.1.3,MacIntel,60,"[1440,900]",,,"[""trial_ahead_box""]",,,,,,,,,,,,fountain4.jpg,space,0.24486,[-0.00024305555555555555],[-0.29313368055555555],[1],[0],[0],[0.11393000005045906],"[""trial_ahead_box""]",0,92,92,46,1,flowershop.jpg,frontLawn5.jpg,farmersmarket4.jpg,dormroom6.jpg,,
Image_List_4,,,,,,,,,,,,,,,,44517,2020-11-23_10h10.03.479,lingCatScenes,2020.1.3,MacIntel,60,"[1440,900]",,,"[""trial_ahead_box""]",,,,,,,,,,,,cave4.jpg,space,0.25267,[-0.00024305555555555555],[-0.29313368055555555],[1],[0],[0],[0.07322000002022833],"[""trial_ahead_box""]",0,93,93,20,1,boardwalk6.jpg,cave.jpg,campsite3.jpg,basketballcourt7.jpg,,
Image_List_4,,,,,,,,,,,,,,,,44517,2020-11-23_10h10.03.479,lingCatScenes,2020.1.3,MacIntel,60,"[1440,900]",,,"[""trial_ahead_box""]",,,,,,,,,,,,foodcourt.jpg,space,0.199675,[-0.00024305555555555555],[-0.29313368055555555],[1],[0],[0],[0.054930000042077154],"[""trial_ahead_box""]",0,94,94,43,1,exerciseequipment5.jpg,forestpath10.jpg,dugout2.jpg,diningroom3.jpg,,
Image_List_4,,,,,,,,,,,,,,,,44517,2020-11-23_10h10.03.479,lingCatScenes,2020.1.3,MacIntel,60,"[1440,900]",,,"[""trial_ahead_box""]",,,,,,,,,,,,baywindow5.jpg,space,0.199505,[-0.00024305555555555555],[-0.29313368055555555],[1],[0],[0],[0.055794999992940575],"[""trial_ahead_box""]",0,95,95,11,1,backyard2.jpg,basketballcourt4.jpg,bambooforest3.jpg,backyard1.jpg,,
Image_List_4,,,,,,,,,,,,,,,,44517,2020-11-23_10h10.03.479,lingCatScenes,2020.1.3,MacIntel,60,"[1440,900]",,,"[""trial_ahead_box""]",,,,,,,,,,,,cave5.jpg,space,0.16495,[-0.00024305555555555555],[-0.29313368055555555],[1],[0],[0],[0.09934499999508262],"[""trial_ahead_box""]",0,96,96,21,1,botanicalGarden6.jpg,cemetery6.jpg,campusquad3.jpg,beach1.jpeg,,
Image_List_4,,,,,,,,,,,,,,,,44517,2020-11-23_10h10.03.479,lingCatScenes,2020.1.3,MacIntel,60,"[1440,900]",,,[],,,,,,,,,,,,bleachers7.jpg,space,0.16099,[-0.00024305555555555555],[-0.29313368055555555],[1],[0],[0],[0.18870500003686175],"[""trial_ahead_box""]",0,97,97,12,1,baggageClaim4.jpg,bedroom6.jpg,bambooforest5.jpg,backyard5.jpg,,
Image_List_4,,,,,,,,,,,,,,,,44517,2020-11-23_10h10.03.479,lingCatScenes,2020.1.3,MacIntel,60,"[1440,900]",,,"[""trial_ahead_box""]",,,,,,,,,,,,campusquad4.jpg,space,0.151065,[],[],[],[],[],[],[],0,98,98,16,1,basement.jpg,cafeteria6.jpg,breakroom2.jpg,barbershop2.jpg,,
Image_List_4,,,,,,,,,,,,,,,,44517,2020-11-23_10h10.03.479,lingCatScenes,2020.1.3,MacIntel,60,"[1440,900]",,,"[""trial_ahead_box""]",,,,,,,,,,,,soccerfield.jpg,space,0.13643,[-0.00024305555555555555],[-0.29313368055555555],[1],[0],[0],[0.026305000006686896],"[""trial_ahead_box""]",0,99,99,88,1,rooftop1.jpg,track.jpg,sculpturegarden4.jpg,sandbox.jpg,,
Image_List_4,,,,,,,,,,,,,,,,44517,2020-11-23_10h10.03.479,lingCatScenes,2020.1.3,MacIntel,60,,,,,,,,,,,,,,,,,,,,,,,,,,,,,,,,,,,space,0.18442
