image_list,key_resp_intructions.keys,key_resp_intructions.rt,key_resp_intructions_3.keys,key_resp_intructions_3.rt,PracticeComplete_2.keys,PracticeComplete_2.rt,PracticeComplete_3.keys,PracticeComplete_3.rt,demo_trials.thisRepN,demo_trials.thisTrialN,demo_trials.thisN,demo_trials.thisIndex,demo_trials.ran,demo_images,path_images,participant,date,expName,psychopyVersion,OS,frameRate,windowSize,drawing,numDrawings,drawingSizes,practice_complete.keys,practice_complete.rt,PracticeComplete.keys,PracticeComplete.rt,practice_trials.thisRepN,practice_trials.thisTrialN,practice_trials.thisN,practice_trials.thisIndex,practice_trials.ran,practice_images,feedback_images,key_resp_intructions_2.keys,key_resp_intructions_2.rt,Image_List_1,trial_complete.keys,trial_complete.rt,trials.thisRepN,trials.thisTrialN,trials.thisN,trials.thisIndex,trials.ran,Image_List_2,Image_List_3,Image_List_4,Image_List_5,key_resp.keys,key_resp.rt
Image_List_1,space,18.789715,space,1.52791,space,5.942985,space,1.896455,0,0,0,1,1,ahead_left.jpg,ahead_left_path.jpg,44526,2020-11-18_09h48.38.551,analogCatScenes,2020.1.3,MacIntel,60,,,,,,,,,,,,,,,,,,,,,,,,,,,,,,,
Image_List_1,,,,,space,1.58175,space,2.16203,0,1,1,3,1,ahead_right_left.jpg,ahead_right_left_path.jpg,44526,2020-11-18_09h48.38.551,analogCatScenes,2020.1.3,MacIntel,60,,,,,,,,,,,,,,,,,,,,,,,,,,,,,,,
Image_List_1,,,,,space,1.16499,space,0.946825,0,2,2,5,1,right.jpg,right_path.jpg,44526,2020-11-18_09h48.38.551,analogCatScenes,2020.1.3,MacIntel,60,,,,,,,,,,,,,,,,,,,,,,,,,,,,,,,
Image_List_1,,,,,space,0.62798,space,0.60789,0,3,3,0,1,ahead.jpg,ahead_path.jpg,44526,2020-11-18_09h48.38.551,analogCatScenes,2020.1.3,MacIntel,60,,,,,,,,,,,,,,,,,,,,,,,,,,,,,,,
Image_List_1,,,,,space,0.68465,space,0.63564,0,4,4,6,1,right_left.jpg,right_left_path.jpg,44526,2020-11-18_09h48.38.551,analogCatScenes,2020.1.3,MacIntel,60,,,,,,,,,,,,,,,,,,,,,,,,,,,,,,,
Image_List_1,,,,,space,0.462215,space,0.544175,0,5,5,4,1,left.jpg,left_path.jpg,44526,2020-11-18_09h48.38.551,analogCatScenes,2020.1.3,MacIntel,60,,,,,,,,,,,,,,,,,,,,,,,,,,,,,,,
Image_List_1,,,,,space,0.98499,space,0.45106,0,6,6,2,1,ahead_right.jpg,ahead_right_path.jpg,44526,2020-11-18_09h48.38.551,analogCatScenes,2020.1.3,MacIntel,60,,,,,,,,,,,,,,,,,,,,,,,,,,,,,,,
Image_List_1,,,,,,,,,,,,,,,,44526,2020-11-18_09h48.38.551,analogCatScenes,2020.1.3,MacIntel,60,"[1280,800]","[[[0.003505859375,-0.18951171875],[0.003505859375,-0.18951171875],[0.003505859375,-0.18951171875],[0.003505859375,-0.18951171875],[0.003505859375,-0.18951171875],[0.003505859375,-0.18951171875],[0.003505859375,-0.18951171875],[0.003505859375,-0.18951171875],[0.003505859375,-0.18951171875],[0.003505859375,-0.18951171875],[0.003505859375,-0.18951171875],[0.003505859375,-0.18951171875],[0.003505859375,-0.18951171875],[0.003505859375,-0.188330078125],[0.003505859375,-0.1857373046875],[0.003505859375,-0.1822021484375],[0.003505859375,-0.1741064453125],[0.003505859375,-0.1594384765625],[0.003076171875,-0.1518603515625],[0.0004541015625,-0.1400048828125],[-0.0023046875,-0.1331103515625],[-0.0064013671875,-0.1271630859375],[-0.011416015625,-0.12169921875],[-0.011416015625,-0.12169921875],[-0.011416015625,-0.12169921875],[-0.011416015625,-0.12169921875],[-0.011416015625,-0.1214013671875],[-0.011416015625,-0.1214013671875],[-0.011416015625,-0.1214013671875],[-0.011416015625,-0.1214013671875],[-0.011416015625,-0.1214013671875],[-0.011416015625,-0.1214013671875],[-0.011416015625,-0.1214013671875],[-0.011416015625,-0.1214013671875],[-0.011416015625,-0.1214013671875],[-0.011416015625,-0.1214013671875],[-0.011416015625,-0.1214013671875],[-0.011416015625,-0.1214013671875],[-0.011416015625,-0.1214013671875],[-0.011416015625,-0.1214013671875],[-0.011416015625,-0.1214013671875],[-0.011865234375,-0.1176708984375],[-0.0153125,-0.1088232421875],[-0.0228125,-0.0913525390625],[-0.035927734375,-0.0651318359375],[-0.0486279296875,-0.0460400390625],[-0.0643408203125,-0.02287109375],[-0.0765283203125,-0.00556640625],[-0.092294921875,0.013125],[-0.092294921875,0.013125],[-0.092294921875,0.013125],[-0.092294921875,0.013125],[-0.092294921875,0.013125],[-0.092294921875,0.013125],[-0.092890625,0.013125],[-0.092890625,0.013125],[-0.092890625,0.013125],[-0.092890625,0.013125],[-0.092890625,0.013125],[-0.092890625,0.013125],[-0.092890625,0.013125],[-0.092890625,0.013125],[-0.092890625,0.013125],[-0.0931884765625,0.013125],[-0.1093017578125,0.0219384765625],[-0.1250927734375,0.03447265625],[-0.1424755859375,0.049189453125],[-0.1632177734375,0.06572265625],[-0.1805419921875,0.0797021484375],[-0.1976611328125,0.0941748046875],[-0.2062841796875,0.1010595703125],[-0.213779296875,0.1073046875],[-0.213779296875,0.1073046875],[-0.213779296875,0.1073046875],[-0.213779296875,0.1073046875],[-0.213779296875,0.1073046875],[-0.2143798828125,0.1073046875],[-0.2143798828125,0.1073046875],[-0.2143798828125,0.1073046875],[-0.2143798828125,0.1073046875],[-0.2143798828125,0.1073046875],[-0.2143798828125,0.1073046875],[-0.2143798828125,0.1073046875],[-0.2143798828125,0.1073046875],[-0.2143798828125,0.1073046875],[-0.2143798828125,0.1073046875],[-0.2143798828125,0.1073046875],[-0.2143798828125,0.1073046875],[-0.214677734375,0.1073046875],[-0.218828125,0.1098193359375],[-0.2248095703125,0.1144091796875],[-0.2309326171875,0.11958984375],[-0.2375537109375,0.124443359375],[-0.2442626953125,0.1297314453125],[-0.24853515625,0.1327099609375],[-0.2513720703125,0.1344921875],[-0.251689453125,0.1348095703125],[-0.251689453125,0.1354443359375],[-0.251689453125,0.136845703125],[-0.251689453125,0.136845703125]],[[0.0011181640625,-0.206865234375],[0.0011181640625,-0.206865234375],[0.0011181640625,-0.206865234375],[0.0011181640625,-0.206865234375],[0.0011181640625,-0.206865234375],[0.0011181640625,-0.206865234375],[0.0011181640625,-0.206865234375],[0.0011181640625,-0.206865234375],[0.0011181640625,-0.206865234375],[0.0011181640625,-0.206865234375],[0.0011181640625,-0.206865234375],[0.0011181640625,-0.206865234375],[0.0011181640625,-0.2054833984375],[0.0011181640625,-0.2039599609375],[0.000712890625,-0.1999169921875],[-0.0006982421875,-0.1911669921875],[-0.003876953125,-0.174228515625],[-0.003876953125,-0.1717529296875],[-0.00486328125,-0.1629150390625],[-0.006201171875,-0.15671875],[-0.0078564453125,-0.1521630859375],[-0.009375,-0.1490771484375],[-0.0115966796875,-0.1472119140625],[-0.0115966796875,-0.1472119140625],[-0.0115966796875,-0.1472119140625],[-0.0115966796875,-0.1472119140625],[-0.0115966796875,-0.1472119140625],[-0.0115966796875,-0.1472119140625],[-0.0115966796875,-0.1472119140625],[-0.0115966796875,-0.1472119140625],[-0.0115966796875,-0.1472119140625],[-0.0115966796875,-0.1472119140625],[-0.0115966796875,-0.1472119140625],[-0.0115966796875,-0.1472119140625],[-0.0115966796875,-0.1472119140625],[-0.0105859375,-0.1461279296875],[-0.0105859375,-0.1461279296875],[-0.0105859375,-0.1461279296875],[-0.0105859375,-0.1461279296875],[-0.011015625,-0.1429638671875],[-0.014775390625,-0.1359130859375],[-0.0180517578125,-0.1284375],[-0.022841796875,-0.116669921875],[-0.0287548828125,-0.100693359375],[-0.0338916015625,-0.0864697265625],[-0.03876953125,-0.0746044921875],[-0.0446728515625,-0.0612744140625],[-0.0486083984375,-0.052421875],[-0.0486083984375,-0.052421875],[-0.0486083984375,-0.052421875],[-0.0486083984375,-0.052421875],[-0.0486083984375,-0.052421875],[-0.0486083984375,-0.052421875],[-0.0486083984375,-0.052421875],[-0.0486083984375,-0.052421875],[-0.0486083984375,-0.052421875],[-0.0486083984375,-0.052421875],[-0.0486083984375,-0.052421875],[-0.0486083984375,-0.052421875],[-0.0486083984375,-0.052421875],[-0.0486083984375,-0.052421875],[-0.0486083984375,-0.052421875],[-0.0486083984375,-0.052421875],[-0.0486083984375,-0.052421875],[-0.0486083984375,-0.052421875],[-0.0486083984375,-0.052421875],[-0.0486083984375,-0.052421875],[-0.0486083984375,-0.052421875],[-0.04890625,-0.0521240234375],[-0.052734375,-0.0482958984375],[-0.0567626953125,-0.0433740234375],[-0.0634521484375,-0.03568359375],[-0.0729443359375,-0.025634765625],[-0.082119140625,-0.0164599609375],[-0.087978515625,-0.0106005859375],[-0.0935498046875,-0.005029296875],[-0.096240234375,-0.0027880859375],[-0.096240234375,-0.0027880859375],[-0.096240234375,-0.0027880859375],[-0.096240234375,-0.0027880859375],[-0.096240234375,-0.0027880859375],[-0.096240234375,-0.0027880859375],[-0.096240234375,-0.0027880859375],[-0.096240234375,-0.0027880859375],[-0.096240234375,-0.0027880859375],[-0.096240234375,-0.0027880859375],[-0.096240234375,-0.0027880859375],[-0.096240234375,-0.0027880859375],[-0.096240234375,-0.0027880859375],[-0.096240234375,-0.0027880859375],[-0.096240234375,-0.0027880859375],[-0.096240234375,-0.0027880859375],[-0.096240234375,-0.0027880859375],[-0.096240234375,-0.0027880859375],[-0.0965380859375,-0.0027880859375],[-0.1007861328125,0.0006103515625],[-0.105849609375,0.006123046875],[-0.11150390625,0.01224609375],[-0.1219384765625,0.0238330078125],[-0.132265625,0.0353662109375],[-0.1391943359375,0.0432958984375],[-0.14623046875,0.050302734375],[-0.1529296875,0.0580029296875],[-0.1551708984375,0.060244140625],[-0.1551708984375,0.060244140625],[-0.1551708984375,0.060244140625],[-0.1551708984375,0.060244140625],[-0.1551708984375,0.060244140625],[-0.1551708984375,0.060244140625],[-0.1551708984375,0.060244140625],[-0.1551708984375,0.060244140625],[-0.1551708984375,0.060244140625],[-0.1551708984375,0.060244140625],[-0.1551708984375,0.060244140625],[-0.1551708984375,0.060244140625],[-0.1551708984375,0.060244140625],[-0.1551708984375,0.060244140625],[-0.1551708984375,0.060244140625],[-0.1551708984375,0.060244140625],[-0.1551708984375,0.060244140625],[-0.1551708984375,0.060244140625],[-0.1551708984375,0.060244140625],[-0.159150390625,0.0611279296875],[-0.1659619140625,0.06431640625],[-0.1735888671875,0.06861328125],[-0.191318359375,0.07912109375],[-0.1995263671875,0.084775390625],[-0.2084619140625,0.0916162109375],[-0.2144384765625,0.096201171875],[-0.2182958984375,0.10005859375],[-0.22259765625,0.1043994140625],[-0.22259765625,0.1043994140625],[-0.22259765625,0.1043994140625],[-0.22259765625,0.1043994140625],[-0.22259765625,0.1043994140625],[-0.22259765625,0.1043994140625],[-0.22259765625,0.1043994140625],[-0.22259765625,0.1043994140625],[-0.22259765625,0.1043994140625],[-0.22259765625,0.1043994140625],[-0.22259765625,0.1043994140625],[-0.22259765625,0.1043994140625],[-0.22259765625,0.1043994140625],[-0.22259765625,0.1043994140625],[-0.22259765625,0.1043994140625],[-0.22259765625,0.1043994140625],[-0.22259765625,0.1043994140625],[-0.22259765625,0.1043994140625],[-0.22259765625,0.1043994140625],[-0.22259765625,0.1043994140625],[-0.22259765625,0.1043994140625],[-0.22259765625,0.1043994140625],[-0.22259765625,0.1043994140625],[-0.22259765625,0.104990234375],[-0.22259765625,0.104990234375],[-0.22259765625,0.104990234375],[-0.22259765625,0.104990234375],[-0.22259765625,0.104990234375],[-0.2229833984375,0.10681640625],[-0.2254150390625,0.110048828125],[-0.2285107421875,0.1149560546875],[-0.2314990234375,0.119228515625],[-0.2351513671875,0.12474609375],[-0.2375830078125,0.1287890625],[-0.239521484375,0.1314892578125],[-0.24091796875,0.1332470703125],[-0.2412353515625,0.1338818359375],[-0.2418603515625,0.1338818359375],[-0.2418603515625,0.1338818359375],[-0.2418603515625,0.1338818359375]]]",2,"[100,170]",space,19.927015,space,1.244095,0,0,0,4,1,left_2.jpg,left_2_path.jpg,,,,,,,,,,,,,,,,
Image_List_1,,,,,,,,,,,,,,,,44526,2020-11-18_09h48.38.551,analogCatScenes,2020.1.3,MacIntel,60,"[1280,800]","[[[-0.007666015625,-0.1895849609375],[-0.007666015625,-0.1895849609375],[-0.007666015625,-0.1895849609375],[-0.007666015625,-0.1895849609375],[-0.007666015625,-0.1895849609375],[-0.007666015625,-0.1895849609375],[-0.007666015625,-0.1895849609375],[-0.007666015625,-0.1895849609375],[-0.007666015625,-0.1895849609375],[-0.007666015625,-0.1895849609375],[-0.007666015625,-0.1895849609375],[-0.007666015625,-0.188994140625],[-0.0085498046875,-0.184375],[-0.013447265625,-0.171845703125],[-0.0250732421875,-0.14248046875],[-0.0311328125,-0.1273291015625],[-0.050458984375,-0.0857275390625],[-0.0592919921875,-0.06806640625],[-0.0655419921875,-0.05603515625],[-0.0726904296875,-0.0405029296875],[-0.0726904296875,-0.0405029296875],[-0.0726904296875,-0.0405029296875],[-0.0726904296875,-0.0405029296875],[-0.0726904296875,-0.0405029296875],[-0.0726904296875,-0.0405029296875],[-0.0726904296875,-0.0405029296875],[-0.0726904296875,-0.0405029296875],[-0.0726904296875,-0.0405029296875],[-0.0726904296875,-0.0405029296875],[-0.0726904296875,-0.0405029296875],[-0.0726904296875,-0.0405029296875],[-0.0726904296875,-0.0405029296875],[-0.0726904296875,-0.0405029296875],[-0.0726904296875,-0.0405029296875],[-0.0726904296875,-0.0405029296875],[-0.0726904296875,-0.0405029296875],[-0.0726904296875,-0.03931640625],[-0.0763330078125,-0.0329296875],[-0.0834326171875,-0.0186083984375],[-0.094345703125,0.003154296875],[-0.1125341796875,0.0445556640625],[-0.12314453125,0.0742138671875],[-0.1356103515625,0.107734375],[-0.142109375,0.1285009765625],[-0.1485693359375,0.148359375],[-0.153095703125,0.16166015625],[-0.1541259765625,0.1668017578125],[-0.1541259765625,0.1668017578125],[-0.1541259765625,0.1668017578125],[-0.1541259765625,0.1668017578125],[-0.1541259765625,0.1668017578125],[-0.1541259765625,0.1668017578125],[-0.1541259765625,0.1668017578125],[-0.1541259765625,0.1668017578125],[-0.1541259765625,0.1668017578125],[-0.1541259765625,0.1668017578125]],[[0.005546875,-0.198369140625],[0.005546875,-0.198369140625],[0.005546875,-0.198369140625],[0.005546875,-0.198369140625],[0.005546875,-0.198369140625],[0.005546875,-0.198369140625],[0.005546875,-0.198369140625],[0.005546875,-0.198369140625],[0.005546875,-0.198369140625],[0.005546875,-0.198369140625],[0.005546875,-0.1960498046875],[0.00822265625,-0.1886767578125],[0.0130615234375,-0.1773974609375],[0.019814453125,-0.1602197265625],[0.0271630859375,-0.1374951171875],[0.031728515625,-0.118359375],[0.036337890625,-0.0966455078125],[0.0422265625,-0.0681787109375],[0.04703125,-0.043427734375],[0.04703125,-0.043427734375],[0.04703125,-0.043427734375],[0.04703125,-0.043427734375],[0.04703125,-0.0431298828125],[0.04703125,-0.0431298828125],[0.04703125,-0.0431298828125],[0.04703125,-0.0431298828125],[0.04703125,-0.0434228515625],[0.04734375,-0.0440478515625],[0.04734375,-0.0446728515625],[0.04734375,-0.0449755859375],[0.04734375,-0.0452880859375],[0.04734375,-0.0455908203125],[0.04734375,-0.0455908203125],[0.04734375,-0.0455908203125],[0.04734375,-0.0455908203125],[0.04734375,-0.0401513671875],[0.0526708984375,-0.0241748046875],[0.0591748046875,-0.0026171875],[0.0682958984375,0.0294384765625],[0.0791357421875,0.0711962890625],[0.0893505859375,0.114658203125],[0.0893505859375,0.114658203125],[0.0893505859375,0.114658203125],[0.0893505859375,0.114658203125],[0.0893505859375,0.114658203125],[0.0893505859375,0.114658203125],[0.0893505859375,0.114658203125],[0.0893505859375,0.114658203125],[0.0893505859375,0.114658203125],[0.0893505859375,0.114658203125],[0.0893505859375,0.114658203125],[0.0893505859375,0.114658203125],[0.0893505859375,0.114658203125],[0.0893505859375,0.114658203125],[0.0893505859375,0.114658203125],[0.0893505859375,0.114658203125],[0.0893505859375,0.114658203125],[0.0893505859375,0.114658203125],[0.0893505859375,0.114658203125],[0.0893505859375,0.114658203125],[0.0893505859375,0.114658203125],[0.0893505859375,0.114658203125],[0.0893505859375,0.114658203125],[0.0893505859375,0.114658203125],[0.0893505859375,0.114658203125],[0.0893505859375,0.114658203125],[0.0893505859375,0.114658203125],[0.0893505859375,0.114658203125],[0.0893505859375,0.114658203125],[0.0893505859375,0.117490234375],[0.0913330078125,0.1257568359375],[0.101484375,0.153212890625],[0.106337890625,0.165703125],[0.11810546875,0.19501953125],[0.1265673828125,0.2152099609375],[0.1339208984375,0.2317822265625],[0.1389404296875,0.244619140625],[0.141728515625,0.2507568359375],[0.141728515625,0.2507568359375],[0.141728515625,0.2507568359375],[0.141728515625,0.2507568359375],[0.141728515625,0.2507568359375],[0.141728515625,0.2507568359375],[0.141728515625,0.2507568359375],[0.141728515625,0.2507568359375],[0.141728515625,0.2507568359375],[0.141728515625,0.2507568359375]]]",2,"[56,87]",space,7.617995,space,1.34879,0,1,1,6,1,right_left_2.jpg,right_left_2_path.jpg,,,,,,,,,,,,,,,,
Image_List_1,,,,,,,,,,,,,,,,44526,2020-11-18_09h48.38.551,analogCatScenes,2020.1.3,MacIntel,60,"[1280,800]","[[[0.009384765625,-0.1994580078125],[0.009384765625,-0.1994580078125],[0.009384765625,-0.1994580078125],[0.009384765625,-0.1994580078125],[0.009384765625,-0.1994580078125],[0.009384765625,-0.1994580078125],[0.009384765625,-0.1994580078125],[0.009384765625,-0.1994580078125],[0.009384765625,-0.1994580078125],[0.009384765625,-0.1994580078125],[0.009384765625,-0.1994580078125],[0.009384765625,-0.1994580078125],[0.012451171875,-0.1975634765625],[0.01966796875,-0.19322265625],[0.0419775390625,-0.179853515625],[0.06384765625,-0.16953125],[0.0933837890625,-0.159169921875],[0.1091943359375,-0.15505859375],[0.12166015625,-0.1523388671875],[0.1326513671875,-0.14970703125],[0.1414990234375,-0.1472412109375],[0.149677734375,-0.1462548828125],[0.149677734375,-0.1462548828125],[0.149677734375,-0.1462548828125],[0.149677734375,-0.1462548828125],[0.149677734375,-0.1462548828125],[0.149970703125,-0.1462548828125],[0.149970703125,-0.1462548828125],[0.149970703125,-0.1462548828125],[0.149970703125,-0.1462548828125],[0.149970703125,-0.1462548828125],[0.149970703125,-0.1462548828125],[0.149970703125,-0.1462548828125],[0.149970703125,-0.1462548828125],[0.149970703125,-0.1462548828125],[0.149970703125,-0.1462548828125],[0.149970703125,-0.1462548828125],[0.149970703125,-0.1462548828125],[0.149970703125,-0.1462548828125],[0.149970703125,-0.1462548828125],[0.149970703125,-0.1462548828125],[0.149970703125,-0.1462548828125],[0.149970703125,-0.1462548828125],[0.149970703125,-0.14595703125],[0.152119140625,-0.1417724609375],[0.1759228515625,-0.117392578125],[0.1863525390625,-0.1090478515625],[0.1970458984375,-0.10048828125],[0.2110205078125,-0.0901171875],[0.2248193359375,-0.081865234375],[0.2294970703125,-0.0788720703125],[0.2316796875,-0.0777734375],[0.232666015625,-0.0774560546875],[0.232978515625,-0.0774560546875],[0.232978515625,-0.0774560546875],[0.232978515625,-0.0774560546875],[0.232978515625,-0.0774560546875],[0.232978515625,-0.0774560546875]],[[-0.0000634765625,-0.1996142578125],[-0.0000634765625,-0.1996142578125],[-0.0000634765625,-0.1996142578125],[-0.0000634765625,-0.1996142578125],[-0.0000634765625,-0.1996142578125],[-0.0000634765625,-0.1996142578125],[-0.0000634765625,-0.1996142578125],[-0.0000634765625,-0.1996142578125],[-0.0000634765625,-0.1996142578125],[-0.0000634765625,-0.1996142578125],[-0.0000634765625,-0.1996142578125],[-0.0000634765625,-0.1996142578125],[-0.0000634765625,-0.1996142578125],[-0.0000634765625,-0.1996142578125],[-0.0000634765625,-0.19529296875],[-0.0020263671875,-0.175888671875],[-0.0058837890625,-0.1428564453125],[-0.0104345703125,-0.091650390625],[-0.0134716796875,-0.0274072265625],[-0.0144775390625,0.018154296875],[-0.0144775390625,0.0437353515625],[-0.0144775390625,0.0437353515625],[-0.0144775390625,0.0437353515625],[-0.0144775390625,0.0437353515625],[-0.0144775390625,0.044033203125],[-0.0144775390625,0.044033203125],[-0.0144775390625,0.044033203125],[-0.0144775390625,0.044033203125],[-0.0144775390625,0.044033203125],[-0.0144775390625,0.044033203125],[-0.0144775390625,0.044033203125],[-0.0144775390625,0.043740234375],[-0.0144775390625,0.0434375],[-0.0144775390625,0.0431396484375],[-0.0144775390625,0.0431396484375],[-0.0144775390625,0.0431396484375],[-0.0144775390625,0.042841796875],[-0.0144775390625,0.042841796875],[-0.0144775390625,0.0425439453125],[-0.0144775390625,0.0425439453125],[-0.0144775390625,0.0425439453125],[-0.0144775390625,0.0425439453125],[-0.0144775390625,0.0425439453125],[-0.0144775390625,0.0425439453125],[-0.0144775390625,0.0425439453125],[-0.0144775390625,0.0425439453125],[-0.0144775390625,0.0451611328125],[-0.0158056640625,0.0508544921875],[-0.01759765625,0.057119140625],[-0.021416015625,0.069716796875],[-0.0244580078125,0.07875],[-0.027890625,0.0875732421875],[-0.029638671875,0.093251953125],[-0.0307666015625,0.0958642578125],[-0.0314453125,0.097265625],[-0.0317626953125,0.0975830078125],[-0.0317626953125,0.0975830078125],[-0.0320654296875,0.0975830078125],[-0.0320654296875,0.0975830078125],[-0.0320654296875,0.0975830078125]]]",2,"[58,60]",space,14.18285,space,0.700585,0,2,2,2,1,ahead_right_2.jpg,ahead_right_2_path.jpg,,,,,,,,,,,,,,,,
Image_List_1,,,,,,,,,,,,,,,,44526,2020-11-18_09h48.38.551,analogCatScenes,2020.1.3,MacIntel,60,"[1280,800]","[[[-0.0041943359375,-0.194697265625],[-0.0041943359375,-0.194697265625],[-0.0041943359375,-0.194697265625],[-0.0041943359375,-0.194697265625],[-0.0041943359375,-0.194697265625],[-0.0041943359375,-0.194697265625],[-0.0041943359375,-0.194697265625],[-0.0041943359375,-0.1943994140625],[-0.0041943359375,-0.1912939453125],[-0.0041943359375,-0.1877587890625],[-0.0041943359375,-0.1821337890625],[-0.0041943359375,-0.1643359375],[-0.0041943359375,-0.1436572265625],[-0.0041943359375,-0.0805615234375],[-0.0041943359375,-0.0285595703125],[-0.0041943359375,0.012626953125],[-0.0041943359375,0.057763671875],[0.0024853515625,0.0897607421875],[0.0024853515625,0.0897607421875],[0.0024853515625,0.0897607421875],[0.0024853515625,0.0897607421875],[0.0024853515625,0.0897607421875],[0.0024853515625,0.0897607421875],[0.0024853515625,0.0897607421875],[0.0024853515625,0.0897607421875],[0.0024853515625,0.0897607421875],[0.0024853515625,0.0897607421875],[0.0024853515625,0.0897607421875],[0.0024853515625,0.0897607421875],[0.0024853515625,0.0897607421875],[0.0024853515625,0.0897607421875],[0.0024853515625,0.0897607421875],[0.0024853515625,0.0897607421875],[0.0024853515625,0.0897607421875],[0.0024853515625,0.0897607421875],[0.0024853515625,0.0897607421875],[0.0024853515625,0.0897607421875],[0.0024853515625,0.0897607421875],[0.0024853515625,0.0897607421875],[0.0024853515625,0.0897607421875],[0.0024853515625,0.0897607421875],[0.0021875,0.0897607421875],[0.0021875,0.0897607421875],[0.0021875,0.0897607421875],[0.0021875,0.0897607421875],[0.0021875,0.0897607421875],[0.0021875,0.0897607421875],[0.0021875,0.0897607421875],[0.0021875,0.0897607421875]]]",1,[49],space,3.159535,space,0.643165,0,3,3,0,1,ahead_2.jpg,ahead_2_path.jpg,,,,,,,,,,,,,,,,
Image_List_1,,,,,,,,,,,,,,,,44526,2020-11-18_09h48.38.551,analogCatScenes,2020.1.3,MacIntel,60,"[1280,800]","[[[0.003525390625,-0.1889697265625],[0.003525390625,-0.1889697265625],[0.003525390625,-0.1889697265625],[0.003525390625,-0.1889697265625],[0.003525390625,-0.1889697265625],[0.003525390625,-0.1889697265625],[0.003525390625,-0.1889697265625],[0.003525390625,-0.1889697265625],[0.003525390625,-0.185],[0.008544921875,-0.17599609375],[0.030576171875,-0.1486083984375],[0.0436328125,-0.1331005859375],[0.0896044921875,-0.0773779296875],[0.1089501953125,-0.0511279296875],[0.1252587890625,-0.03240234375],[0.14392578125,-0.01505859375],[0.1583740234375,-0.0053759765625],[0.1706396484375,0.0007666015625],[0.17265625,0.0007666015625],[0.17265625,0.0007666015625],[0.17265625,0.0007666015625],[0.17265625,0.0007666015625],[0.17265625,0.0007666015625],[0.17265625,0.0007666015625],[0.17265625,0.0007666015625],[0.17265625,0.0007666015625],[0.17265625,0.0007666015625],[0.17265625,0.0007666015625],[0.17265625,0.0007666015625],[0.17265625,0.0007666015625],[0.17265625,0.0004736328125],[0.17265625,0.0001708984375],[0.17265625,-0.0001318359375],[0.17265625,-0.0004345703125],[0.17265625,-0.0004345703125],[0.17265625,-0.0004345703125],[0.17265625,-0.0004345703125],[0.17265625,-0.0004345703125],[0.17265625,-0.0004345703125],[0.17265625,-0.0004345703125],[0.17265625,-0.0004345703125],[0.17265625,-0.0004345703125],[0.17265625,-0.0004345703125],[0.17265625,-0.0004345703125],[0.17265625,-0.0004345703125],[0.17265625,-0.0004345703125],[0.17265625,-0.0004345703125],[0.17265625,-0.0004345703125],[0.17265625,-0.0004345703125],[0.17265625,-0.0004345703125],[0.17265625,-0.0004345703125],[0.17265625,-0.0004345703125],[0.17265625,-0.0004345703125],[0.17265625,-0.0004345703125],[0.17265625,-0.0004345703125],[0.17265625,-0.0004345703125],[0.17265625,-0.0004345703125],[0.17265625,-0.0004345703125],[0.17265625,-0.0004345703125],[0.1812109375,0.0011083984375],[0.196298828125,0.0057421875],[0.217890625,0.0109765625],[0.24498046875,0.016689453125],[0.2560986328125,0.0187939453125],[0.271220703125,0.0211181640625],[0.2794873046875,0.02259765625],[0.283564453125,0.02259765625],[0.285712890625,0.02259765625],[0.2867919921875,0.02259765625],[0.2867919921875,0.02259765625],[0.2867919921875,0.02259765625],[0.2867919921875,0.02259765625]]]",1,[72],space,3.731,space,0.879665,0,4,4,5,1,right_2.jpg,right_2_path.jpg,,,,,,,,,,,,,,,,
Image_List_1,,,,,,,,,,,,,,,,44526,2020-11-18_09h48.38.551,analogCatScenes,2020.1.3,MacIntel,60,"[1280,800]","[[[-0.000791015625,-0.196630859375],[-0.000791015625,-0.196630859375],[-0.000791015625,-0.196630859375],[-0.000791015625,-0.196630859375],[-0.000791015625,-0.196630859375],[-0.000791015625,-0.196630859375],[-0.000791015625,-0.196630859375],[-0.000791015625,-0.196630859375],[-0.000791015625,-0.196630859375],[-0.0019775390625,-0.196630859375],[-0.0065576171875,-0.194541015625],[-0.014833984375,-0.191162109375],[-0.031220703125,-0.185615234375],[-0.0596337890625,-0.17751953125],[-0.0797216796875,-0.1742822265625],[-0.102470703125,-0.1730126953125],[-0.1134375,-0.1730126953125],[-0.12029296875,-0.1730126953125],[-0.1238330078125,-0.1730126953125],[-0.1238330078125,-0.1730126953125],[-0.1238330078125,-0.1730126953125],[-0.1238330078125,-0.1730126953125],[-0.1238330078125,-0.1730126953125],[-0.1238330078125,-0.1730126953125],[-0.1238330078125,-0.1730126953125],[-0.1238330078125,-0.1730126953125],[-0.1238330078125,-0.1730126953125],[-0.1238330078125,-0.1730126953125],[-0.1238330078125,-0.1730126953125],[-0.1238330078125,-0.1730126953125],[-0.1238330078125,-0.1730126953125],[-0.1238330078125,-0.1730126953125],[-0.1244287109375,-0.1730126953125],[-0.1326025390625,-0.171064453125],[-0.1454638671875,-0.1660205078125],[-0.1623193359375,-0.16],[-0.1883740234375,-0.1498876953125],[-0.205244140625,-0.143876953125],[-0.22322265625,-0.1386083984375],[-0.2392041015625,-0.134453125],[-0.2486767578125,-0.132939453125],[-0.25376953125,-0.132509765625],[-0.2568115234375,-0.132509765625],[-0.2589794921875,-0.132509765625],[-0.2607373046875,-0.132509765625],[-0.2627685546875,-0.131494140625],[-0.2627685546875,-0.131494140625]],[[-0.0019970703125,-0.188876953125],[-0.0019970703125,-0.188876953125],[-0.0019970703125,-0.188876953125],[-0.0019970703125,-0.188876953125],[-0.0019970703125,-0.188876953125],[-0.0019970703125,-0.188876953125],[-0.0019970703125,-0.188876953125],[-0.0019970703125,-0.188876953125],[-0.0019970703125,-0.188876953125],[-0.0019970703125,-0.1885791015625],[-0.0016455078125,-0.18642578125],[0.01130859375,-0.175234375],[0.0352734375,-0.155029296875],[0.0773779296875,-0.1239453125],[0.1095166015625,-0.102509765625],[0.130703125,-0.0890869140625],[0.144306640625,-0.0815869140625],[0.163408203125,-0.0733642578125],[0.1698486328125,-0.07287109375],[0.1698486328125,-0.07287109375],[0.1698486328125,-0.07287109375],[0.1698486328125,-0.07287109375],[0.1698486328125,-0.07287109375],[0.1698486328125,-0.07287109375],[0.1698486328125,-0.07287109375],[0.1698486328125,-0.07287109375],[0.1698486328125,-0.07287109375],[0.1698486328125,-0.07287109375],[0.1698486328125,-0.07287109375],[0.1698486328125,-0.07287109375],[0.1698486328125,-0.07287109375],[0.1698486328125,-0.0731640625],[0.1698486328125,-0.073466796875],[0.1698486328125,-0.0737646484375],[0.16953125,-0.0737646484375]],[[0.0006201171875,-0.1884814453125],[0.0006201171875,-0.1884814453125],[0.0006201171875,-0.1884814453125],[0.0006201171875,-0.1884814453125],[0.0006201171875,-0.1884814453125],[0.0006201171875,-0.1884814453125],[0.0006201171875,-0.1884814453125],[0.0006201171875,-0.1869921875],[-0.0031396484375,-0.18],[-0.0080322265625,-0.168056640625],[-0.0161181640625,-0.1458544921875],[-0.0306591796875,-0.097548828125],[-0.0364794921875,-0.0791064453125],[-0.0403125,-0.0684130859375],[-0.043203125,-0.06013671875],[-0.044736328125,-0.0570361328125],[-0.045732421875,-0.056376953125],[-0.0460400390625,-0.056376953125],[-0.046357421875,-0.056376953125],[-0.046357421875,-0.056376953125]]]",3,"[47,35,20]",space,5.71732,space,1.152035,0,5,5,3,1,ahead_right_left_2.jpg,ahead_right_left_2_path.jpg,,,,,,,,,,,,,,,,
Image_List_1,,,,,,,,,,,,,,,,44526,2020-11-18_09h48.38.551,analogCatScenes,2020.1.3,MacIntel,60,"[1280,800]","[[[-0.0071728515625,-0.197333984375],[-0.0071728515625,-0.197333984375],[-0.0071728515625,-0.197333984375],[-0.0071728515625,-0.197333984375],[-0.0071728515625,-0.197333984375],[-0.0071728515625,-0.197333984375],[-0.0071728515625,-0.197333984375],[-0.0071728515625,-0.197333984375],[-0.008662109375,-0.197333984375],[-0.023388671875,-0.193671875],[-0.0330859375,-0.1897900390625],[-0.0625439453125,-0.177763671875],[-0.095009765625,-0.1672607421875],[-0.1201953125,-0.161064453125],[-0.140927734375,-0.157763671875],[-0.14962890625,-0.157763671875],[-0.156591796875,-0.157763671875],[-0.160751953125,-0.1602099609375],[-0.1626171875,-0.162421875],[-0.16361328125,-0.163408203125],[-0.164248046875,-0.163720703125],[-0.164248046875,-0.163720703125],[-0.164248046875,-0.163720703125],[-0.164248046875,-0.163720703125],[-0.164248046875,-0.163720703125],[-0.164248046875,-0.163720703125],[-0.164248046875,-0.163720703125],[-0.164248046875,-0.163720703125],[-0.164248046875,-0.163720703125],[-0.164248046875,-0.163720703125],[-0.164248046875,-0.163720703125],[-0.164248046875,-0.163720703125],[-0.164248046875,-0.163720703125],[-0.164248046875,-0.164013671875],[-0.164248046875,-0.164013671875],[-0.164248046875,-0.164013671875],[-0.164248046875,-0.164013671875],[-0.164248046875,-0.164013671875],[-0.164248046875,-0.164013671875],[-0.164248046875,-0.164013671875],[-0.164248046875,-0.164013671875],[-0.164248046875,-0.164013671875],[-0.164248046875,-0.164013671875],[-0.164248046875,-0.164013671875],[-0.164248046875,-0.164013671875],[-0.164248046875,-0.164013671875],[-0.164248046875,-0.164013671875],[-0.164248046875,-0.164013671875]],[[-0.00462890625,-0.19810546875],[-0.00462890625,-0.19810546875],[-0.00462890625,-0.19810546875],[-0.00462890625,-0.19810546875],[-0.00462890625,-0.19810546875],[-0.00462890625,-0.19810546875],[-0.00462890625,-0.19810546875],[-0.00462890625,-0.1946826171875],[-0.00462890625,-0.1864208984375],[-0.00462890625,-0.1606640625],[0.001943359375,-0.0789599609375],[0.0256982421875,0.027265625],[0.0353125,0.140625],[0.043173828125,0.1617529296875],[0.043173828125,0.1617529296875],[0.043173828125,0.1617529296875],[0.043173828125,0.1617529296875],[0.043173828125,0.1617529296875],[0.043173828125,0.1617529296875],[0.043173828125,0.1617529296875],[0.043173828125,0.1617529296875],[0.043173828125,0.1617529296875],[0.043173828125,0.1617529296875],[0.043173828125,0.1617529296875],[0.043173828125,0.1617529296875],[0.043173828125,0.1617529296875],[0.043173828125,0.1617529296875],[0.043173828125,0.1617529296875],[0.043173828125,0.1617529296875],[0.043173828125,0.1617529296875],[0.043173828125,0.1617529296875],[0.043173828125,0.1617529296875],[0.043173828125,0.1617529296875]]]",2,"[48,33]",space,4.41114,space,0.65184,0,6,6,1,1,ahead_left_2.jpg,ahead_left_2_path.jpg,,,,,,,,,,,,,,,,
Image_List_1,,,,,,,,,,,,,,,,44526,2020-11-18_09h48.38.551,analogCatScenes,2020.1.3,MacIntel,60,"[1280,800]","[[[-0.0044091796875,-0.1958349609375],[-0.0044091796875,-0.1958349609375],[-0.0044091796875,-0.1958349609375],[-0.0044091796875,-0.1958349609375],[-0.0044091796875,-0.1958349609375],[-0.0044091796875,-0.1958349609375],[-0.0044091796875,-0.1958349609375],[-0.0044091796875,-0.1958349609375],[-0.0044091796875,-0.1958349609375],[-0.0069091796875,-0.19462890625],[-0.0134716796875,-0.1904150390625],[-0.0491064453125,-0.165986328125],[-0.0885205078125,-0.1405810546875],[-0.1177294921875,-0.1233447265625],[-0.138330078125,-0.1115283203125],[-0.1519482421875,-0.1049365234375],[-0.164052734375,-0.099912109375],[-0.170947265625,-0.0980712890625],[-0.1744970703125,-0.0972802734375],[-0.1744970703125,-0.0972802734375],[-0.1744970703125,-0.0972802734375],[-0.1744970703125,-0.0972802734375],[-0.1744970703125,-0.0972802734375],[-0.1744970703125,-0.0972802734375],[-0.1750927734375,-0.0972802734375],[-0.1750927734375,-0.0966455078125]],[[0.005595703125,-0.197158203125],[0.005595703125,-0.197158203125],[0.005595703125,-0.197158203125],[0.005595703125,-0.197158203125],[0.005595703125,-0.197158203125],[0.005595703125,-0.197158203125],[0.005595703125,-0.197158203125],[0.005595703125,-0.197158203125],[0.005595703125,-0.1957763671875],[0.005595703125,-0.1927197265625],[0.005595703125,-0.1881640625],[0.0103857421875,-0.1769775390625],[0.01931640625,-0.1591650390625],[0.0297314453125,-0.1396142578125],[0.04830078125,-0.10083984375],[0.0588671875,-0.076181640625],[0.0688720703125,-0.0598779296875],[0.07533203125,-0.051474609375],[0.07533203125,-0.051474609375],[0.07533203125,-0.051474609375],[0.07533203125,-0.051474609375],[0.07533203125,-0.051474609375],[0.07533203125,-0.051474609375],[0.07533203125,-0.051474609375],[0.07533203125,-0.051474609375],[0.07533203125,-0.051474609375],[0.07533203125,-0.051474609375],[0.07533203125,-0.051474609375],[0.07533203125,-0.051474609375],[0.07533203125,-0.051474609375],[0.0750341796875,-0.051787109375],[0.0750341796875,-0.05208984375],[0.0750341796875,-0.05208984375],[0.0750341796875,-0.0523876953125],[0.0750341796875,-0.0523876953125],[0.0750341796875,-0.0523876953125]],[[0.0098046875,-0.1910986328125],[0.0098046875,-0.1910986328125],[0.0098046875,-0.1910986328125],[0.0098046875,-0.1910986328125],[0.0098046875,-0.1910986328125],[0.0098046875,-0.1910986328125],[0.0098046875,-0.1910986328125],[0.0098046875,-0.1910986328125],[0.0098046875,-0.1910986328125],[0.010986328125,-0.1910986328125],[0.0231689453125,-0.189892578125],[0.0676953125,-0.185498046875],[0.138662109375,-0.1844921875],[0.226044921875,-0.1867529296875],[0.2609033203125,-0.195546875],[0.27873046875,-0.200498046875],[0.304912109375,-0.2068505859375],[0.304912109375,-0.2068505859375],[0.304912109375,-0.2068505859375],[0.304912109375,-0.2068505859375],[0.304912109375,-0.2068505859375]]]",3,"[26,36,21]",,,,,,,,,,,,space,2.48649,hayfield5.jpg,space,5.636765,0,0,0,57,1,jail1.jpg,hallway4.jpg,hut5.jpg,gazebo.jpg,,
Image_List_1,,,,,,,,,,,,,,,,44526,2020-11-18_09h48.38.551,analogCatScenes,2020.1.3,MacIntel,60,"[1280,800]","[[[0.0011376953125,-0.1938232421875],[0.0011376953125,-0.1938232421875],[0.0011376953125,-0.1938232421875],[0.0011376953125,-0.1938232421875],[0.0011376953125,-0.1938232421875],[0.0011376953125,-0.1938232421875],[0.0011376953125,-0.1938232421875],[0.0011376953125,-0.1938232421875],[-0.001103515625,-0.190693359375],[-0.0105419921875,-0.18185546875],[-0.030419921875,-0.1597509765625],[-0.0588916015625,-0.129609375],[-0.0759765625,-0.1089501953125],[-0.088603515625,-0.0938525390625],[-0.096142578125,-0.0841748046875],[-0.104208984375,-0.0750390625],[-0.104208984375,-0.0750390625],[-0.104208984375,-0.0750390625],[-0.104208984375,-0.0750390625],[-0.104208984375,-0.0750390625],[-0.104208984375,-0.0750390625],[-0.104208984375,-0.0750390625],[-0.104208984375,-0.0750390625],[-0.104208984375,-0.07533203125],[-0.104208984375,-0.07533203125],[-0.104208984375,-0.0756298828125],[-0.104208984375,-0.0756298828125],[-0.104208984375,-0.0756298828125],[-0.103916015625,-0.0756298828125],[-0.103916015625,-0.0756298828125],[-0.103916015625,-0.0756298828125],[-0.103916015625,-0.0756298828125],[-0.103623046875,-0.0756298828125],[-0.103623046875,-0.075927734375],[-0.103623046875,-0.075927734375],[-0.103623046875,-0.075927734375],[-0.103623046875,-0.075927734375],[-0.103623046875,-0.075927734375],[-0.103623046875,-0.075927734375],[-0.103623046875,-0.075927734375],[-0.103623046875,-0.075927734375],[-0.103623046875,-0.075927734375],[-0.103623046875,-0.075927734375],[-0.10791015625,-0.0700146484375],[-0.11490234375,-0.060322265625],[-0.1295166015625,-0.0393359375],[-0.1440771484375,-0.015283203125],[-0.1598046875,0.016962890625],[-0.172529296875,0.0453271484375],[-0.1778173828125,0.0608154296875],[-0.1831005859375,0.0766162109375],[-0.1850341796875,0.0841845703125],[-0.1863916015625,0.0910302734375],[-0.1875390625,0.0956494140625],[-0.187880859375,0.096328125],[-0.188515625,0.096962890625],[-0.188515625,0.096962890625],[-0.188515625,0.096962890625],[-0.188515625,0.096962890625],[-0.188515625,0.096962890625],[-0.188515625,0.096962890625],[-0.188515625,0.096962890625],[-0.188515625,0.096962890625],[-0.188515625,0.096962890625],[-0.188515625,0.096962890625],[-0.188515625,0.096962890625],[-0.188515625,0.096962890625],[-0.188515625,0.096962890625],[-0.188515625,0.096962890625],[-0.188515625,0.096962890625],[-0.188515625,0.096962890625],[-0.188515625,0.096962890625],[-0.188515625,0.096962890625],[-0.1925390625,0.096962890625],[-0.1977880859375,0.1000341796875],[-0.205166015625,0.1054541015625],[-0.2175732421875,0.114921875],[-0.2306982421875,0.12505859375],[-0.243935546875,0.136494140625],[-0.250458984375,0.143017578125],[-0.256220703125,0.149267578125],[-0.2590380859375,0.1524853515625],[-0.2604736328125,0.154638671875],[-0.2614892578125,0.1556494140625],[-0.2614892578125,0.1556494140625]]]",1,[85],,,,,,,,,,,,,,botanicalGarden6.jpg,space,3.450655,0,1,1,21,1,cemetery6.jpg,campusquad3.jpg,cave5.jpg,beach1.jpeg,,
Image_List_1,,,,,,,,,,,,,,,,44526,2020-11-18_09h48.38.551,analogCatScenes,2020.1.3,MacIntel,60,"[1280,800]","[[[-0.0109619140625,-0.2051611328125],[-0.0109619140625,-0.2051611328125],[-0.0109619140625,-0.2051611328125],[-0.0109619140625,-0.2051611328125],[-0.0109619140625,-0.2051611328125],[-0.0109619140625,-0.2051611328125],[-0.0109619140625,-0.2051611328125],[-0.0109619140625,-0.2051611328125],[-0.0109619140625,-0.2051611328125],[-0.0080078125,-0.2030859375],[0.0045458984375,-0.196171875],[0.030732421875,-0.18234375],[0.0726025390625,-0.161376953125],[0.1300439453125,-0.1332177734375],[0.15333984375,-0.1218603515625],[0.1662353515625,-0.1156103515625],[0.17830078125,-0.1111767578125],[0.18287109375,-0.1090869140625],[0.18591796875,-0.108701171875],[0.187265625,-0.108701171875],[0.1883447265625,-0.108701171875],[0.1883447265625,-0.108701171875],[0.1883447265625,-0.108701171875],[0.1883447265625,-0.108701171875]],[[-0.0026806640625,-0.196318359375],[-0.0026806640625,-0.196318359375],[-0.0026806640625,-0.196318359375],[-0.0026806640625,-0.196318359375],[-0.0026806640625,-0.196318359375],[-0.0026806640625,-0.196318359375],[-0.0026806640625,-0.196318359375],[-0.0149169921875,-0.196318359375],[-0.033603515625,-0.196318359375],[-0.06068359375,-0.196318359375],[-0.08861328125,-0.196318359375],[-0.119091796875,-0.196318359375],[-0.1422314453125,-0.1989892578125],[-0.1553564453125,-0.201328125],[-0.1643115234375,-0.2032666015625],[-0.16943359375,-0.204501953125],[-0.170517578125,-0.204501953125],[-0.170517578125,-0.204501953125],[-0.170517578125,-0.204501953125],[-0.170517578125,-0.204501953125],[-0.1708154296875,-0.204501953125],[-0.1708154296875,-0.204501953125],[-0.1708154296875,-0.204501953125],[-0.1708154296875,-0.204501953125],[-0.1708154296875,-0.204501953125],[-0.1708154296875,-0.204501953125],[-0.1708154296875,-0.204501953125],[-0.1708154296875,-0.204501953125],[-0.1708154296875,-0.204501953125],[-0.1708154296875,-0.2042041015625],[-0.1708154296875,-0.2042041015625],[-0.1708154296875,-0.2042041015625],[-0.1708154296875,-0.2042041015625],[-0.1708154296875,-0.2042041015625],[-0.1708154296875,-0.2042041015625],[-0.1708154296875,-0.20390625],[-0.1708154296875,-0.20390625],[-0.1708154296875,-0.20390625],[-0.1723779296875,-0.20390625],[-0.1858203125,-0.201044921875],[-0.204443359375,-0.197314453125],[-0.223173828125,-0.192939453125],[-0.2478466796875,-0.1872998046875],[-0.272763671875,-0.1831494140625],[-0.2834423828125,-0.182119140625],[-0.2915185546875,-0.1816259765625],[-0.295048828125,-0.1816259765625],[-0.2964013671875,-0.1816259765625],[-0.29671875,-0.1816259765625],[-0.29671875,-0.1816259765625],[-0.29671875,-0.1816259765625],[-0.29671875,-0.1816259765625]],[[0.005126953125,-0.19830078125],[0.005126953125,-0.19830078125],[0.005126953125,-0.19830078125],[0.005126953125,-0.19830078125],[0.005126953125,-0.19830078125],[0.005126953125,-0.19830078125],[0.005126953125,-0.19830078125],[0.005126953125,-0.194853515625],[0.005126953125,-0.1880126953125],[0.005126953125,-0.1733349609375],[0.005126953125,-0.1404931640625],[0.0074462890625,-0.051328125],[0.0104638671875,-0.034453125],[0.0138720703125,-0.021416015625],[0.01587890625,-0.0117578125],[0.017041015625,-0.00865234375],[0.0173779296875,-0.0079736328125],[0.0173779296875,-0.0079736328125],[0.0173779296875,-0.0079736328125],[0.0173779296875,-0.0079736328125]]]",3,"[24,52,20]",,,,,,,,,,,,,,readingroom5.jpg,space,5.120185,0,2,2,84,1,sidewalk2.jpg,restaurant13.jpg,sandDunes_desert_outdoor.jpg,rooftop2.jpg,,
Image_List_1,,,,,,,,,,,,,,,,44526,2020-11-18_09h48.38.551,analogCatScenes,2020.1.3,MacIntel,60,"[1280,800]","[[[0.0001123046875,-0.2034912109375],[0.0001123046875,-0.2034912109375],[0.0001123046875,-0.2034912109375],[0.0001123046875,-0.2034912109375],[0.0001123046875,-0.2034912109375],[0.0001123046875,-0.2034912109375],[0.0001123046875,-0.2034912109375],[0.0001123046875,-0.2034912109375],[0.0001123046875,-0.1991650390625],[0.0014501953125,-0.1934765625],[0.0084814453125,-0.1826611328125],[0.0321484375,-0.1508544921875],[0.081728515625,-0.0759814453125],[0.1027978515625,-0.047763671875],[0.151103515625,-0.0006298828125],[0.175029296875,0.0100048828125],[0.175029296875,0.0100048828125],[0.175029296875,0.0100048828125],[0.175029296875,0.0100048828125],[0.175029296875,0.010302734375],[0.175029296875,0.010302734375],[0.175029296875,0.010302734375],[0.175029296875,0.010302734375],[0.175029296875,0.010302734375],[0.175029296875,0.010302734375],[0.175029296875,0.010302734375],[0.175029296875,0.010302734375],[0.175029296875,0.010302734375],[0.175029296875,0.010009765625]]]",1,[29],,,,,,,,,,,,,,warehouse4.jpg,space,3.35109,0,3,3,96,1,warehouseoutside1.jpg,tenniscourt3.jpg,windmill1.jpg,warehouse1.jpg,,
Image_List_1,,,,,,,,,,,,,,,,44526,2020-11-18_09h48.38.551,analogCatScenes,2020.1.3,MacIntel,60,"[1280,800]","[[[0.0051611328125,-0.2014892578125],[0.0051611328125,-0.2014892578125],[0.0051611328125,-0.2014892578125],[0.0051611328125,-0.2014892578125],[0.0051611328125,-0.2014892578125],[0.0051611328125,-0.2014892578125],[0.0051611328125,-0.2014892578125],[0.0051611328125,-0.2014892578125],[0.0051611328125,-0.2014892578125],[0.0051611328125,-0.20119140625],[0.0051611328125,-0.198583984375],[0.0051611328125,-0.1940185546875],[0.0039990234375,-0.18271484375],[0.00228515625,-0.168544921875],[0.000634765625,-0.1565966796875],[-0.0010791015625,-0.1424462890625],[-0.002197265625,-0.130029296875],[-0.00322265625,-0.1198388671875],[-0.00322265625,-0.1134033203125],[-0.00322265625,-0.10654296875],[-0.00322265625,-0.0977294921875],[-0.00322265625,-0.0931787109375],[-0.002822265625,-0.0886279296875],[-0.002041015625,-0.085078125],[-0.001240234375,-0.08103515625],[-0.000478515625,-0.077978515625],[0.000322265625,-0.0739501953125],[0.0011865234375,-0.0681787109375],[0.00251953125,-0.061943359375],[0.00486328125,-0.054423828125],[0.0065625,-0.049267578125],[0.0082470703125,-0.044150390625],[0.009384765625,-0.041103515625],[0.010947265625,-0.0384033203125],[0.01255859375,-0.0371875],[0.01255859375,-0.0371875],[0.01255859375,-0.0371875],[0.01255859375,-0.0371875],[0.01255859375,-0.0371875],[0.0128515625,-0.0371875],[0.0128515625,-0.0371875],[0.0131494140625,-0.0371875],[0.0131494140625,-0.0371875],[0.0131494140625,-0.0371875],[0.0131494140625,-0.0371875],[0.0131494140625,-0.0371875],[0.0131494140625,-0.0371875],[0.0134423828125,-0.0371875],[0.0134423828125,-0.0371875],[0.0134423828125,-0.0371875],[0.0134423828125,-0.0371875],[0.0134423828125,-0.0371875],[0.0134423828125,-0.0371875],[0.0134423828125,-0.0371875],[0.0134423828125,-0.0371875],[0.0134423828125,-0.0371875],[0.0134423828125,-0.0371875],[0.0134423828125,-0.0371875],[0.0134423828125,-0.0371875],[0.0134423828125,-0.0371875],[0.0134423828125,-0.0371875],[0.0134423828125,-0.0371875],[0.0134423828125,-0.0371875],[0.0134423828125,-0.0371875],[0.0134423828125,-0.0371875],[0.0134423828125,-0.0371875],[0.0134423828125,-0.0371875],[0.0134423828125,-0.0371875],[0.0134423828125,-0.0371875],[0.0134423828125,-0.0371875],[0.0134423828125,-0.0371875],[0.0134423828125,-0.0371875],[0.0134423828125,-0.0371875],[0.0134423828125,-0.0371875],[0.0134423828125,-0.0371875],[0.0134423828125,-0.0371875],[0.0134423828125,-0.0371875],[0.0134423828125,-0.0371875],[0.0134423828125,-0.0371875],[0.0134423828125,-0.0371875],[0.0134423828125,-0.0371875],[0.0134423828125,-0.0371875],[0.0134423828125,-0.0371875],[0.0134423828125,-0.0371875],[0.0134423828125,-0.0371875],[0.0134423828125,-0.0371875],[0.0134423828125,-0.0371875],[0.0134423828125,-0.0371875],[0.0134423828125,-0.0371875],[0.0134423828125,-0.0371875],[0.0134423828125,-0.0371875],[0.0134423828125,-0.0371875],[0.0134423828125,-0.0371875],[0.0134423828125,-0.0371875],[0.0134423828125,-0.0371875],[0.0134423828125,-0.0371875],[0.0134423828125,-0.0371875],[0.0134423828125,-0.0371875],[0.0134423828125,-0.0371875],[0.0134423828125,-0.0371875],[0.0134423828125,-0.0371875],[0.0134423828125,-0.0371875],[0.0134423828125,-0.0371875],[0.0134423828125,-0.0371875],[0.0134423828125,-0.0371875],[0.0134423828125,-0.0371875],[0.0134423828125,-0.0371875],[0.0134423828125,-0.0371875]],[[-0.002021484375,-0.1947216796875],[-0.002021484375,-0.1947216796875],[-0.002021484375,-0.1947216796875],[-0.002021484375,-0.1947216796875],[-0.002021484375,-0.1947216796875],[-0.002021484375,-0.1947216796875],[-0.002021484375,-0.1947216796875],[-0.002021484375,-0.1947216796875],[-0.002021484375,-0.1947216796875],[-0.002021484375,-0.19240234375],[-0.0045703125,-0.187275390625],[-0.0101513671875,-0.174375],[-0.0189990234375,-0.1559716796875],[-0.0300439453125,-0.132509765625],[-0.0389306640625,-0.116123046875],[-0.047763671875,-0.099130859375],[-0.052451171875,-0.0901611328125],[-0.0561865234375,-0.0826953125],[-0.05880859375,-0.0770166015625],[-0.0599609375,-0.0739599609375],[-0.0609765625,-0.071884765625],[-0.06197265625,-0.071884765625],[-0.06197265625,-0.071884765625],[-0.06197265625,-0.071884765625],[-0.06197265625,-0.071884765625],[-0.06197265625,-0.071884765625],[-0.06197265625,-0.071884765625],[-0.06197265625,-0.071884765625],[-0.06197265625,-0.071884765625],[-0.06197265625,-0.071884765625],[-0.06197265625,-0.071884765625],[-0.06197265625,-0.071884765625],[-0.06197265625,-0.071884765625],[-0.06197265625,-0.071884765625],[-0.06197265625,-0.071884765625],[-0.06197265625,-0.071884765625],[-0.06197265625,-0.071884765625],[-0.0663037109375,-0.06814453125],[-0.0727880859375,-0.0606689453125],[-0.0789599609375,-0.0524462890625],[-0.08392578125,-0.0450439453125],[-0.0888037109375,-0.0377294921875],[-0.0929443359375,-0.031748046875],[-0.0953662109375,-0.0285400390625],[-0.0963623046875,-0.0275439453125],[-0.0966796875,-0.0275439453125],[-0.096982421875,-0.0275439453125],[-0.096982421875,-0.0275439453125]],[[-0.009267578125,-0.1915380859375],[-0.009267578125,-0.1915380859375],[-0.009267578125,-0.1915380859375],[-0.009267578125,-0.1915380859375],[-0.009267578125,-0.1915380859375],[-0.009267578125,-0.1915380859375],[-0.009267578125,-0.1915380859375],[-0.009267578125,-0.1915380859375],[-0.009267578125,-0.1915380859375],[-0.009267578125,-0.1915380859375],[-0.009267578125,-0.1915380859375],[-0.009267578125,-0.1915380859375],[-0.009267578125,-0.1915380859375],[-0.009267578125,-0.1915380859375],[-0.009267578125,-0.1915380859375],[-0.0114599609375,-0.189638671875],[-0.016494140625,-0.1841552734375],[-0.0234619140625,-0.1745166015625],[-0.0368505859375,-0.1533251953125],[-0.044873046875,-0.14072265625],[-0.0497705078125,-0.133271484375],[-0.0546923828125,-0.125400390625],[-0.0588134765625,-0.1194189453125],[-0.06138671875,-0.114794921875],[-0.06138671875,-0.114794921875],[-0.06138671875,-0.114794921875],[-0.06138671875,-0.114794921875],[-0.06138671875,-0.114794921875],[-0.06138671875,-0.114794921875],[-0.06138671875,-0.114794921875],[-0.06138671875,-0.114794921875],[-0.06138671875,-0.114794921875],[-0.06138671875,-0.114794921875],[-0.06138671875,-0.114794921875],[-0.06138671875,-0.114794921875],[-0.06138671875,-0.114794921875],[-0.06138671875,-0.114794921875],[-0.06138671875,-0.114794921875],[-0.0669384765625,-0.114794921875],[-0.077265625,-0.113720703125],[-0.0905712890625,-0.110947265625],[-0.1086376953125,-0.1053662109375],[-0.1239013671875,-0.10009765625],[-0.140380859375,-0.092822265625],[-0.1482177734375,-0.0889013671875],[-0.15484375,-0.08419921875],[-0.1581201171875,-0.08134765625],[-0.159912109375,-0.0786572265625],[-0.159912109375,-0.0786572265625],[-0.159912109375,-0.0786572265625],[-0.159912109375,-0.0786572265625],[-0.159912109375,-0.0786572265625],[-0.159912109375,-0.0786572265625],[-0.159912109375,-0.0786572265625],[-0.159912109375,-0.0786572265625],[-0.159912109375,-0.0786572265625],[-0.159912109375,-0.0786572265625],[-0.159912109375,-0.0786572265625],[-0.159912109375,-0.0786572265625],[-0.159912109375,-0.0786572265625],[-0.159912109375,-0.0786572265625],[-0.159912109375,-0.0786572265625],[-0.159912109375,-0.0786572265625],[-0.159912109375,-0.0786572265625],[-0.159912109375,-0.0786572265625],[-0.1694482421875,-0.075615234375],[-0.18169921875,-0.070068359375],[-0.1961328125,-0.0642919921875],[-0.21296875,-0.05681640625],[-0.230419921875,-0.0481103515625],[-0.24025390625,-0.0432861328125],[-0.2519677734375,-0.03544921875],[-0.254208984375,-0.0327587890625],[-0.254208984375,-0.0327587890625],[-0.254208984375,-0.0327587890625],[-0.254208984375,-0.0327587890625],[-0.254208984375,-0.0327587890625],[-0.254208984375,-0.0327587890625],[-0.254208984375,-0.0327587890625],[-0.254208984375,-0.0327587890625],[-0.254208984375,-0.0327587890625],[-0.254208984375,-0.0327587890625],[-0.254208984375,-0.0327587890625],[-0.254208984375,-0.0327587890625],[-0.254208984375,-0.0327587890625],[-0.254208984375,-0.0327587890625],[-0.254208984375,-0.0327587890625],[-0.254208984375,-0.0327587890625],[-0.254208984375,-0.0327587890625],[-0.254208984375,-0.0327587890625],[-0.254208984375,-0.0327587890625],[-0.254208984375,-0.0327587890625],[-0.254638671875,-0.029609375],[-0.2598046875,-0.0183447265625],[-0.2617724609375,-0.013916015625],[-0.26923828125,0.002119140625],[-0.2723974609375,0.0084375],[-0.2754052734375,0.0156396484375],[-0.276171875,0.01716796875],[-0.2768310546875,0.0181640625],[-0.2768310546875,0.0184814453125],[-0.277138671875,0.0184814453125],[-0.277138671875,0.0184814453125],[-0.277138671875,0.0184814453125],[-0.277138671875,0.0184814453125],[-0.277138671875,0.0184814453125]]]",3,"[108,48,106]",,,,,,,,,,,,,,recordingstudio4.jpg,space,9.502205,0,4,4,85,1,sidewalk5.jpg,ruralroad2.jpg,sandDunes_desert_outdoor3.jpg,rooftop3.jpg,,
Image_List_1,,,,,,,,,,,,,,,,44526,2020-11-18_09h48.38.551,analogCatScenes,2020.1.3,MacIntel,60,"[1280,800]","[[[0.002568359375,-0.1919287109375],[0.002568359375,-0.1919287109375],[0.002568359375,-0.1919287109375],[0.002568359375,-0.1919287109375],[0.002568359375,-0.1919287109375],[0.002568359375,-0.1919287109375],[0.002568359375,-0.1919287109375],[0.002568359375,-0.189609375],[0.002568359375,-0.18556640625],[0.002568359375,-0.1799267578125],[0.002568359375,-0.1723828125],[0.002568359375,-0.1566162109375],[0.002568359375,-0.139013671875],[0.002568359375,-0.1196337890625],[0.002568359375,-0.1018701171875],[0.0019921875,-0.087705078125],[-0.0010400390625,-0.072763671875],[-0.004091796875,-0.067939453125],[-0.0087939453125,-0.06169921875],[-0.0129638671875,-0.056640625],[-0.017421875,-0.0521826171875],[-0.020830078125,-0.0479248046875],[-0.0228125,-0.0447802734375],[-0.0242529296875,-0.0426220703125],[-0.0246142578125,-0.040869140625]],[[0.002119140625,-0.20140625],[0.002119140625,-0.20140625],[0.002119140625,-0.20140625],[0.002119140625,-0.20140625],[0.002119140625,-0.20140625],[0.002119140625,-0.20140625],[0.002119140625,-0.20140625],[0.002119140625,-0.20140625],[0.002119140625,-0.20140625],[0.002119140625,-0.20140625],[0.002119140625,-0.20140625],[0.00029296875,-0.20140625],[-0.0048095703125,-0.20140625],[-0.0190185546875,-0.20140625],[-0.0357373046875,-0.202626953125],[-0.0586474609375,-0.2100390625],[-0.086982421875,-0.2203271484375],[-0.1038916015625,-0.226962890625],[-0.1134130859375,-0.2307080078125],[-0.122314453125,-0.2326708984375],[-0.1274609375,-0.2339599609375],[-0.1300732421875,-0.2343408203125],[-0.1310693359375,-0.2343408203125],[-0.1310693359375,-0.2343408203125],[-0.1310693359375,-0.2343408203125],[-0.1310693359375,-0.2343408203125],[-0.1313671875,-0.2343408203125],[-0.1313671875,-0.2343408203125],[-0.1313671875,-0.2343408203125],[-0.1313671875,-0.2343408203125],[-0.1313671875,-0.2343408203125],[-0.1313671875,-0.23404296875],[-0.1313671875,-0.233740234375],[-0.1313671875,-0.233740234375],[-0.1313671875,-0.2334375],[-0.1313671875,-0.2334375],[-0.1313671875,-0.2334375],[-0.1313671875,-0.2334375],[-0.133896484375,-0.2334375],[-0.1427490234375,-0.2349072265625],[-0.1516064453125,-0.2358837890625],[-0.162646484375,-0.2358837890625],[-0.1823583984375,-0.23458984375],[-0.20744140625,-0.225458984375],[-0.22310546875,-0.217626953125],[-0.2292431640625,-0.21427734375],[-0.2362890625,-0.210546875],[-0.244609375,-0.2065869140625],[-0.2472119140625,-0.2054638671875],[-0.248564453125,-0.20478515625],[-0.249560546875,-0.2037890625],[-0.249921875,-0.20162109375],[-0.2503076171875,-0.198564453125],[-0.2503076171875,-0.19341796875],[-0.2503076171875,-0.19341796875],[-0.2503076171875,-0.19341796875],[-0.2503076171875,-0.19341796875],[-0.2503076171875,-0.19341796875],[-0.2503076171875,-0.19341796875],[-0.2503076171875,-0.19341796875],[-0.2503076171875,-0.19341796875],[-0.2503076171875,-0.19341796875],[-0.2503076171875,-0.19341796875],[-0.2503076171875,-0.19341796875],[-0.2503076171875,-0.19341796875],[-0.2503076171875,-0.19341796875],[-0.2503076171875,-0.19341796875],[-0.2503076171875,-0.19341796875],[-0.2503076171875,-0.19341796875],[-0.2503076171875,-0.19341796875],[-0.2503076171875,-0.19341796875],[-0.2503076171875,-0.1931201171875]]]",2,"[25,72]",,,,,,,,,,,,,,drycleaners4.jpg,space,4.101355,0,5,5,40,1,farm1.jpg,drymountains.jpg,dugout1.jpg,clothingstore3.jpg,,
Image_List_1,,,,,,,,,,,,,,,,44526,2020-11-18_09h48.38.551,analogCatScenes,2020.1.3,MacIntel,60,"[1280,800]","[[[-0.000205078125,-0.1917138671875],[-0.000205078125,-0.1917138671875],[-0.000205078125,-0.1917138671875],[-0.000205078125,-0.1917138671875],[-0.000205078125,-0.1917138671875],[-0.000205078125,-0.1917138671875],[-0.000205078125,-0.1917138671875],[-0.000205078125,-0.1917138671875],[-0.000205078125,-0.1895947265625],[-0.000205078125,-0.1855517578125],[-0.000205078125,-0.1792626953125],[-0.000205078125,-0.170986328125],[-0.000205078125,-0.1584619140625],[-0.000205078125,-0.1450634765625],[0.0004833984375,-0.1288671875],[0.00275390625,-0.1146240234375],[0.0037060546875,-0.1061865234375],[0.0041943359375,-0.0959716796875],[0.0041943359375,-0.0884814453125],[0.0014501953125,-0.0816552734375],[-0.0037939453125,-0.0749853515625],[-0.0155615234375,-0.067626953125],[-0.025810546875,-0.0671142578125],[-0.034990234375,-0.0671142578125],[-0.034990234375,-0.0671142578125],[-0.034990234375,-0.0671142578125],[-0.034990234375,-0.0671142578125],[-0.0352880859375,-0.0671142578125],[-0.0352880859375,-0.0671142578125],[-0.0352880859375,-0.0671142578125],[-0.0352880859375,-0.0671142578125],[-0.0352880859375,-0.0671142578125],[-0.0352880859375,-0.0671142578125],[-0.0352880859375,-0.0671142578125],[-0.0352880859375,-0.0671142578125],[-0.0352880859375,-0.0671142578125],[-0.0352880859375,-0.0671142578125],[-0.0352880859375,-0.0671142578125],[-0.0352880859375,-0.0671142578125],[-0.0352880859375,-0.0671142578125],[-0.0352880859375,-0.0671142578125],[-0.0352880859375,-0.0671142578125],[-0.0352880859375,-0.0671142578125],[-0.0352880859375,-0.0671142578125],[-0.0355859375,-0.0671142578125],[-0.041904296875,-0.0652734375],[-0.048955078125,-0.061982421875],[-0.055517578125,-0.058232421875],[-0.070546875,-0.04853515625],[-0.08931640625,-0.037529296875],[-0.1029931640625,-0.0297802734375],[-0.1098046875,-0.0258056640625],[-0.1255908203125,-0.018095703125],[-0.133779296875,-0.015205078125],[-0.138935546875,-0.01349609375],[-0.1415478515625,-0.0127490234375],[-0.1429052734375,-0.0120654296875],[-0.1435400390625,-0.011748046875],[-0.143857421875,-0.0110693359375],[-0.143857421875,-0.0110693359375],[-0.143857421875,-0.0110693359375],[-0.143857421875,-0.0110693359375],[-0.143857421875,-0.0110693359375],[-0.143857421875,-0.0110693359375],[-0.143857421875,-0.0110693359375],[-0.143857421875,-0.0110693359375],[-0.143857421875,-0.0110693359375],[-0.143857421875,-0.0110693359375],[-0.143857421875,-0.0110693359375],[-0.143857421875,-0.01017578125],[-0.143857421875,-0.0050732421875],[-0.143857421875,0.0006201171875],[-0.143857421875,0.009521484375],[-0.143857421875,0.0301416015625],[-0.1408984375,0.086123046875],[-0.13650390625,0.1163818359375],[-0.1349658203125,0.1215234375],[-0.1308642578125,0.137587890625],[-0.1294287109375,0.141904296875],[-0.1294287109375,0.141904296875],[-0.1294287109375,0.141904296875],[-0.1294287109375,0.141904296875],[-0.1294287109375,0.141904296875],[-0.1294287109375,0.141904296875],[-0.1294287109375,0.141904296875],[-0.1294287109375,0.141904296875],[-0.1294287109375,0.141904296875],[-0.1294287109375,0.141904296875]]]",1,[88],,,,,,,,,,,,,,treehouse.jpg,space,3.183905,0,6,6,94,1,waitingroom3.jpg,staircase6.jpg,weightroom.jpg,trainStation3.jpg,,
Image_List_1,,,,,,,,,,,,,,,,44526,2020-11-18_09h48.38.551,analogCatScenes,2020.1.3,MacIntel,60,"[1280,800]","[[[0.0056591796875,-0.1885986328125],[0.0056591796875,-0.1885986328125],[0.0056591796875,-0.1885986328125],[0.0056591796875,-0.1885986328125],[0.0056591796875,-0.1885986328125],[0.0056591796875,-0.1885986328125],[0.0056591796875,-0.1885986328125],[0.0056591796875,-0.1885986328125],[0.005361328125,-0.1885986328125],[0.00080078125,-0.1873974609375],[-0.00587890625,-0.1826123046875],[-0.0270068359375,-0.1651123046875],[-0.0481103515625,-0.1439892578125],[-0.0710595703125,-0.119453125],[-0.087646484375,-0.102509765625],[-0.103642578125,-0.0859130859375],[-0.112265625,-0.0778662109375],[-0.11794921875,-0.0726708984375],[-0.1216064453125,-0.0702001953125],[-0.123369140625,-0.0691357421875],[-0.12400390625,-0.068818359375],[-0.1243212890625,-0.06818359375],[-0.1243212890625,-0.0675048828125],[-0.1243212890625,-0.0675048828125],[-0.1243212890625,-0.0675048828125],[-0.1243212890625,-0.0675048828125]],[[-0.0011767578125,-0.20150390625],[-0.0011767578125,-0.20150390625],[-0.0011767578125,-0.20150390625],[-0.0011767578125,-0.20150390625],[-0.0011767578125,-0.20150390625],[-0.0011767578125,-0.20150390625],[-0.0011767578125,-0.20150390625],[-0.0011767578125,-0.2012060546875],[-0.0008203125,-0.1998046875],[0.0024462890625,-0.196953125],[0.0109375,-0.1914501953125],[0.033037109375,-0.1795703125],[0.0661376953125,-0.161923828125],[0.117822265625,-0.136259765625],[0.1622998046875,-0.116396484375],[0.1904345703125,-0.1031591796875],[0.2062646484375,-0.095751953125],[0.2176171875,-0.0913818359375],[0.2229443359375,-0.08892578125],[0.224375,-0.087060546875],[0.224375,-0.087060546875]]]",2,"[26,21]",,,,,,,,,,,,,,waitingroom2.jpg,space,5.61294,0,7,7,95,1,warehouse2.jpg,stripmall6.jpg,weightroom4.jpg,tvstudio3.jpg,,
Image_List_1,,,,,,,,,,,,,,,,44526,2020-11-18_09h48.38.551,analogCatScenes,2020.1.3,MacIntel,60,"[1280,800]","[[[-0.004931640625,-0.199248046875],[-0.004931640625,-0.199248046875],[-0.004931640625,-0.199248046875],[-0.004931640625,-0.199248046875],[-0.004931640625,-0.199248046875],[-0.004931640625,-0.199248046875],[-0.004931640625,-0.199248046875],[-0.004931640625,-0.199248046875],[-0.008671875,-0.199248046875],[-0.0174560546875,-0.1962939453125],[-0.0281591796875,-0.1904052734375],[-0.0509814453125,-0.1786328125],[-0.07337890625,-0.163212890625],[-0.08775390625,-0.153291015625],[-0.0964697265625,-0.1466015625],[-0.104052734375,-0.140087890625],[-0.107509765625,-0.1358251953125],[-0.1086572265625,-0.1327734375],[-0.1091064453125,-0.120068359375],[-0.106279296875,-0.1066162109375],[-0.106279296875,-0.1066162109375],[-0.106279296875,-0.1066162109375],[-0.106279296875,-0.1066162109375],[-0.106279296875,-0.1066162109375],[-0.106279296875,-0.1066162109375],[-0.106279296875,-0.1066162109375],[-0.106279296875,-0.1066162109375],[-0.106279296875,-0.1066162109375],[-0.106279296875,-0.10720703125],[-0.106279296875,-0.1085498046875],[-0.1059423828125,-0.11056640625],[-0.1056103515625,-0.1119091796875],[-0.1052978515625,-0.1125341796875],[-0.1049853515625,-0.1128466796875],[-0.1049853515625,-0.1128466796875],[-0.1049853515625,-0.1128466796875],[-0.1049853515625,-0.1128466796875],[-0.1049853515625,-0.108798828125],[-0.1055224609375,-0.097783203125],[-0.106865234375,-0.0743310546875],[-0.107646484375,-0.0360107421875],[-0.107646484375,-0.00423828125],[-0.10419921875,0.0199462890625],[-0.0975048828125,0.043515625],[-0.09005859375,0.06095703125],[-0.08044921875,0.075380859375],[-0.0662158203125,0.091005859375],[-0.05005859375,0.1051806640625],[-0.05005859375,0.1051806640625],[-0.05005859375,0.1051806640625],[-0.05005859375,0.1051806640625],[-0.05005859375,0.1051806640625],[-0.05005859375,0.1051806640625],[-0.05005859375,0.1051806640625],[-0.05005859375,0.1051806640625],[-0.05005859375,0.1051806640625],[-0.05005859375,0.1051806640625],[-0.05005859375,0.1051806640625],[-0.05005859375,0.1051806640625],[-0.05005859375,0.1051806640625],[-0.0473486328125,0.1051806640625],[-0.032119140625,0.1051806640625],[-0.009580078125,0.1045068359375],[0.0622265625,0.103642578125],[0.081865234375,0.103642578125],[0.0987353515625,0.103642578125],[0.0987353515625,0.103642578125],[0.0987353515625,0.103642578125],[0.0987353515625,0.103642578125],[0.0987353515625,0.103642578125],[0.0987353515625,0.103642578125],[0.0987353515625,0.103642578125],[0.0987353515625,0.103642578125],[0.0987353515625,0.103642578125],[0.0987353515625,0.103642578125],[0.0987353515625,0.103642578125],[0.0987353515625,0.103642578125],[0.0987353515625,0.103349609375],[0.0987353515625,0.103349609375],[0.0987353515625,0.103349609375],[0.1034521484375,0.1043359375],[0.1168115234375,0.10935546875],[0.1346923828125,0.113623046875],[0.1730029296875,0.1201318359375],[0.204306640625,0.1239453125],[0.2274365234375,0.126025390625],[0.2419287109375,0.1289306640625],[0.248623046875,0.13060546875],[0.248623046875,0.13060546875],[0.248623046875,0.13060546875],[0.248623046875,0.13060546875],[0.2483251953125,0.13060546875],[0.248017578125,0.13060546875],[0.2477099609375,0.13060546875],[0.24740234375,0.13060546875],[0.24740234375,0.13060546875],[0.247099609375,0.13060546875],[0.247099609375,0.13060546875],[0.247099609375,0.13060546875],[0.247099609375,0.13060546875],[0.247099609375,0.13060546875],[0.247099609375,0.13060546875],[0.247099609375,0.13060546875],[0.2448583984375,0.1334423828125],[0.235185546875,0.139384765625],[0.221044921875,0.147626953125],[0.2064599609375,0.156015625],[0.1903564453125,0.1665380859375],[0.1817724609375,0.1733837890625],[0.174873046875,0.1792578125],[0.1710498046875,0.1846240234375],[0.170712890625,0.1863818359375],[0.170712890625,0.1870166015625],[0.170712890625,0.187333984375],[0.170712890625,0.187333984375],[0.170712890625,0.187333984375]]]",1,[116],,,,,,,,,,,,,,ruralroad7.jpg,space,3.318745,0,8,8,89,1,track5.jpg,ShowJumping7.jpg,staircase7.jpg,sculpturegarden3.jpg,,
Image_List_1,,,,,,,,,,,,,,,,44526,2020-11-18_09h48.38.551,analogCatScenes,2020.1.3,MacIntel,60,"[1280,800]","[[[-0.0078955078125,-0.19435546875],[-0.0078955078125,-0.19435546875],[-0.0078955078125,-0.19435546875],[-0.0078955078125,-0.19435546875],[-0.0078955078125,-0.19435546875],[-0.0078955078125,-0.19435546875],[-0.0078955078125,-0.19435546875],[-0.0078955078125,-0.19435546875],[-0.011640625,-0.1935009765625],[-0.018505859375,-0.192138671875],[-0.0288330078125,-0.1890478515625],[-0.0550048828125,-0.1783447265625],[-0.0872802734375,-0.1610302734375],[-0.1118798828125,-0.1438671875],[-0.1432080078125,-0.1183154296875],[-0.159775390625,-0.1019482421875],[-0.16978515625,-0.092451171875],[-0.16978515625,-0.092451171875],[-0.16978515625,-0.092451171875],[-0.16978515625,-0.092451171875],[-0.16978515625,-0.092451171875],[-0.16978515625,-0.092451171875],[-0.16978515625,-0.092451171875],[-0.16978515625,-0.092451171875],[-0.16978515625,-0.092744140625],[-0.16978515625,-0.093046875],[-0.16978515625,-0.093349609375],[-0.16978515625,-0.09365234375],[-0.16978515625,-0.09365234375],[-0.1694873046875,-0.09365234375],[-0.1694873046875,-0.09365234375],[-0.170419921875,-0.09365234375],[-0.1837109375,-0.091376953125],[-0.1997265625,-0.08330078125],[-0.2244189453125,-0.0672998046875],[-0.262041015625,-0.039365234375],[-0.29517578125,-0.01015625],[-0.3213232421875,0.0147998046875],[-0.333798828125,0.027275390625],[-0.333798828125,0.027275390625],[-0.333798828125,0.027275390625],[-0.333798828125,0.027275390625],[-0.333798828125,0.0275732421875],[-0.333798828125,0.0275732421875],[-0.333798828125,0.0275732421875]],[[0.00505859375,-0.2034814453125],[0.00505859375,-0.2034814453125],[0.00505859375,-0.2034814453125],[0.00505859375,-0.2034814453125],[0.00505859375,-0.2034814453125],[0.00505859375,-0.2034814453125],[0.00505859375,-0.2034814453125],[0.00505859375,-0.2034814453125],[0.010966796875,-0.20298828125],[0.0301123046875,-0.198583984375],[0.061962890625,-0.1932958984375],[0.1046728515625,-0.1882470703125],[0.154013671875,-0.1864453125],[0.172666015625,-0.1864453125],[0.19861328125,-0.1851171875],[0.2145166015625,-0.182841796875],[0.2145166015625,-0.182841796875]]]",2,"[45,17]",,,,,,,,,,,,,,baggageClaim4.jpg,space,4.101385,0,9,9,12,1,bedroom6.jpg,bambooforest5.jpg,bleachers7.jpg,backyard5.jpg,,
Image_List_1,,,,,,,,,,,,,,,,44526,2020-11-18_09h48.38.551,analogCatScenes,2020.1.3,MacIntel,60,"[1280,800]","[[[-0.0104736328125,-0.19734375],[-0.0104736328125,-0.19734375],[-0.0104736328125,-0.19734375],[-0.0104736328125,-0.19734375],[-0.0104736328125,-0.19734375],[-0.0104736328125,-0.19734375],[-0.0104736328125,-0.19734375],[-0.010771484375,-0.19734375],[-0.014814453125,-0.196533203125],[-0.0223291015625,-0.1941748046875],[-0.0406494140625,-0.1866259765625],[-0.064267578125,-0.174794921875],[-0.0929296875,-0.1604638671875],[-0.124609375,-0.14388671875],[-0.1421826171875,-0.1351806640625],[-0.151455078125,-0.1314892578125],[-0.1578466796875,-0.12873046875],[-0.1609814453125,-0.1267578125],[-0.1620556640625,-0.1246044921875]],[[0.0079052734375,-0.1976904296875],[0.0079052734375,-0.1976904296875],[0.0079052734375,-0.1976904296875],[0.0079052734375,-0.1976904296875],[0.0079052734375,-0.1976904296875],[0.0079052734375,-0.1976904296875],[0.0079052734375,-0.1976904296875],[0.0079052734375,-0.1976904296875],[0.0079052734375,-0.1976904296875],[0.0079052734375,-0.1976904296875],[0.0079052734375,-0.1976904296875],[0.0079052734375,-0.1976904296875],[0.0079052734375,-0.1976904296875],[0.0079052734375,-0.1976904296875],[0.0125,-0.1976904296875],[0.021484375,-0.1952880859375],[0.033271484375,-0.191572265625],[0.0468017578125,-0.186484375],[0.0585595703125,-0.1822021484375],[0.06900390625,-0.17748046875],[0.0799755859375,-0.17330078125],[0.0917626953125,-0.170615234375],[0.1082421875,-0.1694970703125],[0.117802734375,-0.1694970703125],[0.12404296875,-0.1694970703125],[0.1280712890625,-0.1694970703125],[0.1332177734375,-0.1677880859375],[0.1354541015625,-0.165546875],[0.1354541015625,-0.165546875],[0.1354541015625,-0.165546875],[0.1354541015625,-0.165546875],[0.1354541015625,-0.165546875],[0.1354541015625,-0.165546875],[0.1354541015625,-0.165546875],[0.1354541015625,-0.165546875],[0.1354541015625,-0.16583984375],[0.1354541015625,-0.166142578125],[0.1354541015625,-0.1664453125],[0.1354541015625,-0.1664453125],[0.1354541015625,-0.1664453125],[0.1354541015625,-0.164619140625],[0.138642578125,-0.1587841796875],[0.147470703125,-0.1453076171875],[0.162421875,-0.126298828125],[0.17423828125,-0.1125830078125],[0.1856396484375,-0.099345703125],[0.190947265625,-0.09255859375],[0.195537109375,-0.0870703125],[0.1974609375,-0.0843798828125],[0.1985107421875,-0.0826220703125],[0.19916015625,-0.0816259765625],[0.19947265625,-0.0806298828125],[0.19947265625,-0.0803125],[0.19947265625,-0.0803125],[0.19947265625,-0.0803125],[0.1988330078125,-0.080986328125],[0.1984912109375,-0.08166015625],[0.1984912109375,-0.08166015625],[0.1984912109375,-0.08166015625],[0.1984912109375,-0.08166015625],[0.1984912109375,-0.08166015625],[0.1984912109375,-0.08166015625],[0.1984912109375,-0.08166015625],[0.1984912109375,-0.08166015625],[0.1984912109375,-0.08166015625],[0.1984912109375,-0.08166015625],[0.1984912109375,-0.08166015625],[0.1984912109375,-0.08166015625],[0.1984912109375,-0.08166015625],[0.1984912109375,-0.08166015625],[0.1984912109375,-0.08166015625],[0.1984912109375,-0.08166015625]]]",2,"[19,72]",,,,,,,,,,,,,,publicrestroom2.jpg,space,5.784305,0,10,10,82,1,sandDunes_desert_outdoor9.jpg,promenadeDeck3.jpg,readingroom4.jpg,postoffice4.jpg,,
Image_List_1,,,,,,,,,,,,,,,,44526,2020-11-18_09h48.38.551,analogCatScenes,2020.1.3,MacIntel,60,"[1280,800]","[[[0.0042236328125,-0.1946923828125],[0.0042236328125,-0.1946923828125],[0.0042236328125,-0.1946923828125],[0.0042236328125,-0.1946923828125],[0.0042236328125,-0.1946923828125],[0.0042236328125,-0.1946923828125],[0.0042236328125,-0.1946923828125],[0.0042236328125,-0.1946923828125],[-0.00578125,-0.1946923828125],[-0.024560546875,-0.19404296875],[-0.0494775390625,-0.1912744140625],[-0.069189453125,-0.1868115234375],[-0.09326171875,-0.1820361328125],[-0.1083349609375,-0.17796875],[-0.1201708984375,-0.1747509765625],[-0.1259326171875,-0.172607421875],[-0.129033203125,-0.171435546875],[-0.13001953125,-0.17078125],[-0.1303369140625,-0.1704638671875],[-0.1303369140625,-0.1704638671875]],[[-0.0006396484375,-0.201953125],[-0.0006396484375,-0.201953125],[-0.0006396484375,-0.201953125],[-0.0006396484375,-0.201953125],[-0.0006396484375,-0.201953125],[-0.0006396484375,-0.201953125],[-0.0006396484375,-0.201953125],[-0.0006396484375,-0.201953125],[-0.0006396484375,-0.201953125],[-0.0006396484375,-0.201953125],[0.0005419921875,-0.201953125],[0.015751953125,-0.201953125],[0.0581787109375,-0.201953125],[0.115927734375,-0.204755859375],[0.18140625,-0.211787109375],[0.238330078125,-0.2183203125],[0.255478515625,-0.2198779296875],[0.255478515625,-0.2198779296875],[0.255478515625,-0.2198779296875],[0.255478515625,-0.2198779296875],[0.255478515625,-0.2198779296875],[0.255478515625,-0.2198779296875],[0.255478515625,-0.2198779296875],[0.255478515625,-0.2198779296875],[0.2551806640625,-0.2198779296875],[0.2548779296875,-0.2198779296875],[0.2548779296875,-0.2198779296875],[0.2545751953125,-0.2201904296875],[0.2542578125,-0.2205029296875],[0.2542578125,-0.2211279296875],[0.2542578125,-0.2220654296875],[0.2542578125,-0.2226904296875],[0.2542578125,-0.2233154296875],[0.2542578125,-0.2233154296875],[0.2542578125,-0.2233154296875],[0.2542578125,-0.2233154296875],[0.2542578125,-0.2233154296875],[0.2542578125,-0.2233154296875],[0.2542578125,-0.2233154296875],[0.2542578125,-0.2233154296875],[0.2542578125,-0.2233154296875],[0.2542578125,-0.2233154296875],[0.2542578125,-0.2213525390625],[0.2546484375,-0.217353515625],[0.2585400390625,-0.20955078125],[0.2653125,-0.1965771484375],[0.2725341796875,-0.1847265625],[0.2854443359375,-0.164130859375],[0.29283203125,-0.1539697265625],[0.29658203125,-0.1491455078125]]]",2,"[20,50]",,,,,,,,,,,,,,library_aisle10.jpg,space,3.849965,0,11,11,66,1,office3.jpg,laundromat3.jpg,liquorstore.jpg,horsebarn9.jpg,,
Image_List_1,,,,,,,,,,,,,,,,44526,2020-11-18_09h48.38.551,analogCatScenes,2020.1.3,MacIntel,60,"[1280,800]","[[[0.0001806640625,-0.1879296875],[0.0001806640625,-0.1879296875],[0.0001806640625,-0.1879296875],[0.0001806640625,-0.1879296875],[0.0001806640625,-0.1879296875],[0.0001806640625,-0.1879296875],[0.0001806640625,-0.1879296875],[0.0001806640625,-0.1879296875],[0.0001806640625,-0.1879296875],[0.0001806640625,-0.1879296875],[0.0001806640625,-0.1879296875],[0.0001806640625,-0.1845361328125],[0.0001806640625,-0.173623046875],[0.0001806640625,-0.16189453125],[0.0001806640625,-0.136748046875],[0.0001806640625,0.006103515625],[0.0001806640625,0.006103515625],[0.0001806640625,0.006103515625],[0.0001806640625,0.006103515625],[0.0001806640625,0.0064013671875],[0.0001806640625,0.0070361328125],[0.0001806640625,0.0070361328125],[0.0001806640625,0.0070361328125],[0.0001806640625,0.0070361328125],[0.0001806640625,0.0070361328125],[0.0001806640625,0.0070361328125],[0.0001806640625,0.0070361328125],[0.0001806640625,0.0070361328125],[0.0001806640625,0.0070361328125],[0.0001806640625,0.0070361328125],[0.0001806640625,0.0067431640625],[0.0001806640625,0.0064404296875],[0.0001806640625,0.006142578125],[0.0001806640625,0.006142578125],[0.0001806640625,0.006142578125],[0.0001806640625,0.005849609375],[0.0001806640625,0.005546875],[0.0001806640625,0.005244140625],[0.0001806640625,0.00494140625],[0.0001806640625,0.00494140625],[0.000478515625,0.0046435546875],[0.000478515625,0.0046435546875],[0.000478515625,0.0046435546875],[0.000478515625,0.0046435546875],[0.000478515625,0.0046435546875],[0.000478515625,0.0046435546875],[0.000478515625,0.0046435546875],[0.000478515625,0.0046435546875],[0.000478515625,0.0046435546875],[0.000478515625,0.0046435546875],[0.000478515625,0.0046435546875],[0.000478515625,0.0046435546875],[0.000478515625,0.0046435546875],[0.000478515625,0.0046435546875],[0.000478515625,0.0046435546875],[0.000478515625,0.0046435546875],[0.000478515625,0.0046435546875],[0.000478515625,0.0046435546875],[0.000478515625,0.0120361328125],[-0.000830078125,0.0334814453125],[-0.0030078125,0.06263671875],[-0.0030078125,0.1158740234375],[-0.0030078125,0.1398876953125],[-0.0030078125,0.1496923828125],[-0.0020751953125,0.157255859375],[-0.0009765625,0.159462890625],[-0.0006640625,0.1597802734375],[-0.0006640625,0.1597802734375],[-0.0006640625,0.1597802734375],[-0.0006640625,0.1597802734375],[-0.0006640625,0.1597802734375],[-0.0006640625,0.1597802734375]]]",1,[72],,,,,,,,,,,,,,airplanecabin1.jpg,space,3.449585,0,12,12,0,1,alley2.jpg,appleorchard4.jpg,airplanecabin5.jpg,airplanecabin3.jpg,,
Image_List_1,,,,,,,,,,,,,,,,44526,2020-11-18_09h48.38.551,analogCatScenes,2020.1.3,MacIntel,60,"[1280,800]","[[[-0.0024267578125,-0.1959619140625],[-0.0024267578125,-0.1959619140625],[-0.0024267578125,-0.1959619140625],[-0.0024267578125,-0.1959619140625],[-0.0024267578125,-0.1959619140625],[-0.0024267578125,-0.1959619140625],[-0.0024267578125,-0.1959619140625],[-0.0024267578125,-0.1959619140625],[-0.0024267578125,-0.1959619140625],[-0.004208984375,-0.1959619140625],[-0.022060546875,-0.190625],[-0.050986328125,-0.1787353515625],[-0.0696875,-0.171416015625],[-0.1138525390625,-0.150615234375],[-0.1241796875,-0.14650390625],[-0.139443359375,-0.1400439453125],[-0.1463037109375,-0.1368310546875],[-0.1498486328125,-0.134853515625],[-0.1505712890625,-0.1337744140625],[-0.1505712890625,-0.1337744140625],[-0.1505712890625,-0.1337744140625],[-0.1505712890625,-0.1337744140625],[-0.1505712890625,-0.1337744140625],[-0.1505712890625,-0.1337744140625],[-0.1505712890625,-0.1337744140625],[-0.1505712890625,-0.1337744140625],[-0.1505712890625,-0.1337744140625],[-0.1505712890625,-0.1340673828125],[-0.1499560546875,-0.1340673828125],[-0.1493310546875,-0.1340673828125],[-0.1487060546875,-0.1340673828125],[-0.1483935546875,-0.1340673828125],[-0.1480908203125,-0.1340673828125],[-0.1480908203125,-0.1340673828125],[-0.1480908203125,-0.1340673828125],[-0.1480908203125,-0.1340673828125],[-0.1480908203125,-0.13376953125],[-0.1480908203125,-0.1286865234375],[-0.1480908203125,-0.1235986328125],[-0.1480908203125,-0.120048828125],[-0.1473291015625,-0.1169921875],[-0.14564453125,-0.1119189453125],[-0.1420849609375,-0.1060498046875],[-0.1386181640625,-0.1012646484375],[-0.1333837890625,-0.0945654296875],[-0.119765625,-0.0737890625],[-0.1084375,-0.053779296875],[-0.093134765625,-0.032275390625],[-0.078291015625,-0.0183837890625],[-0.06240234375,-0.006298828125],[-0.0592724609375,-0.004951171875],[-0.0592724609375,-0.004951171875],[-0.0592724609375,-0.004951171875],[-0.0592724609375,-0.004951171875],[-0.0592724609375,-0.004951171875],[-0.0592724609375,-0.004951171875],[-0.0592724609375,-0.004951171875],[-0.0592724609375,-0.004951171875],[-0.0592724609375,-0.004951171875],[-0.0592724609375,-0.004951171875],[-0.0592724609375,-0.004951171875],[-0.0592724609375,-0.004951171875],[-0.0592724609375,-0.004951171875],[-0.0592724609375,-0.004951171875],[-0.0589794921875,-0.004951171875],[-0.053525390625,-0.0091943359375],[-0.0438330078125,-0.0206201171875],[-0.029775390625,-0.039375],[-0.0123974609375,-0.0595263671875],[0.00115234375,-0.0737890625],[0.01666015625,-0.08865234375],[0.03484375,-0.1009521484375],[0.0458447265625,-0.10302734375],[0.0539892578125,-0.1034716796875],[0.0615283203125,-0.1034716796875],[0.0615283203125,-0.1034716796875],[0.0615283203125,-0.1034716796875],[0.0615283203125,-0.1034716796875],[0.0615283203125,-0.1034716796875],[0.0615283203125,-0.103173828125],[0.0615283203125,-0.103173828125],[0.0615283203125,-0.103173828125],[0.0615283203125,-0.103173828125],[0.061826171875,-0.10408203125],[0.0621630859375,-0.1062744140625],[0.0621630859375,-0.108017578125],[0.0621630859375,-0.109365234375],[0.0621630859375,-0.110712890625],[0.0621630859375,-0.11169921875],[0.0621630859375,-0.11201171875],[0.0624609375,-0.11201171875],[0.0624609375,-0.11201171875],[0.0624609375,-0.11201171875],[0.0624609375,-0.11201171875],[0.0624609375,-0.110185546875],[0.0668896484375,-0.1022998046875],[0.0744482421875,-0.088330078125],[0.087646484375,-0.061875],[0.102109375,-0.0145361328125],[0.1058251953125,0.0306591796875],[0.1058251953125,0.064501953125],[0.098193359375,0.1161865234375],[0.09384765625,0.138779296875],[0.09384765625,0.138779296875],[0.09384765625,0.138779296875],[0.09384765625,0.138779296875],[0.09384765625,0.138779296875],[0.09384765625,0.138779296875],[0.09384765625,0.138779296875],[0.09384765625,0.138779296875],[0.09384765625,0.138779296875],[0.09384765625,0.138779296875],[0.09384765625,0.138779296875],[0.09384765625,0.138779296875],[0.09384765625,0.138779296875],[0.09384765625,0.138779296875],[0.09384765625,0.138779296875],[0.09384765625,0.138779296875],[0.09384765625,0.138779296875],[0.09384765625,0.138779296875],[0.09384765625,0.138779296875],[0.09384765625,0.138779296875],[0.094140625,0.138779296875],[0.1024169921875,0.138779296875],[0.109873046875,0.138779296875],[0.1333154296875,0.138779296875],[0.16525390625,0.132548828125],[0.212236328125,0.1144384765625],[0.2605224609375,0.085048828125],[0.2763671875,0.071796875],[0.2933349609375,0.058369140625],[0.2933349609375,0.058369140625],[0.2933349609375,0.058369140625],[0.2933349609375,0.058369140625],[0.2933349609375,0.058369140625],[0.2933349609375,0.058369140625],[0.293037109375,0.058369140625],[0.293037109375,0.058369140625],[0.293037109375,0.058369140625],[0.293037109375,0.058369140625],[0.293037109375,0.058369140625],[0.293037109375,0.058369140625],[0.293037109375,0.058369140625],[0.293037109375,0.058369140625],[0.293037109375,0.058369140625],[0.293037109375,0.058369140625],[0.293037109375,0.058369140625]]]",1,[147],,,,,,,,,,,,,,dancestudio6.jpg,space,3.685045,0,13,13,32,1,diner12.jpg,constructionSite2.jpg,dentist4.jpg,cabin4.jpg,,
Image_List_1,,,,,,,,,,,,,,,,44526,2020-11-18_09h48.38.551,analogCatScenes,2020.1.3,MacIntel,60,"[1280,800]","[[[-0.003935546875,-0.1950927734375],[-0.003935546875,-0.1950927734375],[-0.003935546875,-0.1950927734375],[-0.003935546875,-0.1950927734375],[-0.003935546875,-0.1950927734375],[-0.003935546875,-0.1950927734375],[-0.005732421875,-0.1950927734375],[-0.02259765625,-0.1950927734375],[-0.05083984375,-0.1950927734375],[-0.0848876953125,-0.1950927734375],[-0.1281005859375,-0.1950927734375],[-0.1498095703125,-0.1950927734375],[-0.1828955078125,-0.1950927734375],[-0.19421875,-0.1950927734375],[-0.1993603515625,-0.1950927734375],[-0.1993603515625,-0.1950927734375],[-0.1993603515625,-0.1950927734375],[-0.1993603515625,-0.1950927734375],[-0.1993603515625,-0.1950927734375],[-0.1993603515625,-0.1950927734375],[-0.1993603515625,-0.1950927734375],[-0.1993603515625,-0.1950927734375],[-0.1993603515625,-0.1950927734375],[-0.1993603515625,-0.1944775390625],[-0.1993603515625,-0.19416015625],[-0.1993603515625,-0.1938525390625]],[[-0.00076171875,-0.2031005859375],[-0.00076171875,-0.2031005859375],[-0.00076171875,-0.2031005859375],[-0.00076171875,-0.2031005859375],[-0.00076171875,-0.2031005859375],[-0.00076171875,-0.2031005859375],[-0.00076171875,-0.2031005859375],[-0.00076171875,-0.2031005859375],[0.0004248046875,-0.2031005859375],[0.0140478515625,-0.19611328125],[0.0394873046875,-0.182314453125],[0.0744140625,-0.165244140625],[0.1056494140625,-0.152744140625],[0.1433349609375,-0.1396435546875],[0.1762939453125,-0.13119140625],[0.186611328125,-0.1301611328125],[0.2016015625,-0.127802734375],[0.2085302734375,-0.126962890625],[0.2116162109375,-0.126962890625],[0.212958984375,-0.126962890625],[0.2140380859375,-0.126962890625],[0.2140380859375,-0.126962890625],[0.2140380859375,-0.126962890625]]]",2,"[26,23]",,,,,,,,,,,,,,firestation2.jpg,space,3.2523,0,14,14,44,1,frontFoyer4.jpg,elevatorOutside1.jpg,foodcourt6.jpg,dock2.jpg,,
Image_List_1,,,,,,,,,,,,,,,,44526,2020-11-18_09h48.38.551,analogCatScenes,2020.1.3,MacIntel,60,"[1280,800]","[[[-0.0035791015625,-0.192265625],[-0.0035791015625,-0.192265625],[-0.0035791015625,-0.192265625],[-0.0035791015625,-0.192265625],[-0.0035791015625,-0.192265625],[-0.0035791015625,-0.192265625],[-0.0035791015625,-0.192265625],[-0.005068359375,-0.192265625],[-0.010869140625,-0.188662109375],[-0.0263916015625,-0.17634765625],[-0.0730712890625,-0.132451171875],[-0.1060107421875,-0.0977734375],[-0.121708984375,-0.0828564453125],[-0.1365185546875,-0.0691162109375],[-0.1468994140625,-0.0581884765625],[-0.1511962890625,-0.0543408203125],[-0.151962890625,-0.0528125],[-0.151962890625,-0.0528125],[-0.151962890625,-0.0528125],[-0.151962890625,-0.0528125]],[[0.0096435546875,-0.1944384765625],[0.0096435546875,-0.1944384765625],[0.0096435546875,-0.1944384765625],[0.0096435546875,-0.1944384765625],[0.0096435546875,-0.1944384765625],[0.0096435546875,-0.1944384765625],[0.0096435546875,-0.1944384765625],[0.0096435546875,-0.194140625],[0.015595703125,-0.190009765625],[0.024833984375,-0.1843505859375],[0.04193359375,-0.1741357421875],[0.064033203125,-0.1616943359375],[0.0860498046875,-0.14861328125],[0.10140625,-0.1405908203125],[0.119189453125,-0.131044921875],[0.1330517578125,-0.1246826171875],[0.14060546875,-0.12185546875],[0.147470703125,-0.11908203125],[0.1520263671875,-0.117421875],[0.15421875,-0.11669921875],[0.155205078125,-0.11669921875],[0.155830078125,-0.11669921875],[0.155830078125,-0.11669921875],[0.155830078125,-0.11669921875],[0.156123046875,-0.11669921875],[0.156123046875,-0.11669921875],[0.156123046875,-0.11669921875]]]",2,"[20,27]",,,,,,,,,,,,,,hometheater2.jpg,space,4.750905,0,15,15,60,1,lightingstore3.jpg,homegarage.jpg,kindergarten_classroom6.jpg,hallway.jpg,,
Image_List_1,,,,,,,,,,,,,,,,44526,2020-11-18_09h48.38.551,analogCatScenes,2020.1.3,MacIntel,60,"[1280,800]","[[[0.008486328125,-0.2008154296875],[0.008486328125,-0.2008154296875],[0.008486328125,-0.2008154296875],[0.008486328125,-0.2008154296875],[0.008486328125,-0.2008154296875],[0.008486328125,-0.2008154296875],[0.008486328125,-0.2008154296875],[0.008486328125,-0.2008154296875],[0.008486328125,-0.2008154296875],[0.008486328125,-0.200517578125],[0.014150390625,-0.19685546875],[0.03625,-0.183037109375],[0.071650390625,-0.157646484375],[0.143994140625,-0.1009423828125],[0.1611767578125,-0.0900341796875],[0.1881201171875,-0.073466796875],[0.2006982421875,-0.0668359375],[0.21279296875,-0.0629052734375],[0.2191015625,-0.061064453125],[0.223115234375,-0.0602587890625],[0.2252734375,-0.0602587890625],[0.228369140625,-0.059853515625],[0.229892578125,-0.059853515625],[0.229892578125,-0.059853515625],[0.229892578125,-0.059853515625],[0.229892578125,-0.059853515625],[0.2295947265625,-0.059853515625]],[[0.0017236328125,-0.2101025390625],[0.0017236328125,-0.2101025390625],[0.0017236328125,-0.2101025390625],[0.0017236328125,-0.2101025390625],[0.0017236328125,-0.2101025390625],[0.0017236328125,-0.2101025390625],[0.0017236328125,-0.2101025390625],[0.0017236328125,-0.2101025390625],[0.0017236328125,-0.2101025390625],[0.0017236328125,-0.2101025390625],[0.0017236328125,-0.2101025390625],[0.0017236328125,-0.2092138671875],[0.0017236328125,-0.2041064453125],[0.0017236328125,-0.197861328125],[0.0017236328125,-0.1837841796875],[0.0027001953125,-0.143154296875],[0.0027001953125,-0.1081103515625],[0.0027001953125,-0.0978173828125],[0.0027001953125,-0.0860986328125],[0.0008203125,-0.0785791015625],[-0.002236328125,-0.0774267578125],[-0.0063232421875,-0.0774267578125],[-0.0103662109375,-0.0774267578125],[-0.0139111328125,-0.0774267578125],[-0.0169677734375,-0.0774267578125],[-0.0191357421875,-0.0774267578125],[-0.0204931640625,-0.0774267578125],[-0.021484375,-0.0774267578125],[-0.022119140625,-0.0774267578125],[-0.022119140625,-0.0774267578125],[-0.022119140625,-0.0774267578125],[-0.022119140625,-0.0774267578125],[-0.022119140625,-0.0774267578125]]]",2,"[27,33]",,,,,,,,,,,,,,deck5.jpg,space,3.533185,0,16,16,35,1,dock3.jpg,cubicle7.jpg,dining_car6.jpg,carmechanic2.jpg,,
Image_List_1,,,,,,,,,,,,,,,,44526,2020-11-18_09h48.38.551,analogCatScenes,2020.1.3,MacIntel,60,"[1280,800]","[[[-0.002421875,-0.1965380859375],[-0.002421875,-0.1965380859375],[-0.002421875,-0.1965380859375],[-0.002421875,-0.1965380859375],[-0.002421875,-0.1965380859375],[-0.002421875,-0.1965380859375],[-0.002421875,-0.1965380859375],[-0.002421875,-0.1965380859375],[-0.002421875,-0.1965380859375],[-0.002421875,-0.1965380859375],[-0.002421875,-0.1965380859375],[-0.002421875,-0.195947265625],[-0.0007421875,-0.1931640625],[0.003505859375,-0.189345703125],[0.0102978515625,-0.1844677734375],[0.023232421875,-0.17828125],[0.048583984375,-0.1692724609375],[0.074453125,-0.1643896484375],[0.1027001953125,-0.161484375],[0.121826171875,-0.161484375],[0.1403857421875,-0.161484375],[0.1530615234375,-0.16353515625],[0.1581982421875,-0.1655859375],[0.1581982421875,-0.1655859375],[0.1581982421875,-0.1655859375],[0.1581982421875,-0.1655859375]]]",1,[26],,,,,,,,,,,,,,fittingroom2.jpg,space,3.73602,0,17,17,45,1,frontFoyer7.jpg,factory1.jpg,forestpath4.jpg,dock4.jpg,,
Image_List_1,,,,,,,,,,,,,,,,44526,2020-11-18_09h48.38.551,analogCatScenes,2020.1.3,MacIntel,60,"[1280,800]","[[[0.005517578125,-0.2038427734375],[0.005517578125,-0.2038427734375],[0.005517578125,-0.2038427734375],[0.005517578125,-0.2038427734375],[0.005517578125,-0.2038427734375],[0.005517578125,-0.2038427734375],[0.005517578125,-0.2038427734375],[0.005517578125,-0.2038427734375],[0.005517578125,-0.2038427734375],[0.005517578125,-0.2038427734375],[0.005517578125,-0.2038427734375],[0.004150390625,-0.203486328125],[0.0019384765625,-0.2016357421875],[-0.001162109375,-0.200107421875],[-0.005859375,-0.19666015625],[-0.0116943359375,-0.193037109375],[-0.01857421875,-0.188701171875],[-0.0253515625,-0.1833935546875],[-0.031328125,-0.1792529296875],[-0.03919921875,-0.1743310546875],[-0.0470556640625,-0.1694189453125],[-0.0547314453125,-0.1650927734375],[-0.0600439453125,-0.1619970703125],[-0.0648388671875,-0.158515625],[-0.0648388671875,-0.158515625],[-0.0648388671875,-0.158515625],[-0.0648388671875,-0.158515625],[-0.0648388671875,-0.158515625],[-0.0648388671875,-0.158515625],[-0.0648388671875,-0.158515625],[-0.0648388671875,-0.158515625],[-0.0648388671875,-0.158515625],[-0.0648388671875,-0.158515625],[-0.0642333984375,-0.158515625],[-0.0639306640625,-0.158515625],[-0.0636279296875,-0.158515625],[-0.0636279296875,-0.158828125],[-0.0633251953125,-0.158828125],[-0.0630224609375,-0.158828125],[-0.0630224609375,-0.158828125],[-0.062724609375,-0.158828125],[-0.062421875,-0.158828125],[-0.062119140625,-0.158828125],[-0.06181640625,-0.158828125],[-0.06181640625,-0.158828125],[-0.06181640625,-0.158828125],[-0.06181640625,-0.158828125],[-0.06181640625,-0.158828125],[-0.06181640625,-0.158828125],[-0.06181640625,-0.158828125],[-0.06181640625,-0.158828125],[-0.06181640625,-0.158828125],[-0.06181640625,-0.158828125],[-0.066005859375,-0.1567333984375],[-0.07462890625,-0.1486865234375],[-0.0872802734375,-0.1366357421875],[-0.102763671875,-0.12115234375],[-0.1140869140625,-0.109189453125],[-0.1269189453125,-0.096357421875],[-0.131943359375,-0.0913330078125],[-0.131943359375,-0.0913330078125],[-0.131943359375,-0.0913330078125],[-0.131943359375,-0.0913330078125],[-0.131943359375,-0.0913330078125],[-0.131943359375,-0.0913330078125],[-0.131943359375,-0.0913330078125],[-0.131943359375,-0.0913330078125],[-0.131943359375,-0.0913330078125],[-0.131943359375,-0.0913330078125],[-0.131943359375,-0.0913330078125],[-0.131943359375,-0.0916259765625],[-0.131943359375,-0.0916259765625],[-0.131943359375,-0.091923828125],[-0.131640625,-0.091923828125],[-0.131640625,-0.0922265625],[-0.131640625,-0.0922265625],[-0.1310302734375,-0.0922265625],[-0.1307177734375,-0.0922265625],[-0.1307177734375,-0.0922265625],[-0.1307177734375,-0.0922265625],[-0.1307177734375,-0.0922265625],[-0.131015625,-0.0919287109375],[-0.1349853515625,-0.0875830078125],[-0.143740234375,-0.07771484375],[-0.1549755859375,-0.062734375],[-0.1629736328125,-0.0501318359375],[-0.1710546875,-0.036279296875],[-0.177216796875,-0.023955078125],[-0.1823486328125,-0.0147265625],[-0.1823486328125,-0.0147265625],[-0.1823486328125,-0.0147265625],[-0.1823486328125,-0.0147265625],[-0.1823486328125,-0.0147265625],[-0.1823486328125,-0.0147265625],[-0.1823486328125,-0.0147265625],[-0.1823486328125,-0.0147265625],[-0.1823486328125,-0.0147265625],[-0.1823486328125,-0.0147265625],[-0.1823486328125,-0.0147265625],[-0.1823486328125,-0.0147265625],[-0.1823486328125,-0.0147265625],[-0.1823486328125,-0.0147265625],[-0.1823486328125,-0.0147265625],[-0.1823486328125,-0.0147265625],[-0.1823486328125,-0.0147265625],[-0.1823486328125,-0.0147265625],[-0.1823486328125,-0.0147265625],[-0.1823486328125,-0.0147265625],[-0.1823486328125,-0.0147265625],[-0.1823486328125,-0.0141357421875],[-0.1823486328125,-0.0064501953125],[-0.1789306640625,0.007060546875],[-0.1728759765625,0.0233154296875],[-0.1669580078125,0.0381298828125],[-0.1620166015625,0.04908203125],[-0.157177734375,0.060361328125],[-0.153701171875,0.06732421875],[-0.153701171875,0.06732421875],[-0.153701171875,0.06732421875],[-0.153701171875,0.06732421875],[-0.153701171875,0.06732421875],[-0.153701171875,0.06732421875],[-0.153701171875,0.06732421875],[-0.153701171875,0.06732421875],[-0.153701171875,0.06732421875],[-0.153701171875,0.06732421875],[-0.153701171875,0.06732421875],[-0.153701171875,0.06732421875],[-0.153701171875,0.06671875],[-0.153388671875,0.06640625],[-0.153388671875,0.06609375],[-0.1530859375,0.06609375],[-0.1530859375,0.06609375],[-0.1530859375,0.06609375],[-0.1530859375,0.06609375],[-0.1530859375,0.06609375],[-0.1530859375,0.06609375],[-0.1530859375,0.06609375],[-0.1530859375,0.0663916015625],[-0.1535302734375,0.072060546875],[-0.15408203125,0.0838134765625],[-0.154775390625,0.111728515625],[-0.14267578125,0.1683642578125],[-0.12775390625,0.196240234375],[-0.105322265625,0.2266943359375],[-0.082607421875,0.2494189453125],[-0.0684326171875,0.25986328125],[-0.0533984375,0.269521484375],[-0.0413037109375,0.2744775390625],[-0.0413037109375,0.2744775390625],[-0.0413037109375,0.2744775390625],[-0.0413037109375,0.2744775390625],[-0.0413037109375,0.2744775390625],[-0.0413037109375,0.2744775390625],[-0.0413037109375,0.2744775390625],[-0.0413037109375,0.2744775390625],[-0.0413037109375,0.2744775390625],[-0.0413037109375,0.2744775390625],[-0.0413037109375,0.2744775390625],[-0.0413037109375,0.2744775390625],[-0.0413037109375,0.2744775390625],[-0.0413037109375,0.2744775390625],[-0.0413037109375,0.2744775390625],[-0.0413037109375,0.2744775390625],[-0.0413037109375,0.2744775390625],[-0.03623046875,0.2769580078125],[-0.0285205078125,0.2803173828125],[-0.016767578125,0.283515625],[0.0058349609375,0.2875048828125],[0.0339892578125,0.2918408203125],[0.0510498046875,0.2942333984375],[0.06875,0.2978759765625],[0.080546875,0.3015966796875],[0.085166015625,0.304169921875],[0.085166015625,0.304169921875],[0.085166015625,0.304169921875],[0.085166015625,0.304169921875],[0.085166015625,0.304169921875],[0.085166015625,0.304169921875],[0.085166015625,0.304169921875],[0.085166015625,0.304169921875],[0.085166015625,0.304169921875],[0.085166015625,0.304169921875],[0.085166015625,0.304169921875],[0.0848681640625,0.304169921875],[0.0848681640625,0.304169921875],[0.084248046875,0.304169921875],[0.0839306640625,0.303857421875],[0.0833154296875,0.303857421875],[0.0833154296875,0.303544921875],[0.0833154296875,0.303544921875],[0.085234375,0.303544921875],[0.0941259765625,0.3030322265625],[0.1058984375,0.3019677734375],[0.1208837890625,0.3019677734375],[0.1407373046875,0.3019677734375],[0.16017578125,0.30447265625],[0.1808984375,0.3089794921875],[0.190966796875,0.3115673828125],[0.199853515625,0.3140087890625],[0.2049755859375,0.3157080078125],[0.2085791015625,0.31771484375],[0.2085791015625,0.31771484375],[0.2085791015625,0.31771484375]]]",1,[204],,,,,,,,,,,,,,HorseRaceTrack.jpg,space,4.556105,0,18,18,61,1,metroInside4.jpg,homegarden6.jpg,kindergarten_classroom7.jpg,hayfield6.jpg,,
Image_List_1,,,,,,,,,,,,,,,,44526,2020-11-18_09h48.38.551,analogCatScenes,2020.1.3,MacIntel,60,"[1280,800]","[[[0.0035546875,-0.1975390625],[0.0035546875,-0.1975390625],[0.0035546875,-0.1975390625],[0.0035546875,-0.1975390625],[0.0035546875,-0.1975390625],[0.0035546875,-0.1975390625],[0.0035546875,-0.1975390625],[0.0032568359375,-0.1975390625],[-0.0121875,-0.1975390625],[-0.030078125,-0.1975390625],[-0.07998046875,-0.188662109375],[-0.1253125,-0.1752880859375],[-0.160341796875,-0.16505859375],[-0.1843603515625,-0.158896484375],[-0.199306640625,-0.156142578125],[-0.211923828125,-0.154990234375],[-0.21568359375,-0.154990234375],[-0.21568359375,-0.154990234375],[-0.21568359375,-0.154990234375],[-0.21568359375,-0.154990234375],[-0.21568359375,-0.154990234375],[-0.2169580078125,-0.154990234375]],[[-0.0122509765625,-0.19904296875],[-0.0122509765625,-0.19904296875],[-0.0122509765625,-0.19904296875],[-0.0122509765625,-0.19904296875],[-0.0122509765625,-0.19904296875],[-0.0122509765625,-0.19904296875],[-0.0122509765625,-0.19904296875],[-0.0122509765625,-0.19904296875],[-0.00955078125,-0.19904296875],[-0.0055419921875,-0.198642578125],[-0.00046875,-0.1969384765625],[0.017900390625,-0.1907763671875],[0.0329931640625,-0.1861376953125],[0.049267578125,-0.1800634765625],[0.068154296875,-0.1737060546875],[0.0829345703125,-0.1688134765625],[0.099833984375,-0.1634130859375],[0.114755859375,-0.159951171875],[0.128125,-0.15548828125],[0.128125,-0.15548828125],[0.128125,-0.15548828125],[0.128125,-0.15548828125],[0.128125,-0.15548828125],[0.128125,-0.15548828125],[0.128125,-0.15548828125],[0.1278271484375,-0.15548828125],[0.1275244140625,-0.15548828125],[0.127216796875,-0.15548828125],[0.1268994140625,-0.15580078125],[0.126240234375,-0.156787109375],[0.1252197265625,-0.1577978515625],[0.124560546875,-0.1587841796875],[0.1242431640625,-0.1597705078125],[0.1236083984375,-0.1603955078125],[0.1236083984375,-0.1603955078125],[0.1236083984375,-0.1603955078125],[0.1236083984375,-0.1603955078125],[0.12546875,-0.159462890625],[0.1341552734375,-0.1533203125],[0.1454833984375,-0.1468408203125],[0.165146484375,-0.1369873046875],[0.1876123046875,-0.1275732421875],[0.195302734375,-0.1247509765625],[0.20044921875,-0.1225927734375],[0.2030517578125,-0.12146484375],[0.2036767578125,-0.12146484375],[0.2039892578125,-0.12146484375]]]",2,"[22,47]",,,,,,,,,,,,,,artStudio1.jpg,space,3.648175,0,19,19,4,1,baggageClaim2.jpg,auto_showroom1.jpg,appleorchard3.jpg,alley4.jpg,,
Image_List_1,,,,,,,,,,,,,,,,44526,2020-11-18_09h48.38.551,analogCatScenes,2020.1.3,MacIntel,60,"[1280,800]","[[[0.0037353515625,-0.1941357421875],[0.0037353515625,-0.1941357421875],[0.0037353515625,-0.1941357421875],[0.0037353515625,-0.1941357421875],[0.0037353515625,-0.1941357421875],[0.0037353515625,-0.1941357421875],[0.0037353515625,-0.1941357421875],[0.0037353515625,-0.1941357421875],[0.0037353515625,-0.1941357421875],[0.0037353515625,-0.1941357421875],[0.006337890625,-0.1941357421875],[0.012626953125,-0.1941357421875],[0.0221875,-0.1941357421875],[0.0325048828125,-0.1941357421875],[0.0388720703125,-0.1941357421875],[0.0435107421875,-0.1941357421875],[0.0465966796875,-0.1937744140625],[0.0475830078125,-0.1937744140625],[0.0482080078125,-0.1937744140625],[0.0485107421875,-0.1937744140625]],[[-0.0036328125,-0.1952490234375],[-0.0036328125,-0.1952490234375],[-0.0036328125,-0.1952490234375],[-0.0036328125,-0.1952490234375],[-0.0036328125,-0.1952490234375],[-0.0036328125,-0.1952490234375],[-0.005126953125,-0.1952490234375],[-0.01541015625,-0.1952490234375],[-0.0361083984375,-0.1952490234375],[-0.0631201171875,-0.190263671875],[-0.10212890625,-0.1828662109375],[-0.1229638671875,-0.1789892578125],[-0.145234375,-0.1761328125],[-0.1609326171875,-0.1732080078125],[-0.1684521484375,-0.172265625],[-0.1710498046875,-0.17154296875],[-0.1710498046875,-0.17154296875],[-0.1710498046875,-0.17154296875],[-0.1710498046875,-0.17154296875],[-0.1710498046875,-0.17154296875],[-0.1710498046875,-0.17154296875],[-0.1710498046875,-0.17154296875],[-0.1710498046875,-0.17154296875],[-0.1710498046875,-0.1718359375],[-0.1710498046875,-0.172138671875],[-0.1710498046875,-0.17244140625],[-0.1707373046875,-0.172744140625],[-0.1704248046875,-0.173056640625],[-0.1701123046875,-0.173369140625],[-0.1701123046875,-0.173369140625],[-0.1701123046875,-0.173369140625],[-0.1701123046875,-0.172763671875],[-0.1835888671875,-0.1565771484375],[-0.2075830078125,-0.1196240234375],[-0.262958984375,-0.0329541015625],[-0.2802197265625,-0.0015576171875],[-0.288310546875,0.0144970703125],[-0.2947314453125,0.02662109375],[-0.2947314453125,0.02662109375],[-0.2947314453125,0.02662109375],[-0.2947314453125,0.02662109375],[-0.2947314453125,0.02662109375],[-0.2947314453125,0.02662109375],[-0.2947314453125,0.02662109375],[-0.2947314453125,0.02662109375],[-0.2947314453125,0.02662109375],[-0.2947314453125,0.02662109375],[-0.2947314453125,0.02662109375],[-0.2947314453125,0.02662109375],[-0.2947314453125,0.02662109375]]]",2,"[20,50]",,,,,,,,,,,,,,ATM1.jpg,space,3.384375,0,20,20,6,1,banquetHall2.jpg,auto_showroom5.jpg,baggageClaim1.jpg,apartmentBuilding3.jpg,,
