image_list,key_resp_intructions.keys,key_resp_intructions.rt,key_resp_intructions_3.keys,key_resp_intructions_3.rt,PracticeComplete_2.keys,PracticeComplete_2.rt,PracticeComplete_3.keys,PracticeComplete_3.rt,demo_trials.thisRepN,demo_trials.thisTrialN,demo_trials.thisN,demo_trials.thisIndex,demo_trials.ran,demo_images,path_images,participant,date,expName,psychopyVersion,OS,frameRate,windowSize,practice_complete.keys,practice_complete.rt,boxes_checked,PracticeComplete.keys,PracticeComplete.rt,practice_trials.thisRepN,practice_trials.thisTrialN,practice_trials.thisN,practice_trials.thisIndex,practice_trials.ran,practice_images,feedback_images,key_resp_intructions_2.keys,key_resp_intructions_2.rt,Image_List_3,trial_complete.keys,trial_complete.rt,trial_mouse.x,trial_mouse.y,trial_mouse.leftButton,trial_mouse.midButton,trial_mouse.rightButton,trial_mouse.time,trial_mouse.clicked_name,trials.thisRepN,trials.thisTrialN,trials.thisN,trials.thisIndex,trials.ran,Image_List_1,Image_List_2,Image_List_4,Image_List_5,key_resp.keys,key_resp.rt
Image_List_3,space,13.514485,space,2.802705,space,20.898735,space,7.678175,0,0,0,2,1,ahead_right.jpg,ahead_right_path.jpg,44548,2020-11-17_14h46.12.926,lingCatScenes,2020.1.3,MacIntel,60,,,,,,,,,,,,,,,,,,,,,,,,,,,,,,,,,,,,
Image_List_3,,,,,space,3.150515,space,12.92541,0,1,1,6,1,right_left.jpg,right_left_path.jpg,44548,2020-11-17_14h46.12.926,lingCatScenes,2020.1.3,MacIntel,60,,,,,,,,,,,,,,,,,,,,,,,,,,,,,,,,,,,,
Image_List_3,,,,,space,2.507245,space,2.358945,0,2,2,4,1,left.jpg,left_path.jpg,44548,2020-11-17_14h46.12.926,lingCatScenes,2020.1.3,MacIntel,60,,,,,,,,,,,,,,,,,,,,,,,,,,,,,,,,,,,,
Image_List_3,,,,,space,2.925885,space,5.773655,0,3,3,3,1,ahead_right_left.jpg,ahead_right_left_path.jpg,44548,2020-11-17_14h46.12.926,lingCatScenes,2020.1.3,MacIntel,60,,,,,,,,,,,,,,,,,,,,,,,,,,,,,,,,,,,,
Image_List_3,,,,,space,2.889695,space,1.23645,0,4,4,0,1,ahead.jpg,ahead_path.jpg,44548,2020-11-17_14h46.12.926,lingCatScenes,2020.1.3,MacIntel,60,,,,,,,,,,,,,,,,,,,,,,,,,,,,,,,,,,,,
Image_List_3,,,,,space,3.579505,space,1.250315,0,5,5,1,1,ahead_left.jpg,ahead_left_path.jpg,44548,2020-11-17_14h46.12.926,lingCatScenes,2020.1.3,MacIntel,60,,,,,,,,,,,,,,,,,,,,,,,,,,,,,,,,,,,,
Image_List_3,,,,,space,4.189115,space,1.360405,0,6,6,5,1,right.jpg,right_path.jpg,44548,2020-11-17_14h46.12.926,lingCatScenes,2020.1.3,MacIntel,60,,,,,,,,,,,,,,,,,,,,,,,,,,,,,,,,,,,,
Image_List_3,,,,,,,,,,,,,,,,44548,2020-11-17_14h46.12.926,lingCatScenes,2020.1.3,MacIntel,60,"[1440,900]",space,3.095625,[],space,0.80989,0,0,0,0,1,ahead_2.jpg,ahead_2_path.jpg,,,,,,,,,,,,,,,,,,,,,,,
Image_List_3,,,,,,,,,,,,,,,,44548,2020-11-17_14h46.12.926,lingCatScenes,2020.1.3,MacIntel,60,"[1440,900]",space,12.12939,"[""right_box""]",space,4.63751,0,1,1,5,1,right_2.jpg,right_2_path.jpg,,,,,,,,,,,,,,,,,,,,,,,
Image_List_3,,,,,,,,,,,,,,,,44548,2020-11-17_14h46.12.926,lingCatScenes,2020.1.3,MacIntel,60,"[1440,900]",space,7.49481,"[""sharp_right_box"",""ahead_box""]",space,2.263815,0,2,2,2,1,ahead_right_2.jpg,ahead_right_2_path.jpg,,,,,,,,,,,,,,,,,,,,,,,
Image_List_3,,,,,,,,,,,,,,,,44548,2020-11-17_14h46.12.926,lingCatScenes,2020.1.3,MacIntel,60,"[1440,900]",space,8.102425,"[""left_box""]",space,1.486865,0,3,3,4,1,left_2.jpg,left_2_path.jpg,,,,,,,,,,,,,,,,,,,,,,,
Image_List_3,,,,,,,,,,,,,,,,44548,2020-11-17_14h46.12.926,lingCatScenes,2020.1.3,MacIntel,60,"[1440,900]",space,5.736255,"[""sharp_left_box"",""sharp_right_box""]",space,1.53215,0,4,4,6,1,right_left_2.jpg,right_left_2_path.jpg,,,,,,,,,,,,,,,,,,,,,,,
Image_List_3,,,,,,,,,,,,,,,,44548,2020-11-17_14h46.12.926,lingCatScenes,2020.1.3,MacIntel,60,"[1440,900]",space,6.06898,"[""ahead_box""]",space,2.097405,0,5,5,1,1,ahead_left_2.jpg,ahead_left_2_path.jpg,,,,,,,,,,,,,,,,,,,,,,,
Image_List_3,,,,,,,,,,,,,,,,44548,2020-11-17_14h46.12.926,lingCatScenes,2020.1.3,MacIntel,60,"[1440,900]",space,15.24415,"[""left_box"",""slight_left_box"",""ahead_box"",""slight_right_box"",""right_box""]",space,1.684205,0,6,6,3,1,ahead_right_left_2.jpg,ahead_right_left_2_path.jpg,,,,,,,,,,,,,,,,,,,,,,,
Image_List_3,,,,,,,,,,,,,,,,44548,2020-11-17_14h46.12.926,lingCatScenes,2020.1.3,MacIntel,60,"[1440,900]",,,"[""trial_left_box"",""trial_right_box""]",,,,,,,,,,space,5.21086,sculpturegarden4.jpg,space,8.817015,"[-0.39358506944444444,0.42886284722222223,0.4161458333333333]","[-0.3206076388888889,-0.2850173611111111,-0.3027126736111111]","[1,1,1]","[0,0,0]","[0,0,0]","[6.261434999993071,7.414284999977099,8.36555999997654]","[""trial_left_box"",""trial_right_box""]",0,0,0,88,1,rooftop1.jpg,track.jpg,soccerfield.jpg,sandbox.jpg,,
Image_List_3,,,,,,,,,,,,,,,,44548,2020-11-17_14h46.12.926,lingCatScenes,2020.1.3,MacIntel,60,"[1440,900]",,,"[""trial_right_box"",""trial_left_box"",""trial_ahead_box""]",,,,,,,,,,,,ballroom2.jpg,space,8.054345,"[-0.4024392361111111,0.39612413194444446,-0.3998307291666667,0.03263888888888889,0.0067708333333333336]","[-0.32697482638888886,-0.3056987847222222,-0.31377604166666667,-0.2854861111111111,-0.28770833333333334]","[1,1,1,1,1]","[0,0,0,0,0]","[0,0,0,0,0]","[3.3519500000111293,4.138265000015963,6.160295000008773,7.079365000012331,7.597635000012815]","[""trial_right_box"",""trial_left_box"",""trial_ahead_box""]",0,1,1,9,1,auto_showroom3.jpg,bar2.jpg,basement5.jpg,arcade2.jpg,,
Image_List_3,,,,,,,,,,,,,,,,44548,2020-11-17_14h46.12.926,lingCatScenes,2020.1.3,MacIntel,60,"[1440,900]",,,"[""trial_ahead_box""]",,,,,,,,,,,,dock1.jpg,space,3.19188,[-0.009379340277777778],[-0.31313368055555557],[1],[0],[0],[2.2502349999849685],"[""trial_ahead_box""]",0,2,2,38,1,dining_car2.jpg,elevatorOutside4.jpg,driveway8.jpg,classroom1.jpg,,
Image_List_3,,,,,,,,,,,,,,,,44548,2020-11-17_14h46.12.926,lingCatScenes,2020.1.3,MacIntel,60,"[1440,900]",,,"[""trial_right_box""]",,,,,,,,,,,,bistrooutdoor5.jpg,space,3.30651,[0.40680555555555553],[-0.29412760416666667],[1],[0],[0],[2.95068499998888],"[""trial_right_box""]",0,3,3,14,1,ballroom1.jpg,breakroom5.jpg,botanicalGarden5.jpg,ballroom3.jpg,,
Image_List_3,,,,,,,,,,,,,,,,44548,2020-11-17_14h46.12.926,lingCatScenes,2020.1.3,MacIntel,60,"[1440,900]",,,"[""trial_ahead_box"",""trial_slight_left_box""]",,,,,,,,,,,,parkinggarage3.jpg,space,6.557305,"[0.006293402777777778,-0.19625868055555556]","[-0.3158420138888889,-0.3173871527777778]","[1,1]","[0,0]","[0,0]","[5.0741149999958,5.942949999996927]","[""trial_ahead_box"",""trial_slight_left_box""]",0,4,4,76,1,parkinggarage.jpg,playroom4.jpg,park2.jpg,lookout4.jpg,,
Image_List_3,,,,,,,,,,,,,,,,44548,2020-11-17_14h46.12.926,lingCatScenes,2020.1.3,MacIntel,60,"[1440,900]",,,"[""trial_slight_right_box""]",,,,,,,,,,,,farmersmarket4.jpg,space,5.93864,"[0.20407118055555556,0.19450086805555555]","[-0.33001302083333334,-0.3040451388888889]","[1,1]","[0,0]","[0,0]","[4.237565000017639,5.490929999999935]","[""trial_slight_right_box""]",0,5,5,46,1,flowershop.jpg,frontLawn5.jpg,fountain4.jpg,dormroom6.jpg,,
Image_List_3,,,,,,,,,,,,,,,,44548,2020-11-17_14h46.12.926,lingCatScenes,2020.1.3,MacIntel,60,"[1440,900]",,,"[""trial_ahead_box"",""trial_slight_right_box""]",,,,,,,,,,,,ruralroad2.jpg,space,5.35541,"[-0.0011371527777777777,0.0034548611111111112,0.18578993055555557]","[-0.33436631944444445,-0.3193315972222222,-0.31850694444444444]","[1,1,1]","[0,0,0]","[0,0,0]","[2.85120000000461,4.020625000004657,4.689494999998715]","[""trial_ahead_box"",""trial_slight_right_box""]",0,6,6,85,1,recordingstudio4.jpg,sidewalk5.jpg,sandDunes_desert_outdoor3.jpg,rooftop3.jpg,,
Image_List_3,,,,,,,,,,,,,,,,44548,2020-11-17_14h46.12.926,lingCatScenes,2020.1.3,MacIntel,60,"[1440,900]",,,"[""trial_slight_right_box"",""trial_ahead_box""]",,,,,,,,,,,,laundromat3.jpg,space,6.52509,"[0.21055555555555555,0.004713541666666667]","[-0.31203125,-0.3098090277777778]","[1,1]","[0,0]","[0,0]","[4.489014999999199,6.009190000011586]","[""trial_slight_right_box"",""trial_ahead_box""]",0,7,7,66,1,library_aisle10.jpg,office3.jpg,liquorstore.jpg,horsebarn9.jpg,,
Image_List_3,,,,,,,,,,,,,,,,44548,2020-11-17_14h46.12.926,lingCatScenes,2020.1.3,MacIntel,60,"[1440,900]",,,"[""trial_ahead_box"",""trial_left_box"",""trial_right_box""]",,,,,,,,,,,,hedgemaze1.jpg,space,6.62537,"[0.004713541666666667,-0.3812977430555556,0.39401475694444443]","[-0.31092013888888886,-0.3190407986111111,-0.2898394097222222]","[1,1,1]","[0,0,0]","[0,0,0]","[3.5701000000117347,4.905839999992168,6.11181500001112]","[""trial_ahead_box"",""trial_left_box"",""trial_right_box""]",0,8,8,58,1,highway7.jpg,lab1.jpg,igloo4.jpg,grocerystore2.jpg,,
Image_List_3,,,,,,,,,,,,,,,,44548,2020-11-17_14h46.12.926,lingCatScenes,2020.1.3,MacIntel,60,"[1440,900]",,,[],,,,,,,,,,,,musicStore1.jpg,space,4.003355,[],[],[],[],[],[],[],0,9,9,72,1,museum5.jpg,pharmacy4.jpg,museum4.jpg,kindergarten_classroom.jpg,,
Image_List_3,,,,,,,,,,,,,,,,44548,2020-11-17_14h46.12.926,lingCatScenes,2020.1.3,MacIntel,60,"[1440,900]",,,"[""trial_ahead_box""]",,,,,,,,,,,,clothingstore2.jpg,space,0.897985,[0.011875],[-0.31570746527777777],[1],[0],[0],[0.5617500000225846],"[""trial_ahead_box""]",0,10,10,30,1,courthouse1.jpg,desertvegetation3.jpg,copyroom2.jpg,bus_shelter3.jpg,,
Image_List_3,,,,,,,,,,,,,,,,44548,2020-11-17_14h46.12.926,lingCatScenes,2020.1.3,MacIntel,60,"[1440,900]",,,"[""trial_ahead_box""]",,,,,,,,,,,,drycleaners6.jpg,space,1.88671,[0.015355902777777777],[-0.31991319444444444],[1],[0],[0],[0.5443000000086613],"[""trial_ahead_box""]",0,11,11,39,1,driveway6.jpg,eyeglassstore9.jpg,drymountains5.jpg,cliff5.jpg,,
Image_List_3,,,,,,,,,,,,,,,,44548,2020-11-17_14h46.12.926,lingCatScenes,2020.1.3,MacIntel,60,"[1440,900]",,,"[""trial_ahead_box""]",,,,,,,,,,,,dugout2.jpg,space,0.60974,[0.019947916666666666],[-0.32450520833333335],[1],[0],[0],[0.3778450000099838],"[""trial_ahead_box""]",0,12,12,43,1,exerciseequipment5.jpg,forestpath10.jpg,foodcourt.jpg,diningroom3.jpg,,
Image_List_3,,,,,,,,,,,,,,,,44548,2020-11-17_14h46.12.926,lingCatScenes,2020.1.3,MacIntel,60,"[1440,900]",,,"[""trial_ahead_box""]",,,,,,,,,,,,applestore1.jpg,space,0.558795,[0.019947916666666666],[-0.32450520833333335],[1],[0],[0],[0.3111600000120234],"[""trial_ahead_box""]",0,13,13,1,1,airportTerminal4.jpg,apartmentBuilding1.jpg,airportTerminal3.jpg,airportTerminal2.jpg,,
Image_List_3,,,,,,,,,,,,,,,,44548,2020-11-17_14h46.12.926,lingCatScenes,2020.1.3,MacIntel,60,"[1440,900]",,,"[""trial_ahead_box""]",,,,,,,,,,,,lockerroom3.jpg,space,0.443335,[0.019947916666666666],[-0.32450520833333335],[1],[0],[0],[0.2454299999808427],"[""trial_ahead_box""]",0,14,14,70,1,lockerroom4.jpg,pavilion.jpg,minigolf8.jpg,igloo.jpg,,
Image_List_3,,,,,,,,,,,,,,,,44548,2020-11-17_14h46.12.926,lingCatScenes,2020.1.3,MacIntel,60,"[1440,900]",,,"[""trial_ahead_box""]",,,,,,,,,,,,citystreet10.jpg,space,0.32859,[0.019947916666666666],[-0.32450520833333335],[1],[0],[0],[0.19459999998798594],"[""trial_ahead_box""]",0,15,15,28,1,churchInside1.jpg,dancestudio5.jpg,clothingstore5.jpg,bridalboutique2.jpg,,
Image_List_3,,,,,,,,,,,,,,,,44548,2020-11-17_14h46.12.926,lingCatScenes,2020.1.3,MacIntel,60,"[1440,900]",,,"[""trial_ahead_box""]",,,,,,,,,,,,staircase6.jpg,space,0.32625,[0.019947916666666666],[-0.32450520833333335],[1],[0],[0],[0.2448549999971874],"[""trial_ahead_box""]",0,16,16,94,1,treehouse.jpg,waitingroom3.jpg,weightroom.jpg,trainStation3.jpg,,
Image_List_3,,,,,,,,,,,,,,,,44548,2020-11-17_14h46.12.926,lingCatScenes,2020.1.3,MacIntel,60,"[1440,900]",,,[],,,,,,,,,,,,bambooforest5.jpg,space,0.30823,[0.019947916666666666],[-0.32450520833333335],[1],[0],[0],[0.24378000001888722],"[""trial_ahead_box""]",0,17,17,12,1,baggageClaim4.jpg,bedroom6.jpg,bleachers7.jpg,backyard5.jpg,,
Image_List_3,,,,,,,,,,,,,,,,44548,2020-11-17_14h46.12.926,lingCatScenes,2020.1.3,MacIntel,60,"[1440,900]",,,[],,,,,,,,,,,,homegarage.jpg,space,0.370455,[0.019947916666666666],[-0.32450520833333335],[1],[0],[0],[0.27857999998377636],"[""trial_ahead_box""]",0,18,18,60,1,hometheater2.jpg,lightingstore3.jpg,kindergarten_classroom6.jpg,hallway.jpg,,
Image_List_3,,,,,,,,,,,,,,,,44548,2020-11-17_14h46.12.926,lingCatScenes,2020.1.3,MacIntel,60,"[1440,900]",,,[],,,,,,,,,,,,backstage1.jpg,space,0.36115,[0.019947916666666666],[-0.32450520833333335],[1],[0],[0],[0.24320499997702427],"[""trial_ahead_box""]",0,19,19,7,1,attic2.jpg,banquetHall4.jpg,baggageClaim3.jpg,applestore2.jpg,,
Image_List_3,,,,,,,,,,,,,,,,44548,2020-11-17_14h46.12.926,lingCatScenes,2020.1.3,MacIntel,60,"[1440,900]",,,"[""trial_ahead_box""]",,,,,,,,,,,,skatepark5.jpg,space,0.4087,[0.019947916666666666],[-0.32450520833333335],[1],[0],[0],[0.19518500001868233],"[""trial_ahead_box""]",0,20,20,91,1,shoestore2.jpg,trainStation5.jpg,ticket_counter6.jpg,sidewalk3.jpg,,
Image_List_3,,,,,,,,,,,,,,,,44548,2020-11-17_14h46.12.926,lingCatScenes,2020.1.3,MacIntel,60,"[1440,900]",,,"[""trial_ahead_box""]",,,,,,,,,,,,elevatorOutside1.jpg,space,0.42769,[0.01767795138888889],[-0.32450520833333335],[1],[0],[0],[0.24447000000509433],"[""trial_ahead_box""]",0,21,21,44,1,firestation2.jpg,frontFoyer4.jpg,foodcourt6.jpg,dock2.jpg,,
Image_List_3,,,,,,,,,,,,,,,,44548,2020-11-17_14h46.12.926,lingCatScenes,2020.1.3,MacIntel,60,"[1440,900]",,,"[""trial_ahead_box""]",,,,,,,,,,,,fittingroom5.jpg,space,0.34384,[0.015403645833333333],[-0.32450520833333335],[1],[0],[0],[0.22674000001279637],"[""trial_ahead_box""]",0,22,22,48,1,frontDoor2.jpg,golfcourse6.jpg,golfcourse7.jpg,fabricstore2.jpg,,
Image_List_3,,,,,,,,,,,,,,,,44548,2020-11-17_14h46.12.926,lingCatScenes,2020.1.3,MacIntel,60,"[1440,900]",,,"[""trial_ahead_box""]",,,,,,,,,,,,highway4.jpg,space,0.39135,[0.01463107638888889],[-0.32450520833333335],[1],[0],[0],[0.24460500001441687],"[""trial_ahead_box""]",0,23,23,59,1,homegarden7.jpg,library_aisle8.jpg,kindergarten_classroom5.jpg,grocerystore3.jpg,,
Image_List_3,,,,,,,,,,,,,,,,44548,2020-11-17_14h46.12.926,lingCatScenes,2020.1.3,MacIntel,60,"[1440,900]",,,"[""trial_ahead_box""]",,,,,,,,,,,,forestpath6.jpg,space,0.35714,[0.01463107638888889],[-0.32450520833333335],[1],[0],[0],[0.17614000002504326],"[""trial_ahead_box""]",0,24,24,50,1,frontLawn4.jpg,grocerystore6.jpg,hallway2.jpg,fireplace4.jpg,,
Image_List_3,,,,,,,,,,,,,,,,44548,2020-11-17_14h46.12.926,lingCatScenes,2020.1.3,MacIntel,60,"[1440,900]",,,"[""trial_ahead_box""]",,,,,,,,,,,,church4.jpg,space,0.325025,[0.01463107638888889],[-0.32450520833333335],[1],[0],[0],[0.1775000000197906],"[""trial_ahead_box""]",0,25,25,26,1,campusquad2.jpg,cornfield4.jpg,churchInside3.jpg,botanicalGarden7.jpg,,
Image_List_3,,,,,,,,,,,,,,,,44548,2020-11-17_14h46.12.926,lingCatScenes,2020.1.3,MacIntel,60,"[1440,900]",,,"[""trial_ahead_box""]",,,,,,,,,,,,auto_showroom5.jpg,space,0.33307,[0.01463107638888889],[-0.32450520833333335],[1],[0],[0],[0.17926999999326654],"[""trial_ahead_box""]",0,26,26,6,1,ATM1.jpg,banquetHall2.jpg,baggageClaim1.jpg,apartmentBuilding3.jpg,,
Image_List_3,,,,,,,,,,,,,,,,44548,2020-11-17_14h46.12.926,lingCatScenes,2020.1.3,MacIntel,60,"[1440,900]",,,"[""trial_ahead_box""]",,,,,,,,,,,,golfcourse10.jpg,space,0.330805,[0.013519965277777778],[-0.32450520833333335],[1],[0],[0],[0.22790500000701286],"[""trial_ahead_box""]",0,27,27,56,1,grocerystore5.jpg,hut3.jpg,hut1.jpg,gasstation2.jpg,,
Image_List_3,,,,,,,,,,,,,,,,44548,2020-11-17_14h46.12.926,lingCatScenes,2020.1.3,MacIntel,60,"[1440,900]",,,"[""trial_ahead_box""]",,,,,,,,,,,,skatepark7.jpg,space,0.39318,[0.013519965277777778],[-0.32450520833333335],[1],[0],[0],[0.2273799999966286],"[""trial_ahead_box""]",0,28,28,92,1,staircase.jpg,volleyballcourt.jpg,tvstudio2.jpg,soccerfield2.jpg,,
Image_List_3,,,,,,,,,,,,,,,,44548,2020-11-17_14h46.12.926,lingCatScenes,2020.1.3,MacIntel,60,"[1440,900]",,,"[""trial_ahead_box""]",,,,,,,,,,,,campusquad3.jpg,space,0.32601,[0.011297743055555556],[-0.32450520833333335],[1],[0],[0],[0.194759999983944],"[""trial_ahead_box""]",0,29,29,21,1,botanicalGarden6.jpg,cemetery6.jpg,cave5.jpg,beach1.jpeg,,
Image_List_3,,,,,,,,,,,,,,,,44548,2020-11-17_14h46.12.926,lingCatScenes,2020.1.3,MacIntel,60,"[1440,900]",,,"[""trial_ahead_box""]",,,,,,,,,,,,churchInside4.jpg,space,0.32582,[0.011297743055555556],[-0.32450520833333335],[1],[0],[0],[0.21183499999460764],"[""trial_ahead_box""]",0,30,30,27,1,castle3.jpg,courtroom3.jpg,closet.jpg,brewery2.jpg,,
Image_List_3,,,,,,,,,,,,,,,,44548,2020-11-17_14h46.12.926,lingCatScenes,2020.1.3,MacIntel,60,"[1440,900]",,,"[""trial_ahead_box""]",,,,,,,,,,,,frontDoor5.jpg,space,0.30646,[0.011297743055555556],[-0.32450520833333335],[1],[0],[0],[0.17810000001918525],"[""trial_ahead_box""]",0,31,31,51,1,gasstation6.jpg,hallway5.jpg,hayfield4.jpg,firestation5.jpg,,
Image_List_3,,,,,,,,,,,,,,,,44548,2020-11-17_14h46.12.926,lingCatScenes,2020.1.3,MacIntel,60,"[1440,900]",,,"[""trial_ahead_box""]",,,,,,,,,,,,drymountains3.jpg,space,0.296,[0.011297743055555556],[-0.32450520833333335],[1],[0],[0],[0.1781100000080187],"[""trial_ahead_box""]",0,32,32,41,1,dugout4.jpg,farm3.jpg,fabricstore1.jpg,dentist2.jpg,,
Image_List_3,,,,,,,,,,,,,,,,44548,2020-11-17_14h46.12.926,lingCatScenes,2020.1.3,MacIntel,60,"[1440,900]",,,[],,,,,,,,,,,,factory1.jpg,space,0.29187,[0.011297743055555556],[-0.32450520833333335],[1],[0],[0],[0.19548500000382774],"[""trial_ahead_box""]",0,33,33,45,1,fittingroom2.jpg,frontFoyer7.jpg,forestpath4.jpg,dock4.jpg,,
Image_List_3,,,,,,,,,,,,,,,,44548,2020-11-17_14h46.12.926,lingCatScenes,2020.1.3,MacIntel,60,"[1440,900]",,,[],,,,,,,,,,,,courthouse4.jpg,space,0.31861,[0.011297743055555556],[-0.32450520833333335],[1],[0],[0],[0.17634000000543892],"[""trial_ahead_box""]",0,34,34,34,1,deck4.jpg,diningroom5.jpg,diner11.jpg,campusquad1.jpg,,
Image_List_3,,,,,,,,,,,,,,,,44548,2020-11-17_14h46.12.926,lingCatScenes,2020.1.3,MacIntel,60,"[1440,900]",,,"[""trial_ahead_box""]",,,,,,,,,,,,dinosaur4.jpg,space,0.29622,[0.011297743055555556],[-0.32450520833333335],[1],[0],[0],[0.12737500001094304],"[""trial_ahead_box""]",0,35,35,37,1,dining_car.jpg,driveway4.jpg,driveway7.jpg,citystreet9.jpg,,
Image_List_3,,,,,,,,,,,,,,,,44548,2020-11-17_14h46.12.926,lingCatScenes,2020.1.3,MacIntel,60,"[1440,900]",,,"[""trial_ahead_box""]",,,,,,,,,,,,aquarium1.jpg,space,0.349255,[0.011297743055555556],[-0.32450520833333335],[1],[0],[0],[0.12771999998949468],"[""trial_ahead_box""]",0,36,36,3,1,apartmentBuilding2.jpg,attic1.jpg,appleorchard2.jpg,alley3.jpg,,
Image_List_3,,,,,,,,,,,,,,,,44548,2020-11-17_14h46.12.926,lingCatScenes,2020.1.3,MacIntel,60,"[1440,900]",,,[],,,,,,,,,,,,auto_showroom1.jpg,space,0.334505,"[0.011297743055555556,0.007916666666666667]","[-0.32450520833333335,-0.32450520833333335]","[1,1]","[0,0]","[0,0]","[0.010589999990770593,0.32889000000432134]","[""trial_ahead_box"",""trial_ahead_box""]",0,37,37,4,1,artStudio1.jpg,baggageClaim2.jpg,appleorchard3.jpg,alley4.jpg,,
Image_List_3,,,,,,,,,,,,,,,,44548,2020-11-17_14h46.12.926,lingCatScenes,2020.1.3,MacIntel,60,"[1440,900]",,,[],,,,,,,,,,,,frontFoyer6.jpg,space,0.39205,[0.006805555555555555],[-0.32450520833333335],[1],[0],[0],[0.3296449999907054],"[""trial_ahead_box""]",0,38,38,52,1,gasstation7.jpg,hardwarestore1.jpg,highway.jpg,forestpath2.jpg,,
Image_List_3,,,,,,,,,,,,,,,,44548,2020-11-17_14h46.12.926,lingCatScenes,2020.1.3,MacIntel,60,"[1440,900]",,,"[""trial_ahead_box""]",,,,,,,,,,,,breakroom2.jpg,space,0.371395,[-0.00016059027777777778],[-0.3268272569444444],[1],[0],[0],[0.26167499998700805],[],0,39,39,16,1,basement.jpg,cafeteria6.jpg,campusquad4.jpg,barbershop2.jpg,,
Image_List_3,,,,,,,,,,,,,,,,44548,2020-11-17_14h46.12.926,lingCatScenes,2020.1.3,MacIntel,60,"[1440,900]",,,[],,,,,,,,,,,,carmechanic4.jpeg,space,0.362535,[-0.003689236111111111],[-0.3268272569444444],[1],[0],[0],[0.16048500000033528],[],0,40,40,23,1,bus_shelter.jpg,church8.jpg,cemetery3.jpg,bleachers6.jpg,,
Image_List_3,,,,,,,,,,,,,,,,44548,2020-11-17_14h46.12.926,lingCatScenes,2020.1.3,MacIntel,60,"[1440,900]",,,[],,,,,,,,,,,,firestation4.jpg,space,0.40747,"[-0.010603298611111112,-0.016358506944444445]","[-0.32914930555555555,-0.32914930555555555]","[1,1]","[0,0]","[0,0]","[0.07839999999850988,0.4292399999976624]",[],0,41,41,47,1,frontDoor.jpg,gasstation8.jpg,fountain7.jpg,elevatorOutside2.jpg,,
Image_List_3,,,,,,,,,,,,,,,,44548,2020-11-17_14h46.12.926,lingCatScenes,2020.1.3,MacIntel,60,"[1440,900]",,,[],,,,,,,,,,,,promenadeDeck3.jpg,space,0.650405,[-0.032556423611111114],[-0.3384331597222222],[1],[0],[0],[0.45609500000136904],[],0,42,42,82,1,publicrestroom2.jpg,sandDunes_desert_outdoor9.jpg,readingroom4.jpg,postoffice4.jpg,,
Image_List_3,,,,,,,,,,,,,,,,44548,2020-11-17_14h46.12.926,lingCatScenes,2020.1.3,MacIntel,60,"[1440,900]",,,[],,,,,,,,,,,,ballroom4.jpg,space,0.528305,[-0.05803819444444445],[-0.3592708333333333],[1],[0],[0],[0.3617300000041723],[],0,43,43,10,1,backstage2.jpg,barbershop3.jpg,basketballcourt3.jpg,ATM4.jpg,,
Image_List_3,,,,,,,,,,,,,,,,44548,2020-11-17_14h46.12.926,lingCatScenes,2020.1.3,MacIntel,60,"[1440,900]",,,"[""trial_ahead_box""]",,,,,,,,,,,,livingroom.jpg,space,1.469345,[-0.02017795138888889],[-0.30864583333333334],[1],[0],[0],[1.3461649999953806],"[""trial_ahead_box""]",0,44,44,69,1,liquorstore8.jpg,parkinglot2.jpg,metroInside1.jpg,icecream2.jpg,,
Image_List_3,,,,,,,,,,,,,,,,44548,2020-11-17_14h46.12.926,lingCatScenes,2020.1.3,MacIntel,60,"[1440,900]",,,[],,,,,,,,,,,,church3.jpg,space,0.428495,[-0.02017795138888889],[-0.30864583333333334],[1],[0],[0],[0.24546999999438412],"[""trial_ahead_box""]",0,45,45,25,1,campsite7.jpg,conference3.jpg,checkoutcounter2.jpg,botanicalGarden4.jpg,,
Image_List_3,,,,,,,,,,,,,,,,44548,2020-11-17_14h46.12.926,lingCatScenes,2020.1.3,MacIntel,60,"[1440,900]",,,"[""trial_ahead_box""]",,,,,,,,,,,,ShowJumping7.jpg,space,0.469035,[-0.02017795138888889],[-0.30864583333333334],[1],[0],[0],[0.19404499998199753],"[""trial_ahead_box""]",0,46,46,89,1,ruralroad7.jpg,track5.jpg,staircase7.jpg,sculpturegarden3.jpg,,
Image_List_3,,,,,,,,,,,,,,,,44548,2020-11-17_14h46.12.926,lingCatScenes,2020.1.3,MacIntel,60,"[1440,900]",,,"[""trial_ahead_box""]",,,,,,,,,,,,promenadeDeck6.jpg,space,0.414105,[-0.02017795138888889],[-0.30864583333333334],[1],[0],[0],[0.21148999998695217],"[""trial_ahead_box""]",0,47,47,83,1,readingroom1.jpg,sculpturegarden1.jpg,restaurant8.jpg,readingroom2.jpg,,
Image_List_3,,,,,,,,,,,,,,,,44548,2020-11-17_14h46.12.926,lingCatScenes,2020.1.3,MacIntel,60,"[1440,900]",,,"[""trial_ahead_box""]",,,,,,,,,,,,promenadeDeck2.jpg,space,0.40014,[-0.02017795138888889],[-0.30864583333333334],[1],[0],[0],[0.19457500000135042],"[""trial_ahead_box""]",0,48,48,81,1,promenadeDeck.jpg,ruralroad5.jpg,rainforest5.jpg,pasture8.jpg,,
Image_List_3,,,,,,,,,,,,,,,,44548,2020-11-17_14h46.12.926,lingCatScenes,2020.1.3,MacIntel,60,"[1440,900]",,,"[""trial_ahead_box""]",,,,,,,,,,,,lightingstore4.jpg,space,0.393,[-0.02017795138888889],[-0.30864583333333334],[1],[0],[0],[0.2131400000071153],"[""trial_ahead_box""]",0,49,49,68,1,liquorstore7.jpg,parkinglot.jpg,lockerroom2.jpg,hospitalroom3.jpg,,
Image_List_3,,,,,,,,,,,,,,,,44548,2020-11-17_14h46.12.926,lingCatScenes,2020.1.3,MacIntel,60,"[1440,900]",,,"[""trial_ahead_box""]",,,,,,,,,,,,conference4.jpg,space,0.384585,[-0.0212890625],[-0.30864583333333334],[1],[0],[0],[0.16124000001582317],"[""trial_ahead_box""]",0,50,50,31,1,cubicle4.jpg,desertvegetation6.jpg,courtroom2.jpg,cabin3.jpg,,
Image_List_3,,,,,,,,,,,,,,,,44548,2020-11-17_14h46.12.926,lingCatScenes,2020.1.3,MacIntel,60,"[1440,900]",,,"[""trial_ahead_box""]",,,,,,,,,,,,horsebarn8.jpg,space,0.422145,[-0.0212890625],[-0.30864583333333334],[1],[0],[0],[0.14496000000508502],"[""trial_ahead_box""]",0,51,51,62,1,hotellobby2.jpg,minigolf.jpg,lab3.jpg,hayfield7.jpg,,
Image_List_3,,,,,,,,,,,,,,,,44548,2020-11-17_14h46.12.926,lingCatScenes,2020.1.3,MacIntel,60,"[1440,900]",,,"[""trial_ahead_box""]",,,,,,,,,,,,playground9.jpg,space,0.359595,[-0.0212890625],[-0.30864583333333334],[1],[0],[0],[0.06039499997859821],"[""trial_ahead_box""]",0,52,52,79,1,pasture.jpg,poolhall2.jpeg,pier2.jpg,observatory2.jpg,,
Image_List_3,,,,,,,,,,,,,,,,44548,2020-11-17_14h46.12.926,lingCatScenes,2020.1.3,MacIntel,60,"[1440,900]",,,"[""trial_ahead_box""]",,,,,,,,,,,,homegarden6.jpg,space,0.360155,[-0.022400173611111112],[-0.30864583333333334],[1],[0],[0],[0.11113499998464249],"[""trial_ahead_box""]",0,53,53,61,1,HorseRaceTrack.jpg,metroInside4.jpg,kindergarten_classroom7.jpg,hayfield6.jpg,,
Image_List_3,,,,,,,,,,,,,,,,44548,2020-11-17_14h46.12.926,lingCatScenes,2020.1.3,MacIntel,60,"[1440,900]",,,"[""trial_ahead_box""]",,,,,,,,,,,,cave6.jpg,space,0.365555,[-0.022400173611111112],[-0.30864583333333334],[1],[0],[0],[0.14422000001650304],"[""trial_ahead_box""]",0,54,54,24,1,campsite.jpg,cliff3.jpg,cemetery5.jpg,boardwalk.jpg,,
Image_List_3,,,,,,,,,,,,,,,,44548,2020-11-17_14h46.12.926,lingCatScenes,2020.1.3,MacIntel,60,"[1440,900]",,,"[""trial_ahead_box""]",,,,,,,,,,,,sidewalk1.jpg,space,0.326675,[-0.022400173611111112],[-0.30864583333333334],[1],[0],[0],[0.12826999998651445],"[""trial_ahead_box""]",0,55,55,90,1,savanna5.jpg,trainStation1.jpg,stripmall3.jpg,shoestore4.jpg,,
Image_List_3,,,,,,,,,,,,,,,,44548,2020-11-17_14h46.12.926,lingCatScenes,2020.1.3,MacIntel,60,"[1440,900]",,,"[""trial_ahead_box""]",,,,,,,,,,,,tenniscourt3.jpg,space,0.358935,[-0.022400173611111112],[-0.30864583333333334],[1],[0],[0],[0.14378000001306646],"[""trial_ahead_box""]",0,56,56,96,1,warehouse4.jpg,warehouseoutside1.jpg,windmill1.jpg,warehouse1.jpg,,
Image_List_3,,,,,,,,,,,,,,,,44548,2020-11-17_14h46.12.926,lingCatScenes,2020.1.3,MacIntel,60,"[1440,900]",,,"[""trial_ahead_box""]",,,,,,,,,,,,waitingroom4.jpg,space,0.361955,[-0.022400173611111112],[-0.30864583333333334],[1],[0],[0],[0.09422999998787418],"[""trial_ahead_box""]",0,57,57,97,1,warehouseoutside4.jpg,wineVineyard2.jpg,winebarrel3.jpg,warehouseoutside3.jpg,,
Image_List_3,,,,,,,,,,,,,,,,44548,2020-11-17_14h46.12.926,lingCatScenes,2020.1.3,MacIntel,60,"[1440,900]",,,[],,,,,,,,,,,,cliff2.jpg,space,0.355035,"[-0.022400173611111112,-0.022400173611111112]","[-0.30864583333333334,-0.30864583333333334]","[1,1]","[0,0]","[0,0]","[0.042985000007320195,0.37710499999229796]","[""trial_ahead_box"",""trial_ahead_box""]",0,58,58,29,1,cornfield2.jpg,deck2.jpg,constructionSite4.jpg,bridalboutique3.jpg,,
Image_List_3,,,,,,,,,,,,,,,,44548,2020-11-17_14h46.12.926,lingCatScenes,2020.1.3,MacIntel,60,"[1440,900]",,,[],,,,,,,,,,,,staircase4.jpg,space,0.333355,[-0.022400173611111112],[-0.30864583333333334],[1],[0],[0],[0.2531650000018999],"[""trial_ahead_box""]",0,59,59,93,1,tollbooth8.jpg,volleyballcourt4.jpg,warehouseoutside2.jpg,tenniscourt.jpg,,
Image_List_3,,,,,,,,,,,,,,,,44548,2020-11-17_14h46.12.926,lingCatScenes,2020.1.3,MacIntel,60,"[1440,900]",,,[],,,,,,,,,,,,constructionSite2.jpg,space,0.291245,[-0.022400173611111112],[-0.30864583333333334],[1],[0],[0],[0.2101449999900069],"[""trial_ahead_box""]",0,60,60,32,1,dancestudio6.jpg,diner12.jpg,dentist4.jpg,cabin4.jpg,,
Image_List_3,,,,,,,,,,,,,,,,44548,2020-11-17_14h46.12.926,lingCatScenes,2020.1.3,MacIntel,60,"[1440,900]",,,[],,,,,,,,,,,,stripmall6.jpg,space,0.340065,[-0.022400173611111112],[-0.30864583333333334],[1],[0],[0],[0.1454950000043027],"[""trial_ahead_box""]",0,61,61,95,1,waitingroom2.jpg,warehouse2.jpg,weightroom4.jpg,tvstudio3.jpg,,
Image_List_3,,,,,,,,,,,,,,,,44548,2020-11-17_14h46.12.926,lingCatScenes,2020.1.3,MacIntel,60,"[1440,900]",,,"[""trial_ahead_box""]",,,,,,,,,,,,drymountains6.jpg,space,0.275405,[-0.022400173611111112],[-0.30864583333333334],[1],[0],[0],[0.0614449999993667],"[""trial_ahead_box""]",0,62,62,42,1,exerciseequipment3.jpg,firestation3.jpg,farm4.jpg,desertvegetation2.jpg,,
Image_List_3,,,,,,,,,,,,,,,,44548,2020-11-17_14h46.12.926,lingCatScenes,2020.1.3,MacIntel,60,"[1440,900]",,,[],,,,,,,,,,,,courthouse2.jpg,space,0.34449,"[-0.022400173611111112,-0.022400173611111112]","[-0.30864583333333334,-0.30864583333333334]","[1,1]","[0,0]","[0,0]","[0.044534999993629754,0.3268450000032317]","[""trial_ahead_box"",""trial_ahead_box""]",0,63,63,33,1,deck1.jpg,diningroom1.jpg,diner10.jpg,cabinIndoors5.jpg,,
Image_List_3,,,,,,,,,,,,,,,,44548,2020-11-17_14h46.12.926,lingCatScenes,2020.1.3,MacIntel,60,"[1440,900]",,,[],,,,,,,,,,,,savanna.jpg,space,0.282665,[-0.022400173611111112],[-0.30864583333333334],[1],[0],[0],[0.2622350000019651],"[""trial_ahead_box""]",0,64,64,87,1,restaurantkitchen2.jpg,theater2.jpg,sculpturegarden2.jpg,RVinside2.jpg,,
Image_List_3,,,,,,,,,,,,,,,,44548,2020-11-17_14h46.12.926,lingCatScenes,2020.1.3,MacIntel,60,"[1440,900]",,,[],,,,,,,,,,,,laundromat4.jpg,space,0.30626,[-0.022400173611111112],[-0.30864583333333334],[1],[0],[0],[0.26252000001841225],"[""trial_ahead_box""]",0,65,65,67,1,library_aisle3.jpg,park7.jpg,liquorstore2.jpg,hospitalroom2.jpg,,
Image_List_3,,,,,,,,,,,,,,,,44548,2020-11-17_14h46.12.926,lingCatScenes,2020.1.3,MacIntel,60,"[1440,900]",,,[],,,,,,,,,,,,pier5.jpg,space,0.371665,[-0.022400173611111112],[-0.30864583333333334],[1],[0],[0],[0.26234000001568347],"[""trial_ahead_box""]",0,66,66,78,1,parkinglot3.jpg,poolhall1.jpg,pavilion3.jpg,observatory1.jpg,,
Image_List_3,,,,,,,,,,,,,,,,44548,2020-11-17_14h46.12.926,lingCatScenes,2020.1.3,MacIntel,60,"[1440,900]",,,"[""trial_ahead_box""]",,,,,,,,,,,,dining_car3.jpg,space,0.162525,[-0.022400173611111112],[-0.30864583333333334],[1],[0],[0],[0.17822000000160187],"[""trial_ahead_box""]",0,67,67,36,1,diner14.jpg,dormroom9.jpg,doctor1.jpg,checkoutcounter9.jpg,,
Image_List_3,,,,,,,,,,,,,,,,44548,2020-11-17_14h46.12.926,lingCatScenes,2020.1.3,MacIntel,60,"[1440,900]",,,"[""trial_ahead_box""]",,,,,,,,,,,,campsite3.jpg,space,0.24671,[],[],[],[],[],[],[],0,68,68,20,1,boardwalk6.jpg,cave.jpg,cave4.jpg,basketballcourt7.jpg,,
Image_List_3,,,,,,,,,,,,,,,,44548,2020-11-17_14h46.12.926,lingCatScenes,2020.1.3,MacIntel,60,"[1440,900]",,,"[""trial_ahead_box""]",,,,,,,,,,,,laundromat2.jpeg,space,0.331295,[-0.022400173611111112],[-0.30864583333333334],[1],[0],[0],[0.0764750000089407],"[""trial_ahead_box""]",0,69,69,65,1,igloo5.jpg,newsstand7.jpg,labClass7.jpg,homeoffice8.jpg,,
Image_List_3,,,,,,,,,,,,,,,,44548,2020-11-17_14h46.12.926,lingCatScenes,2020.1.3,MacIntel,60,"[1440,900]",,,"[""trial_ahead_box""]",,,,,,,,,,,,gazebo2.jpg,space,0.259445,[-0.022400173611111112],[-0.30864583333333334],[1],[0],[0],[0.028335000009974465],"[""trial_ahead_box""]",0,70,70,54,1,greenhouse2.jpg,horsebarn11.jpg,homegarage4.jpg,frontFoyer.jpg,,
Image_List_3,,,,,,,,,,,,,,,,44548,2020-11-17_14h46.12.926,lingCatScenes,2020.1.3,MacIntel,60,"[1440,900]",,,"[""trial_ahead_box""]",,,,,,,,,,,,hallway4.jpg,space,0.29154,[-0.022400173611111112],[-0.30864583333333334],[1],[0],[0],[0.04307000001426786],"[""trial_ahead_box""]",0,71,71,57,1,hayfield5.jpg,jail1.jpg,hut5.jpg,gazebo.jpg,,
Image_List_3,,,,,,,,,,,,,,,,44548,2020-11-17_14h46.12.926,lingCatScenes,2020.1.3,MacIntel,60,"[1440,900]",,,[],,,,,,,,,,,,frontLawn3.jpg,space,0.32504,"[-0.022400173611111112,-0.022400173611111112]","[-0.30864583333333334,-0.30864583333333334]","[1,1]","[0,0]","[0,0]","[0.026400000002468005,0.3121850000170525]","[""trial_ahead_box"",""trial_ahead_box""]",0,72,72,53,1,gazebo3.jpg,homeoffice.jpg,homegarage3.jpg,fountain.jpg,,
Image_List_3,,,,,,,,,,,,,,,,44548,2020-11-17_14h46.12.926,lingCatScenes,2020.1.3,MacIntel,60,"[1440,900]",,,[],,,,,,,,,,,,flowershop3.jpg,space,0.27936,[-0.022400173611111112],[-0.30864583333333334],[1],[0],[0],[0.27817000000504777],"[""trial_ahead_box""]",0,73,73,49,1,frontDoor3.jpg,greenhouse5.jpg,greenhouse.jpg,farm2.jpg,,
Image_List_3,,,,,,,,,,,,,,,,44548,2020-11-17_14h46.12.926,lingCatScenes,2020.1.3,MacIntel,60,"[1440,900]",,,[],,,,,,,,,,,,applestore6.jpg,space,0.33881,[-0.022400173611111112],[-0.30864583333333334],[1],[0],[0],[0.31269999998039566],"[""trial_ahead_box""]",0,74,74,2,1,alley1.jpg,arcade1.jpg,apartmentBuilding4.jpg,airportTerminal6.jpg,,
Image_List_3,,,,,,,,,,,,,,,,44548,2020-11-17_14h46.12.926,lingCatScenes,2020.1.3,MacIntel,60,"[1440,900]",,,[],,,,,,,,,,,,observatory4.jpeg,space,0.25791,[-0.022400173611111112],[-0.30864583333333334],[1],[0],[0],[0.27753000002121553],"[""trial_ahead_box""]",0,75,75,74,1,newsstand2.jpg,playground10.jpg,operatingroom1.jpg,lightingstore2.jpg,,
Image_List_3,,,,,,,,,,,,,,,,44548,2020-11-17_14h46.12.926,lingCatScenes,2020.1.3,MacIntel,60,"[1440,900]",,,[],,,,,,,,,,,,appleorchard4.jpg,space,0.34847,[-0.022400173611111112],[-0.30864583333333334],[1],[0],[0],[0.33792499999981374],"[""trial_ahead_box""]",0,76,76,0,1,airplanecabin1.jpg,alley2.jpg,airplanecabin5.jpg,airplanecabin3.jpg,,
Image_List_3,,,,,,,,,,,,,,,,44548,2020-11-17_14h46.12.926,lingCatScenes,2020.1.3,MacIntel,60,"[1440,900]",,,[],,,,,,,,,,,,operatingroom4.jpg,space,0.301735,[-0.022400173611111112],[-0.30864583333333334],[1],[0],[0],[0.2943350000132341],"[""trial_ahead_box""]",0,77,77,75,1,pantry5.jpg,playground6.jpg,park.jpg,lockerroom.jpg,,
Image_List_3,,,,,,,,,,,,,,,,44548,2020-11-17_14h46.12.926,lingCatScenes,2020.1.3,MacIntel,60,"[1440,900]",,,[],,,,,,,,,,,,beach2.jpg,space,0.313705,[-0.022400173611111112],[-0.30864583333333334],[1],[0],[0],[0.32863500001258217],"[""trial_ahead_box""]",0,78,78,13,1,balconyIN2.jpg,bowlingalley3.jpg,boardwalk4.jpg,backyard6.jpg,,
Image_List_3,,,,,,,,,,,,,,,,44548,2020-11-17_14h46.12.926,lingCatScenes,2020.1.3,MacIntel,60,"[1440,900]",,,[],,,,,,,,,,,,hotelRoom2.jpg,space,0.34086,[-0.022400173611111112],[-0.30864583333333334],[1],[0],[0],[0.30627499998081475],"[""trial_ahead_box""]",0,79,79,63,1,hut2.jpg,museum6.jpg,lab4.jpg,highway2.jpg,,
Image_List_3,,,,,,,,,,,,,,,,44548,2020-11-17_14h46.12.926,lingCatScenes,2020.1.3,MacIntel,60,"[1440,900]",,,[],,,,,,,,,,,,drymountains.jpg,space,0.344745,[-0.022400173611111112],[-0.30864583333333334],[1],[0],[0],[0.27924000000348315],"[""trial_ahead_box""]",0,80,80,40,1,drycleaners4.jpg,farm1.jpg,dugout1.jpg,clothingstore3.jpg,,
Image_List_3,,,,,,,,,,,,,,,,44548,2020-11-17_14h46.12.926,lingCatScenes,2020.1.3,MacIntel,60,"[1440,900]",,,[],,,,,,,,,,,,windmill2.jpg,space,0.324525,[-0.022400173611111112],[-0.30864583333333334],[1],[0],[0],[0.22831500001484528],"[""trial_ahead_box""]",0,81,81,99,1,wineVineyard9.jpg,yogastudio4.jpg,wrestlingring7.jpg,yogastudio1.jpg,,
Image_List_3,,,,,,,,,,,,,,,,44548,2020-11-17_14h46.12.926,lingCatScenes,2020.1.3,MacIntel,60,"[1440,900]",,,[],,,,,,,,,,,,nursery.jpg,space,0.296765,[-0.022400173611111112],[-0.30864583333333334],[1],[0],[0],[0.22736499999882653],"[""trial_ahead_box""]",0,82,82,73,1,musicStore3.jpg,photographer_studio2.jpg,nursery4.jpg,library_aisle9.jpg,,
Image_List_3,,,,,,,,,,,,,,,,44548,2020-11-17_14h46.12.926,lingCatScenes,2020.1.3,MacIntel,60,"[1440,900]",,,[],,,,,,,,,,,,cafeteria1.jpg,space,0.309235,[-0.022400173611111112],[-0.30864583333333334],[1],[0],[0],[0.2453500000119675],"[""trial_ahead_box""]",0,83,83,19,1,boardwalk2.jpg,casino3.jpg,castle4.jpg,basketballcourt.jpg,,
Image_List_3,,,,,,,,,,,,,,,,44548,2020-11-17_14h46.12.926,lingCatScenes,2020.1.3,MacIntel,60,"[1440,900]",,,[],,,,,,,,,,,,cubicle7.jpg,space,0.28908,[-0.022400173611111112],[-0.30864583333333334],[1],[0],[0],[0.19417000000248663],"[""trial_ahead_box""]",0,84,84,35,1,deck5.jpg,dock3.jpg,dining_car6.jpg,carmechanic2.jpg,,
Image_List_3,,,,,,,,,,,,,,,,44548,2020-11-17_14h46.12.926,lingCatScenes,2020.1.3,MacIntel,60,"[1440,900]",,,[],,,,,,,,,,,,gazebo5.jpg,space,0.281845,[-0.022400173611111112],[-0.30864583333333334],[1],[0],[0],[0.1614500000141561],"[""trial_ahead_box""]",0,85,85,55,1,greenmountains.jpg,hotelRoom3.jpg,hotelRoom7.jpg,frontLawn2.jpg,,
Image_List_3,,,,,,,,,,,,,,,,44548,2020-11-17_14h46.12.926,lingCatScenes,2020.1.3,MacIntel,60,"[1440,900]",,,"[""trial_ahead_box""]",,,,,,,,,,,,warehouse3.jpg,space,0.31269,[-0.022400173611111112],[-0.30864583333333334],[1],[0],[0],[0.1447500000067521],"[""trial_ahead_box""]",0,86,86,98,1,weightroom5.jpg,wineVineyard8.jpg,winebarrel4.jpg,winebarrel2.jpg,,
Image_List_3,,,,,,,,,,,,,,,,44548,2020-11-17_14h46.12.926,lingCatScenes,2020.1.3,MacIntel,60,"[1440,900]",,,[],,,,,,,,,,,,cargo5.jpg,space,0.49302,"[-0.022400173611111112,-0.022400173611111112]","[-0.30864583333333334,-0.30864583333333334]","[1,1]","[0,0]","[0,0]","[0.04416999997920357,0.3118199999735225]","[""trial_ahead_box"",""trial_ahead_box""]",0,87,87,22,1,bowlingalley5.jpg,church6.jpg,cemetery.jpg,bistrooutdoor6.jpg,,
Image_List_3,,,,,,,,,,,,,,,,44548,2020-11-17_14h46.12.926,lingCatScenes,2020.1.3,MacIntel,60,"[1440,900]",,,"[""trial_ahead_box""]",,,,,,,,,,,,bambooforest3.jpg,space,0.29129,[-0.022400173611111112],[-0.30864583333333334],[1],[0],[0],[0.05947500001639128],"[""trial_ahead_box""]",0,88,88,11,1,backyard2.jpg,basketballcourt4.jpg,baywindow5.jpg,backyard1.jpg,,
Image_List_3,,,,,,,,,,,,,,,,44548,2020-11-17_14h46.12.926,lingCatScenes,2020.1.3,MacIntel,60,"[1440,900]",,,"[""trial_ahead_box""]",,,,,,,,,,,,breakroom4.jpg,space,0.24318,[-0.022400173611111112],[-0.30864583333333334],[1],[0],[0],[0.026989999983925372],"[""trial_ahead_box""]",0,89,89,17,1,bikerack1.jpg,campsite6.jpg,carmechanic.jpg,baseball6.jpg,,
Image_List_3,,,,,,,,,,,,,,,,44548,2020-11-17_14h46.12.926,lingCatScenes,2020.1.3,MacIntel,60,"[1440,900]",,,[],,,,,,,,,,,,restaurant13.jpg,space,0.315135,"[-0.022400173611111112,-0.022400173611111112]","[-0.30864583333333334,-0.30864583333333334]","[1,1]","[0,0]","[0,0]","[0.024834999989252537,0.30908000000636093]","[""trial_ahead_box"",""trial_ahead_box""]",0,90,90,84,1,readingroom5.jpg,sidewalk2.jpg,sandDunes_desert_outdoor.jpg,rooftop2.jpg,,
Image_List_3,,,,,,,,,,,,,,,,44548,2020-11-17_14h46.12.926,lingCatScenes,2020.1.3,MacIntel,60,"[1440,900]",,,[],,,,,,,,,,,,metroInside3.jpg,space,0.30691,[-0.022400173611111112],[-0.30864583333333334],[1],[0],[0],[0.3299199999892153],"[""trial_ahead_box""]",0,91,91,71,1,metroInside2.jpg,pavilion5.jpg,museum3.jpg,jewelrystore.jpg,,
Image_List_3,,,,,,,,,,,,,,,,44548,2020-11-17_14h46.12.926,lingCatScenes,2020.1.3,MacIntel,60,"[1440,900]",,,"[""trial_ahead_box""]",,,,,,,,,,,,auto_showroom4.jpg,space,0.234715,[],[],[],[],[],[],[],0,92,92,5,1,artStudio3.jpg,bambooforest.jpg,attic4.jpg,amusement3.jpg,,
Image_List_3,,,,,,,,,,,,,,,,44548,2020-11-17_14h46.12.926,lingCatScenes,2020.1.3,MacIntel,60,"[1440,900]",,,[],,,,,,,,,,,,jewelrystore8.jpg,space,0.31612,"[-0.022400173611111112,-0.022400173611111112]","[-0.30864583333333334,-0.30864583333333334]","[1,1]","[0,0]","[0,0]","[0.06112500000745058,0.3118550000071991]","[""trial_ahead_box"",""trial_ahead_box""]",0,93,93,64,1,igloo2.jpg,newsstand5.jpg,lab5.jpg,homegarage2.jpg,,
Image_List_3,,,,,,,,,,,,,,,,44548,2020-11-17_14h46.12.926,lingCatScenes,2020.1.3,MacIntel,60,"[1440,900]",,,"[""trial_ahead_box""]",,,,,,,,,,,,bleachers8.jpg,space,0.259895,[],[],[],[],[],[],[],0,94,94,15,1,bambooforest4.jpg,cafeteria5.jpg,cabinIndoors.jpg,bar8.jpg,,
Image_List_3,,,,,,,,,,,,,,,,44548,2020-11-17_14h46.12.926,lingCatScenes,2020.1.3,MacIntel,60,"[1440,900]",,,"[""trial_ahead_box""]",,,,,,,,,,,,porch.jpg,space,0.22509,[-0.022400173611111112],[-0.30864583333333334],[1],[0],[0],[0.010204999998677522],"[""trial_ahead_box""]",0,95,95,80,1,pavilion2.jpg,racecarcourse2.jpg,poolhall5.jpg,parkinggarage4.jpg,,
Image_List_3,,,,,,,,,,,,,,,,44548,2020-11-17_14h46.12.926,lingCatScenes,2020.1.3,MacIntel,60,"[1440,900]",,,[],,,,,,,,,,,,brewery4.jpg,space,0.278555,"[-0.022400173611111112,-0.022400173611111112]","[-0.30864583333333334,-0.30864583333333334]","[1,1]","[0,0]","[0,0]","[0.044575000007171184,0.29485000000568107]","[""trial_ahead_box"",""trial_ahead_box""]",0,96,96,18,1,bleachers5.jpg,casino1.jpg,castle2.jpg,basement6.jpg,,
Image_List_3,,,,,,,,,,,,,,,,44548,2020-11-17_14h46.12.926,lingCatScenes,2020.1.3,MacIntel,60,"[1440,900]",,,"[""trial_ahead_box""]",,,,,,,,,,,,ruralroad3.jpg,space,0.19991,[],[],[],[],[],[],[],0,97,97,86,1,restaurant14.jpg,stripmall.jpg,sandDunes_desert_outdoor8.jpg,rooftop4.jpg,,
Image_List_3,,,,,,,,,,,,,,,,44548,2020-11-17_14h46.12.926,lingCatScenes,2020.1.3,MacIntel,60,"[1440,900]",,,"[""trial_ahead_box""]",,,,,,,,,,,,balconyIN.jpg,space,0.21427,[-0.022400173611111112],[-0.30864583333333334],[1],[0],[0],[0.04358999998657964],"[""trial_ahead_box""]",0,98,98,8,1,attic3.jpg,banquetHall6.jpg,bar.jpg,applestore4.jpg,,
Image_List_3,,,,,,,,,,,,,,,,44548,2020-11-17_14h46.12.926,lingCatScenes,2020.1.3,MacIntel,60,"[1440,900]",,,"[""trial_ahead_box""]",,,,,,,,,,,,pasture9.jpg,space,0.20994,[-0.022400173611111112],[-0.30864583333333334],[1],[0],[0],[0.05990000002202578],"[""trial_ahead_box""]",0,99,99,77,1,parkinggarage2.jpg,playroom6.jpg,park8.jpg,mallindoor6.jpg,,
Image_List_3,,,,,,,,,,,,,,,,44548,2020-11-17_14h46.12.926,lingCatScenes,2020.1.3,MacIntel,60,,,,,,,,,,,,,,,,,,,,,,,,,,,,,,,,,,,space,0.18373
