image_list,key_resp_intructions.keys,key_resp_intructions.rt,key_resp_intructions_3.keys,key_resp_intructions_3.rt,PracticeComplete_2.keys,PracticeComplete_2.rt,PracticeComplete_3.keys,PracticeComplete_3.rt,demo_trials.thisRepN,demo_trials.thisTrialN,demo_trials.thisN,demo_trials.thisIndex,demo_trials.ran,demo_images,path_images,participant,date,expName,psychopyVersion,OS,frameRate,windowSize,practice_complete.keys,practice_complete.rt,boxes_checked,PracticeComplete.keys,PracticeComplete.rt,practice_trials.thisRepN,practice_trials.thisTrialN,practice_trials.thisN,practice_trials.thisIndex,practice_trials.ran,practice_images,feedback_images,key_resp_intructions_2.keys,key_resp_intructions_2.rt,Image_List_5,trial_complete.keys,trial_complete.rt,trial_mouse.x,trial_mouse.y,trial_mouse.leftButton,trial_mouse.midButton,trial_mouse.rightButton,trial_mouse.time,trial_mouse.clicked_name,trials.thisRepN,trials.thisTrialN,trials.thisN,trials.thisIndex,trials.ran,Image_List_1,Image_List_2,Image_List_3,Image_List_4,key_resp.keys,key_resp.rt
Image_List_5,space,11.158995,space,5.85337,space,7.7744,space,2.05781,0,0,0,5,1,right.jpg,right_path.jpg,44579,2020-11-18_19h26.33.643,lingCatScenes,2020.1.3,Win32,60,,,,,,,,,,,,,,,,,,,,,,,,,,,,,,,,,,,,
Image_List_5,,,,,space,7.10794,space,1.696875,0,1,1,1,1,ahead_left.jpg,ahead_left_path.jpg,44579,2020-11-18_19h26.33.643,lingCatScenes,2020.1.3,Win32,60,,,,,,,,,,,,,,,,,,,,,,,,,,,,,,,,,,,,
Image_List_5,,,,,space,5.804505,space,3.18672,0,2,2,3,1,ahead_right_left.jpg,ahead_right_left_path.jpg,44579,2020-11-18_19h26.33.643,lingCatScenes,2020.1.3,Win32,60,,,,,,,,,,,,,,,,,,,,,,,,,,,,,,,,,,,,
Image_List_5,,,,,space,5.03851,space,0.839755,0,3,3,0,1,ahead.jpg,ahead_path.jpg,44579,2020-11-18_19h26.33.643,lingCatScenes,2020.1.3,Win32,60,,,,,,,,,,,,,,,,,,,,,,,,,,,,,,,,,,,,
Image_List_5,,,,,space,6.28418,space,1.583095,0,4,4,6,1,right_left.jpg,right_left_path.jpg,44579,2020-11-18_19h26.33.643,lingCatScenes,2020.1.3,Win32,60,,,,,,,,,,,,,,,,,,,,,,,,,,,,,,,,,,,,
Image_List_5,,,,,space,9.299175,space,0.96046,0,5,5,2,1,ahead_right.jpg,ahead_right_path.jpg,44579,2020-11-18_19h26.33.643,lingCatScenes,2020.1.3,Win32,60,,,,,,,,,,,,,,,,,,,,,,,,,,,,,,,,,,,,
Image_List_5,,,,,space,4.578675,space,1.41836,0,6,6,4,1,left.jpg,left_path.jpg,44579,2020-11-18_19h26.33.643,lingCatScenes,2020.1.3,Win32,60,,,,,,,,,,,,,,,,,,,,,,,,,,,,,,,,,,,,
Image_List_5,,,,,,,,,,,,,,,,44579,2020-11-18_19h26.33.643,lingCatScenes,2020.1.3,Win32,60,"[1536,864]",space,13.01929,"[""right_box"",""left_box""]",space,2.377305,0,0,0,3,1,ahead_right_left_2.jpg,ahead_right_left_2_path.jpg,,,,,,,,,,,,,,,,,,,,,,,
Image_List_5,,,,,,,,,,,,,,,,44579,2020-11-18_19h26.33.643,lingCatScenes,2020.1.3,Win32,60,"[1536,864]",space,6.504675,"[""ahead_box"",""sharp_right_box""]",space,0.89264,0,1,1,2,1,ahead_right_2.jpg,ahead_right_2_path.jpg,,,,,,,,,,,,,,,,,,,,,,,
Image_List_5,,,,,,,,,,,,,,,,44579,2020-11-18_19h26.33.643,lingCatScenes,2020.1.3,Win32,60,"[1536,864]",space,6.868085,"[""slight_right_box""]",space,1.608065,0,2,2,5,1,right_2.jpg,right_2_path.jpg,,,,,,,,,,,,,,,,,,,,,,,
Image_List_5,,,,,,,,,,,,,,,,44579,2020-11-18_19h26.33.643,lingCatScenes,2020.1.3,Win32,60,"[1536,864]",space,6.066925,"[""ahead_box"",""sharp_right_box""]",space,1.91578,0,3,3,1,1,ahead_left_2.jpg,ahead_left_2_path.jpg,,,,,,,,,,,,,,,,,,,,,,,
Image_List_5,,,,,,,,,,,,,,,,44579,2020-11-18_19h26.33.643,lingCatScenes,2020.1.3,Win32,60,"[1536,864]",space,0.00908,[],space,2.54894,0,4,4,4,1,left_2.jpg,left_2_path.jpg,,,,,,,,,,,,,,,,,,,,,,,
Image_List_5,,,,,,,,,,,,,,,,44579,2020-11-18_19h26.33.643,lingCatScenes,2020.1.3,Win32,60,"[1536,864]",space,4.4592,"[""left_box"",""right_box""]",space,1.88174,0,5,5,6,1,right_left_2.jpg,right_left_2_path.jpg,,,,,,,,,,,,,,,,,,,,,,,
Image_List_5,,,,,,,,,,,,,,,,44579,2020-11-18_19h26.33.643,lingCatScenes,2020.1.3,Win32,60,"[1536,864]",space,1.938255,"[""ahead_box""]",space,1.141845,0,6,6,0,1,ahead_2.jpg,ahead_2_path.jpg,,,,,,,,,,,,,,,,,,,,,,,
Image_List_5,,,,,,,,,,,,,,,,44579,2020-11-18_19h26.33.643,lingCatScenes,2020.1.3,Win32,60,"[1536,864]",,,"[""trial_sharp_right_box"",""trial_sharp_left_box""]",,,,,,,,,,space,4.134255,bar8.jpg,space,9.26732,"[0.5759259477533676,-0.4166666596300072,-0.5555555505885018,-0.5916666339806932]","[-0.30740747595274975,-0.3314814938715211,-0.30833334537843865,-0.2972222341017591]","[1,1,1,1]","[0,0,0,0]","[0,0,0,0]","[4.630545000080019,6.279404999921098,8.394360000034794,9.016770000103861]","[""trial_sharp_right_box"",""trial_sharp_left_box""]",0,0,0,15,1,bambooforest4.jpg,cafeteria5.jpg,bleachers8.jpg,cabinIndoors.jpg,,
Image_List_5,,,,,,,,,,,,,,,,44579,2020-11-18_19h26.33.643,lingCatScenes,2020.1.3,Win32,60,"[1536,864]",,,"[""trial_sharp_right_box""]",,,,,,,,,,,,desertvegetation2.jpg,space,2.832175,[0.5907407627889404],[-0.3148148269565017],[1],[0],[0],[2.372810000088066],"[""trial_sharp_right_box""]",0,1,1,42,1,exerciseequipment3.jpg,firestation3.jpg,drymountains6.jpg,farm4.jpg,,
Image_List_5,,,,,,,,,,,,,,,,44579,2020-11-18_19h26.33.643,lingCatScenes,2020.1.3,Win32,60,"[1536,864]",,,"[""trial_sharp_left_box""]",,,,,,,,,,,,horsebarn9.jpg,space,4.015775,[-0.5972222178760502],[-0.2953703822223125],[1],[0],[0],[3.2256400000769645],"[""trial_sharp_left_box""]",0,2,2,66,1,library_aisle10.jpg,office3.jpg,laundromat3.jpg,liquorstore.jpg,,
Image_List_5,,,,,,,,,,,,,,,,44579,2020-11-18_19h26.33.643,lingCatScenes,2020.1.3,Win32,60,"[1536,864]",,,"[""trial_sharp_left_box"",""trial_sharp_right_box""]",,,,,,,,,,,,gasstation2.jpg,space,7.218355,"[-0.5972222178760502,0.5972222443670034]","[-0.30277784625413323,-0.3175926047756716]","[1,1]","[0,0]","[0,0]","[5.751579999923706,6.933484999928623]","[""trial_sharp_left_box"",""trial_sharp_right_box""]",0,3,3,56,1,grocerystore5.jpg,hut3.jpg,golfcourse10.jpg,hut1.jpg,,
Image_List_5,,,,,,,,,,,,,,,,44579,2020-11-18_19h26.33.643,lingCatScenes,2020.1.3,Win32,60,"[1536,864]",,,"[""trial_sharp_right_box""]",,,,,,,,,,,,campusquad1.jpg,space,2.13478,[0.5972222443670034],[-0.3185185307153949],[1],[0],[0],[1.7261250000447035],"[""trial_sharp_right_box""]",0,4,4,34,1,deck4.jpg,diningroom5.jpg,courthouse4.jpg,diner11.jpg,,
Image_List_5,,,,,,,,,,,,,,,,44579,2020-11-18_19h26.33.643,lingCatScenes,2020.1.3,Win32,60,"[1536,864]",,,"[""trial_ahead_box""]",,,,,,,,,,,,warehouseoutside3.jpg,space,8.542085,"[-0.009259246151756358,-0.5898148103582638,-0.6046296253938366]","[-0.30648149349899206,-0.3055555675592687,-0.3148148269565017]","[1,1,1]","[0,0,0]","[0,0,0]","[1.3605150000657886,3.813700000056997,8.270849999971688]","[""trial_ahead_box"",""trial_sharp_left_box"",""trial_sharp_left_box""]",0,5,5,97,1,warehouseoutside4.jpg,wineVineyard2.jpg,waitingroom4.jpg,winebarrel3.jpg,,
Image_List_5,,,,,,,,,,,,,,,,44579,2020-11-18_19h26.33.643,lingCatScenes,2020.1.3,Win32,60,"[1536,864]",,,"[""trial_sharp_left_box""]",,,,,,,,,,,,backyard1.jpg,space,6.74392,"[-0.4064814742930509,-0.5685184854876107,-0.40925925211222086,-0.5722222175035212,-0.5722222175035212,-0.6055555513335599]","[-0.30833334537843865,-0.30000001192092896,-0.315740752896225,-0.31018519725788524,-0.31018519725788524,-0.30648149349899206]","[1,1,1,1,1,1]","[0,0,0,0,0,0]","[0,0,0,0,0,0]","[2.93341499986127,3.840970000019297,4.357189999893308,5.106039999984205,5.739259999943897,6.455485000042245]","[""trial_left_box"",""trial_left_box"",""trial_sharp_left_box""]",0,6,6,11,1,backyard2.jpg,basketballcourt4.jpg,bambooforest3.jpg,baywindow5.jpg,,
Image_List_5,,,,,,,,,,,,,,,,44579,2020-11-18_19h26.33.643,lingCatScenes,2020.1.3,Win32,60,"[1536,864]",,,"[""trial_ahead_box""]",,,,,,,,,,,,readingroom2.jpg,space,2.085465,[-0.01666659715550833],[-0.3138889010167784],[1],[0],[0],[1.3433850000146776],"[""trial_ahead_box""]",0,7,7,83,1,readingroom1.jpg,sculpturegarden1.jpg,promenadeDeck6.jpg,restaurant8.jpg,,
Image_List_5,,,,,,,,,,,,,,,,44579,2020-11-18_19h26.33.643,lingCatScenes,2020.1.3,Win32,60,"[1536,864]",,,"[""trial_ahead_box"",""trial_right_box"",""trial_left_box""]",,,,,,,,,,,,rooftop2.jpg,space,5.331305,"[-0.01666659715550833,0.37500001883341205,-0.39351851113692476]","[-0.3138889010167784,-0.2972222341017591,-0.30740747595274975]","[1,1,1]","[0,0,0]","[0,0,0]","[3.37671500002034,4.525390000082552,5.158485000021756]","[""trial_ahead_box"",""trial_right_box"",""trial_left_box""]",0,8,8,84,1,readingroom5.jpg,sidewalk2.jpg,restaurant13.jpg,sandDunes_desert_outdoor.jpg,,
Image_List_5,,,,,,,,,,,,,,,,44579,2020-11-18_19h26.33.643,lingCatScenes,2020.1.3,Win32,60,"[1536,864]",,,"[""trial_sharp_right_box""]",,,,,,,,,,,,airplanecabin3.jpg,space,4.180515,"[0.5722222439944744,0.5916668017567325]","[-0.2972222341017591,-0.30833334537843865]","[1,1]","[0,0]","[0,0]","[2.8751749999355525,3.6748999999836087]","[""trial_sharp_right_box""]",0,9,9,0,1,airplanecabin1.jpg,alley2.jpg,appleorchard4.jpg,airplanecabin5.jpg,,
Image_List_5,,,,,,,,,,,,,,,,44579,2020-11-18_19h26.33.643,lingCatScenes,2020.1.3,Win32,60,"[1536,864]",,,"[""trial_ahead_box"",""trial_slight_right_box""]",,,,,,,,,,,,dormroom6.jpg,space,5.56195,"[-0.00462961645313987,0.1481481636012042,0.1861111271298594]","[-0.3046296416195454,-0.2851851968853562,-0.30648149349899206]","[1,1,1]","[0,0,0]","[0,0,0]","[2.7242399998940527,4.405494999838993,5.255519999889657]","[""trial_ahead_box"",""trial_slight_right_box""]",0,10,10,46,1,flowershop.jpg,frontLawn5.jpg,farmersmarket4.jpg,fountain4.jpg,,
Image_List_5,,,,,,,,,,,,,,,,44579,2020-11-18_19h26.33.643,lingCatScenes,2020.1.3,Win32,60,"[1536,864]",,,"[""trial_sharp_left_box""]",,,,,,,,,,,,bistrooutdoor6.jpg,space,9.71345,"[-0.36944443670411903,-0.6398148111033218,-0.6009259216349434]","[-0.3046296416195454,-0.2879629747045261,-0.2833333450059096]","[1,1,1]","[0,0,0]","[0,0,0]","[2.920810000039637,4.26913999998942,5.451330000068992]","[""trial_sharp_left_box""]",0,11,11,22,1,bowlingalley5.jpg,church6.jpg,cargo5.jpg,cemetery.jpg,,
Image_List_5,,,,,,,,,,,,,,,,44579,2020-11-18_19h26.33.643,lingCatScenes,2020.1.3,Win32,60,"[1536,864]",,,"[""trial_sharp_left_box"",""trial_sharp_right_box""]",,,,,,,,,,,,sculpturegarden3.jpg,space,4.877595,"[-0.5592592260903778,-0.5768518472021377,0.5953703924875569]","[-0.26666667809089023,-0.2824074190661863,-0.31666673534998274]","[1,1,1]","[0,0,0]","[0,0,0]","[3.0077750000637025,3.740100000053644,4.639495000010356]","[""trial_sharp_left_box"",""trial_sharp_right_box""]",0,12,12,89,1,ruralroad7.jpg,track5.jpg,ShowJumping7.jpg,staircase7.jpg,,
Image_List_5,,,,,,,,,,,,,,,,44579,2020-11-18_19h26.33.643,lingCatScenes,2020.1.3,Win32,60,"[1536,864]",,,"[""trial_right_box""]",,,,,,,,,,,,icecream2.jpg,space,3.631845,[0.4037037229648343],[-0.3055555675592687],[1],[0],[0],[1.976530000101775],"[""trial_right_box""]",0,13,13,69,1,liquorstore8.jpg,parkinglot2.jpg,livingroom.jpg,metroInside1.jpg,,
Image_List_5,,,,,,,,,,,,,,,,44579,2020-11-18_19h26.33.643,lingCatScenes,2020.1.3,Win32,60,"[1536,864]",,,"[""trial_sharp_right_box"",""trial_sharp_left_box""]",,,,,,,,,,,,applestore2.jpg,space,4.87068,"[0.574074095873921,0.6092592815834063,-0.5870370042820767]","[-0.30277784625413323,-0.2935185868569003,-0.27962969776105084]","[1,1,1]","[0,0,0]","[0,0,0]","[2.8079450000077486,3.5735599999316037,4.606380000011995]","[""trial_sharp_right_box"",""trial_sharp_left_box""]",0,14,14,7,1,attic2.jpg,banquetHall4.jpg,backstage1.jpg,baggageClaim3.jpg,,
Image_List_5,,,,,,,,,,,,,,,,44579,2020-11-18_19h26.33.643,lingCatScenes,2020.1.3,Win32,60,"[1536,864]",,,"[""trial_sharp_left_box"",""trial_sharp_right_box""]",,,,,,,,,,,,diningroom3.jpg,space,6.556045,"[-0.60277777351439,0.6027778000053432]","[-0.30370371567982213,-0.29074075252369597]","[1,1]","[0,0]","[0,0]","[5.069505000021309,6.285670000128448]","[""trial_sharp_left_box"",""trial_sharp_right_box""]",0,15,15,43,1,exerciseequipment5.jpg,forestpath10.jpg,dugout2.jpg,foodcourt.jpg,,
Image_List_5,,,,,,,,,,,,,,,,44579,2020-11-18_19h26.33.643,lingCatScenes,2020.1.3,Win32,60,"[1536,864]",,,"[""trial_ahead_box"",""trial_sharp_right_box"",""trial_sharp_left_box""]",,,,,,,,,,,,alley3.jpg,space,7.16573,"[-0.00462961645313987,0.5981481703067267,0.6148149502498149,-0.60277777351439]","[-0.31111112319760853,-0.32685186417290457,-0.2851851968853562,-0.30277784625413323]","[1,1,1,1]","[0,0,0,0]","[0,0,0,0]","[1.6438299999572337,4.624339999863878,5.940684999804944,6.955714999930933]","[""trial_ahead_box"",""trial_sharp_right_box"",""trial_sharp_left_box""]",0,16,16,3,1,apartmentBuilding2.jpg,attic1.jpg,aquarium1.jpg,appleorchard2.jpg,,
Image_List_5,,,,,,,,,,,,,,,,44579,2020-11-18_19h26.33.643,lingCatScenes,2020.1.3,Win32,60,"[1536,864]",,,"[""trial_ahead_box""]",,,,,,,,,,,,alley4.jpg,space,2.121275,[-0.0027777080596588684],[-0.27962969776105084],[1],[0],[0],[1.460600000107661],"[""trial_ahead_box""]",0,17,17,4,1,artStudio1.jpg,baggageClaim2.jpg,auto_showroom1.jpg,appleorchard3.jpg,,
Image_List_5,,,,,,,,,,,,,,,,44579,2020-11-18_19h26.33.643,lingCatScenes,2020.1.3,Win32,60,"[1536,864]",,,"[""trial_left_box""]",,,,,,,,,,,,winebarrel2.jpg,space,2.564415,[-0.4175925855697305],[-0.30740747595274975],[1],[0],[0],[2.3423950001597404],"[""trial_left_box""]",0,18,18,98,1,weightroom5.jpg,wineVineyard8.jpg,warehouse3.jpg,winebarrel4.jpg,,
Image_List_5,,,,,,,,,,,,,,,,44579,2020-11-18_19h26.33.643,lingCatScenes,2020.1.3,Win32,60,"[1536,864]",,,"[""trial_ahead_box"",""trial_right_box""]",,,,,,,,,,,,ballroom3.jpg,space,7.094505,"[0.052777848323738975,0.025000070132040055,-0.001851838633969978,0.6222222447395325,0.6222222447395325,0.3990740932662178]","[-0.2861111228250795,-0.2935185868569003,-0.3046296416195454,-0.30000001192092896,-0.30000001192092896,-0.3194444566551182]","[1,1,1,1,1,1]","[0,0,0,0,0,0]","[0,0,0,0,0,0]","[1.9283799999393523,2.6460649999789894,3.5933749999385327,5.723964999895543,6.223749999888241,6.856614999938756]","[""trial_ahead_box"",""trial_sharp_right_box"",""trial_sharp_right_box"",""trial_right_box""]",0,19,19,14,1,ballroom1.jpg,breakroom5.jpg,bistrooutdoor5.jpg,botanicalGarden5.jpg,,
Image_List_5,,,,,,,,,,,,,,,,44579,2020-11-18_19h26.33.643,lingCatScenes,2020.1.3,Win32,60,"[1536,864]",,,"[""trial_ahead_box""]",,,,,,,,,,,,homegarage2.jpg,space,1.987595,[-0.0055555423928631675],[-0.30185186380037554],[1],[0],[0],[1.628580000018701],"[""trial_ahead_box""]",0,20,20,64,1,igloo2.jpg,newsstand5.jpg,jewelrystore8.jpg,lab5.jpg,,
Image_List_5,,,,,,,,,,,,,,,,44579,2020-11-18_19h26.33.643,lingCatScenes,2020.1.3,Win32,60,"[1536,864]",,,"[""trial_ahead_box"",""trial_left_box"",""trial_right_box""]",,,,,,,,,,,,tenniscourt.jpg,space,4.16989,"[1.3245476616753471e-8,-0.387962955498585,0.3990740932662178]","[-0.30740747595274975,-0.29074075252369597,-0.29907408598120566]","[1,1,1]","[0,0,0]","[0,0,0]","[1.6773149999789894,2.976170000154525,4.049430000130087]","[""trial_ahead_box"",""trial_left_box"",""trial_right_box""]",0,21,21,93,1,tollbooth8.jpg,volleyballcourt4.jpg,staircase4.jpg,warehouseoutside2.jpg,,
Image_List_5,,,,,,,,,,,,,,,,44579,2020-11-18_19h26.33.643,lingCatScenes,2020.1.3,Win32,60,"[1536,864]",,,"[""trial_right_box"",""trial_left_box""]",,,,,,,,,,,,classroom1.jpg,space,2.95755,[-0.40092591865471117],[-0.30370371567982213],[1],[0],[0],[2.4882149999029934],"[""trial_left_box""]",0,22,22,38,1,dining_car2.jpg,elevatorOutside4.jpg,dock1.jpg,driveway8.jpg,,
Image_List_5,,,,,,,,,,,,,,,,44579,2020-11-18_19h26.33.643,lingCatScenes,2020.1.3,Win32,60,"[1536,864]",,,"[""trial_right_box""]",,,,,,,,,,,,fabricstore2.jpg,space,2.468505,[0.39351853762787803],[-0.2879629747045261],[1],[0],[0],[2.1197949999477714],"[""trial_right_box""]",0,23,23,48,1,frontDoor2.jpg,golfcourse6.jpg,fittingroom5.jpg,golfcourse7.jpg,,
Image_List_5,,,,,,,,,,,,,,,,44579,2020-11-18_19h26.33.643,lingCatScenes,2020.1.3,Win32,60,"[1536,864]",,,"[""trial_ahead_box""]",,,,,,,,,,,,brewery2.jpg,space,1.510515,[0.013888902341326078],[-0.31018519725788524],[1],[0],[0],[1.3057700002100319],"[""trial_ahead_box""]",0,24,24,27,1,castle3.jpg,courtroom3.jpg,churchInside4.jpg,closet.jpg,,
Image_List_5,,,,,,,,,,,,,,,,44579,2020-11-18_19h26.33.643,lingCatScenes,2020.1.3,Win32,60,"[1536,864]",,,"[""trial_left_box"",""trial_sharp_right_box""]",,,,,,,,,,,,parkinggarage4.jpg,space,3.76402,"[-0.40462962241360434,0.59907409624645]","[-0.2851851968853562,-0.30833334537843865]","[1,1]","[0,0]","[0,0]","[1.8732549999840558,3.6216150000691414]","[""trial_left_box"",""trial_sharp_right_box""]",0,25,25,80,1,pavilion2.jpg,racecarcourse2.jpg,porch.jpg,poolhall5.jpg,,
Image_List_5,,,,,,,,,,,,,,,,44579,2020-11-18_19h26.33.643,lingCatScenes,2020.1.3,Win32,60,"[1536,864]",,,"[""trial_sharp_right_box"",""trial_ahead_box""]",,,,,,,,,,,,amusement3.jpg,space,2.04749,[0.0018519216389576184],[-0.29259260440314255],[1],[0],[0],[1.627085000043735],"[""trial_ahead_box""]",0,26,26,5,1,artStudio3.jpg,bambooforest.jpg,auto_showroom4.jpg,attic4.jpg,,
Image_List_5,,,,,,,,,,,,,,,,44579,2020-11-18_19h26.33.643,lingCatScenes,2020.1.3,Win32,60,"[1536,864]",,,"[""trial_ahead_box"",""trial_left_box""]",,,,,,,,,,,,firestation5.jpg,space,4.730475,"[0.0018519216389576184,-0.40462962241360434]","[-0.2972222341017591,-0.27962969776105084]","[1,1]","[0,0]","[0,0]","[3.6240750001743436,4.506660000188276]","[""trial_ahead_box"",""trial_left_box""]",0,27,27,51,1,gasstation6.jpg,hallway5.jpg,frontDoor5.jpg,hayfield4.jpg,,
Image_List_5,,,,,,,,,,,,,,,,44579,2020-11-18_19h26.33.643,lingCatScenes,2020.1.3,Win32,60,"[1536,864]",,,"[""trial_ahead_box""]",,,,,,,,,,,,hallway.jpg,space,2.58221,[0.003703717004369806],[-0.2861111228250795],[1],[0],[0],[1.209885000018403],"[""trial_ahead_box""]",0,28,28,60,1,hometheater2.jpg,lightingstore3.jpg,homegarage.jpg,kindergarten_classroom6.jpg,,
Image_List_5,,,,,,,,,,,,,,,,44579,2020-11-18_19h26.33.643,lingCatScenes,2020.1.3,Win32,60,"[1536,864]",,,"[""trial_left_box""]",,,,,,,,,,,,sandbox.jpg,space,3.81331,"[-0.4083333261724975,-0.41018517805194415]","[-0.32962964199207445,-0.3203703825948415]","[1,1]","[0,0]","[0,0]","[1.4772799999918789,2.510065000038594]","[""trial_left_box""]",0,29,29,88,1,rooftop1.jpg,track.jpg,sculpturegarden4.jpg,soccerfield.jpg,,
Image_List_5,,,,,,,,,,,,,,,,44579,2020-11-18_19h26.33.643,lingCatScenes,2020.1.3,Win32,60,"[1536,864]",,,"[""trial_slight_right_box"",""trial_slight_left_box""]",,,,,,,,,,,,cabinIndoors5.jpg,space,6.68193,"[0.19074075682847588,-0.19444443409641585]","[-0.2935185868569003,-0.315740752896225]","[1,1]","[0,0]","[0,0]","[3.508634999860078,6.355964999878779]","[""trial_slight_right_box"",""trial_slight_left_box""]",0,30,30,33,1,deck1.jpg,diningroom1.jpg,courthouse2.jpg,diner10.jpg,,
Image_List_5,,,,,,,,,,,,,,,,44579,2020-11-18_19h26.33.643,lingCatScenes,2020.1.3,Win32,60,"[1536,864]",,,"[""trial_ahead_box""]",,,,,,,,,,,,postoffice4.jpg,space,4.64302,[0.002777791064646509],[-0.2879629747045261],[1],[0],[0],[1.7727050001267344],"[""trial_ahead_box""]",0,31,31,82,1,publicrestroom2.jpg,sandDunes_desert_outdoor9.jpg,promenadeDeck3.jpg,readingroom4.jpg,,
Image_List_5,,,,,,,,,,,,,,,,44579,2020-11-18_19h26.33.643,lingCatScenes,2020.1.3,Win32,60,"[1536,864]",,,"[""trial_slight_right_box""]",,,,,,,,,,,,shoestore4.jpg,space,2.01565,[0.20555557186404863],[-0.2944444562825892],[1],[0],[0],[1.8094200000632554],"[""trial_slight_right_box""]",0,32,32,90,1,savanna5.jpg,trainStation1.jpg,sidewalk1.jpg,stripmall3.jpg,,
Image_List_5,,,,,,,,,,,,,,,,44579,2020-11-18_19h26.33.643,lingCatScenes,2020.1.3,Win32,60,"[1536,864]",,,"[""trial_ahead_box""]",,,,,,,,,,,,frontLawn2.jpg,space,3.13263,[-0.021296226854124817],[-0.2851851968853562],[1],[0],[0],[1.5265450000297278],"[""trial_ahead_box""]",0,33,33,55,1,greenmountains.jpg,hotelRoom3.jpg,gazebo5.jpg,hotelRoom7.jpg,,
Image_List_5,,,,,,,,,,,,,,,,44579,2020-11-18_19h26.33.643,lingCatScenes,2020.1.3,Win32,60,"[1536,864]",,,"[""trial_left_box"",""trial_right_box""]",,,,,,,,,,,,bus_shelter3.jpg,space,4.42103,"[-0.4083333261724975,0.37777779665258193]","[-0.30370371567982213,-0.2861111228250795]","[1,1]","[0,0]","[0,0]","[3.230280000017956,4.26255499990657]","[""trial_left_box"",""trial_right_box""]",0,34,34,30,1,courthouse1.jpg,desertvegetation3.jpg,clothingstore2.jpg,copyroom2.jpg,,
Image_List_5,,,,,,,,,,,,,,,,44579,2020-11-18_19h26.33.643,lingCatScenes,2020.1.3,Win32,60,"[1536,864]",,,"[""trial_right_box""]",,,,,,,,,,,,lightingstore2.jpg,space,2.89022,[],[],[],[],[],[],[],0,35,35,74,1,newsstand2.jpg,playground10.jpg,observatory4.jpeg,operatingroom1.jpg,,
Image_List_5,,,,,,,,,,,,,,,,44579,2020-11-18_19h26.33.643,lingCatScenes,2020.1.3,Win32,60,"[1536,864]",,,"[""trial_ahead_box"",""trial_right_box""]",,,,,,,,,,,,hayfield6.jpg,space,4.71046,"[-0.009259246151756358,0.42222224175930023]","[-0.29814821655551677,-0.2824074190661863]","[1,1]","[0,0]","[0,0]","[2.074744999874383,3.290664999978617]","[""trial_ahead_box"",""trial_right_box""]",0,36,36,61,1,HorseRaceTrack.jpg,metroInside4.jpg,homegarden6.jpg,kindergarten_classroom7.jpg,,
Image_List_5,,,,,,,,,,,,,,,,44579,2020-11-18_19h26.33.643,lingCatScenes,2020.1.3,Win32,60,"[1536,864]",,,"[""trial_ahead_box""]",,,,,,,,,,,,trainStation3.jpg,space,2.302375,[1.3245476616753471e-8],[-0.2777777893675698],[1],[0],[0],[2.1089800000190735],"[""trial_ahead_box""]",0,37,37,94,1,treehouse.jpg,waitingroom3.jpg,staircase6.jpg,weightroom.jpg,,
Image_List_5,,,,,,,,,,,,,,,,44579,2020-11-18_19h26.33.643,lingCatScenes,2020.1.3,Win32,60,"[1536,864]",,,"[""trial_ahead_box""]",,,,,,,,,,,,library_aisle9.jpg,space,1.26409,[1.3245476616753471e-8],[-0.2777777893675698],[1],[0],[0],[0.9250900000333786],"[""trial_ahead_box""]",0,38,38,73,1,musicStore3.jpg,photographer_studio2.jpg,nursery.jpg,nursery4.jpg,,
Image_List_5,,,,,,,,,,,,,,,,44579,2020-11-18_19h26.33.643,lingCatScenes,2020.1.3,Win32,60,"[1536,864]",,,"[""trial_left_box""]",,,,,,,,,,,,tvstudio3.jpg,space,3.27061,[-0.40555554835332763],[-0.3185185307153949],[1],[0],[0],[3.0120200000237674],"[""trial_left_box""]",0,39,39,95,1,waitingroom2.jpg,warehouse2.jpg,stripmall6.jpg,weightroom4.jpg,,
Image_List_5,,,,,,,,,,,,,,,,44579,2020-11-18_19h26.33.643,lingCatScenes,2020.1.3,Win32,60,"[1536,864]",,,"[""trial_ahead_box""]",,,,,,,,,,,,airportTerminal2.jpg,space,1.63311,[-0.006481468332586465],[-0.30092593786065225],[1],[0],[0],[1.341370000038296],"[""trial_ahead_box""]",0,40,40,1,1,airportTerminal4.jpg,apartmentBuilding1.jpg,applestore1.jpg,airportTerminal3.jpg,,
Image_List_5,,,,,,,,,,,,,,,,44579,2020-11-18_19h26.33.643,lingCatScenes,2020.1.3,Win32,60,"[1536,864]",,,"[""trial_ahead_box""]",,,,,,,,,,,,basketballcourt.jpg,space,1.668485,[0.006481551337574105],[-0.30648149349899206],[1],[0],[0],[1.3792200000025332],"[""trial_ahead_box""]",0,41,41,19,1,boardwalk2.jpg,casino3.jpg,cafeteria1.jpg,castle4.jpg,,
Image_List_5,,,,,,,,,,,,,,,,44579,2020-11-18_19h26.33.643,lingCatScenes,2020.1.3,Win32,60,"[1536,864]",,,"[""trial_right_box""]",,,,,,,,,,,,backyard6.jpg,space,3.068115,[0.4046296489045576],[-0.2833333450059096],[1],[0],[0],[2.8429449999239296],"[""trial_right_box""]",0,42,42,13,1,balconyIN2.jpg,bowlingalley3.jpg,beach2.jpg,boardwalk4.jpg,,
Image_List_5,,,,,,,,,,,,,,,,44579,2020-11-18_19h26.33.643,lingCatScenes,2020.1.3,Win32,60,"[1536,864]",,,"[""trial_left_box"",""trial_right_box""]",,,,,,,,,,,,fountain.jpg,space,6.580115,"[-0.39259258519720147,0.3861111301100916]","[-0.30092593786065225,-0.2861111228250795]","[1,1]","[0,0]","[0,0]","[3.807024999987334,5.672444999916479]","[""trial_left_box"",""trial_right_box""]",0,43,43,53,1,gazebo3.jpg,homeoffice.jpg,frontLawn3.jpg,homegarage3.jpg,,
Image_List_5,,,,,,,,,,,,,,,,44579,2020-11-18_19h26.33.643,lingCatScenes,2020.1.3,Win32,60,"[1536,864]",,,"[""trial_ahead_box""]",,,,,,,,,,,,hayfield7.jpg,space,1.781755,[0.003703717004369806],[-0.3046296416195454],[1],[0],[0],[1.504600000102073],"[""trial_ahead_box""]",0,44,44,62,1,hotellobby2.jpg,minigolf.jpg,horsebarn8.jpg,lab3.jpg,,
Image_List_5,,,,,,,,,,,,,,,,44579,2020-11-18_19h26.33.643,lingCatScenes,2020.1.3,Win32,60,"[1536,864]",,,"[""trial_ahead_box""]",,,,,,,,,,,,jewelrystore.jpg,space,1.251735,[0.003703717004369806],[-0.3046296416195454],[1],[0],[0],[0.9747049999423325],"[""trial_ahead_box""]",0,45,45,71,1,metroInside2.jpg,pavilion5.jpg,metroInside3.jpg,museum3.jpg,,
Image_List_5,,,,,,,,,,,,,,,,44579,2020-11-18_19h26.33.643,lingCatScenes,2020.1.3,Win32,60,"[1536,864]",,,"[""trial_left_box""]",,,,,,,,,,,,botanicalGarden4.jpg,space,4.82206,"[0.003703717004369806,-0.0037036905134165726,-0.41296295587111403]","[-0.3046296416195454,-0.2935185868569003,-0.29074075252369597]","[1,1,1]","[0,0,0]","[0,0,0]","[0.9066699999384582,3.6877450000029057,4.586849999846891]","[""trial_ahead_box"",""trial_ahead_box"",""trial_left_box""]",0,46,46,25,1,campsite7.jpg,conference3.jpg,church3.jpg,checkoutcounter2.jpg,,
Image_List_5,,,,,,,,,,,,,,,,44579,2020-11-18_19h26.33.643,lingCatScenes,2020.1.3,Win32,60,"[1536,864]",,,"[""trial_ahead_box""]",,,,,,,,,,,,cabin3.jpg,space,1.4742,[-0.0009259126942466806],[-0.315740752896225],[1],[0],[0],[1.2106349999085069],"[""trial_ahead_box""]",0,47,47,31,1,cubicle4.jpg,desertvegetation6.jpg,conference4.jpg,courtroom2.jpg,,
Image_List_5,,,,,,,,,,,,,,,,44579,2020-11-18_19h26.33.643,lingCatScenes,2020.1.3,Win32,60,"[1536,864]",,,"[""trial_ahead_box""]",,,,,,,,,,,,sidewalk3.jpg,space,1.299245,[-0.0009259126942466806],[-0.315740752896225],[1],[0],[0],[1.0129350000061095],"[""trial_ahead_box""]",0,48,48,91,1,shoestore2.jpg,trainStation5.jpg,skatepark5.jpg,ticket_counter6.jpg,,
Image_List_5,,,,,,,,,,,,,,,,44579,2020-11-18_19h26.33.643,lingCatScenes,2020.1.3,Win32,60,"[1536,864]",,,"[""trial_slight_left_box""]",,,,,,,,,,,,bridalboutique2.jpg,space,2.31402,[-0.2037036934936488],[-0.31018519725788524],[1],[0],[0],[2.096244999906048],"[""trial_slight_left_box""]",0,49,49,28,1,churchInside1.jpg,dancestudio5.jpg,citystreet10.jpg,clothingstore5.jpg,,
Image_List_5,,,,,,,,,,,,,,,,44579,2020-11-18_19h26.33.643,lingCatScenes,2020.1.3,Win32,60,"[1536,864]",,,"[""trial_left_box""]",,,,,,,,,,,,rooftop4.jpg,space,2.331325,[-0.422222215268347],[-0.3129629750770551],[1],[0],[0],[2.0946900001727045],"[""trial_left_box""]",0,50,50,86,1,restaurant14.jpg,stripmall.jpg,ruralroad3.jpg,sandDunes_desert_outdoor8.jpg,,
Image_List_5,,,,,,,,,,,,,,,,44579,2020-11-18_19h26.33.643,lingCatScenes,2020.1.3,Win32,60,"[1536,864]",,,"[""trial_left_box""]",,,,,,,,,,,,gazebo.jpg,space,3.81292,[-0.3981481408355413],[-0.3129629750770551],[1],[0],[0],[2.509150000056252],"[""trial_left_box""]",0,51,51,57,1,hayfield5.jpg,jail1.jpg,hallway4.jpg,hut5.jpg,,
Image_List_5,,,,,,,,,,,,,,,,44579,2020-11-18_19h26.33.643,lingCatScenes,2020.1.3,Win32,60,"[1536,864]",,,"[""trial_ahead_box""]",,,,,,,,,,,,basement6.jpg,space,2.073515,[0.007407420763262996],[-0.3148148269565017],[1],[0],[0],[1.6011799999978393],"[""trial_ahead_box""]",0,52,52,18,1,bleachers5.jpg,casino1.jpg,brewery4.jpg,castle2.jpg,,
Image_List_5,,,,,,,,,,,,,,,,44579,2020-11-18_19h26.33.643,lingCatScenes,2020.1.3,Win32,60,"[1536,864]",,,"[""trial_ahead_box""]",,,,,,,,,,,,yogastudio1.jpg,space,1.741175,[0.007407420763262996],[-0.3148148269565017],[1],[0],[0],[1.4607750000432134],"[""trial_ahead_box""]",0,53,53,99,1,wineVineyard9.jpg,yogastudio4.jpg,windmill2.jpg,wrestlingring7.jpg,,
Image_List_5,,,,,,,,,,,,,,,,44579,2020-11-18_19h26.33.643,lingCatScenes,2020.1.3,Win32,60,"[1536,864]",,,"[""trial_slight_left_box""]",,,,,,,,,,,,elevatorOutside2.jpg,space,2.012225,[-0.20277776755392551],[-0.2962963081620358],[1],[0],[0],[1.7886749999597669],"[""trial_slight_left_box""]",0,54,54,47,1,frontDoor.jpg,gasstation8.jpg,firestation4.jpg,fountain7.jpg,,
Image_List_5,,,,,,,,,,,,,,,,44579,2020-11-18_19h26.33.643,lingCatScenes,2020.1.3,Win32,60,"[1536,864]",,,"[""trial_ahead_box""]",,,,,,,,,,,,carmechanic2.jpg,space,1.331815,[0.009259272642709591],[-0.2898148265839727],[1],[0],[0],[1.0951000000350177],"[""trial_ahead_box""]",0,55,55,35,1,deck5.jpg,dock3.jpg,cubicle7.jpg,dining_car6.jpg,,
Image_List_5,,,,,,,,,,,,,,,,44579,2020-11-18_19h26.33.643,lingCatScenes,2020.1.3,Win32,60,"[1536,864]",,,"[""trial_ahead_box""]",,,,,,,,,,,,basketballcourt7.jpg,space,4.097745,[1.3245476616753471e-8],[-0.29259260440314255],[1],[0],[0],[1.327989999903366],"[""trial_ahead_box""]",0,56,56,20,1,boardwalk6.jpg,cave.jpg,campsite3.jpg,cave4.jpg,,
Image_List_5,,,,,,,,,,,,,,,,44579,2020-11-18_19h26.33.643,lingCatScenes,2020.1.3,Win32,60,"[1536,864]",,,"[""trial_slight_left_box""]",,,,,,,,,,,,kindergarten_classroom.jpg,space,3.779445,"[0.187962979009306,0.187962979009306,-0.2018517851001678]","[-0.2898148265839727,-0.2898148265839727,-0.29074075252369597]","[1,1,1]","[0,0,0]","[0,0,0]","[2.2992050000466406,2.7757099999580532,3.530209999997169]","[""trial_slight_right_box"",""trial_slight_right_box"",""trial_slight_left_box""]",0,57,57,72,1,museum5.jpg,pharmacy4.jpg,musicStore1.jpg,museum4.jpg,,
Image_List_5,,,,,,,,,,,,,,,,44579,2020-11-18_19h26.33.643,lingCatScenes,2020.1.3,Win32,60,"[1536,864]",,,"[""trial_left_box""]",,,,,,,,,,,,cliff5.jpg,space,3.197275,[-0.4148148077505606],[-0.31018519725788524],[1],[0],[0],[2.9898999999277294],"[""trial_left_box""]",0,58,58,39,1,driveway6.jpg,eyeglassstore9.jpg,drycleaners6.jpg,drymountains5.jpg,,
Image_List_5,,,,,,,,,,,,,,,,44579,2020-11-18_19h26.33.643,lingCatScenes,2020.1.3,Win32,60,"[1536,864]",,,"[""trial_ahead_box""]",,,,,,,,,,,,clothingstore3.jpg,space,2.037925,[0.004629642944093104],[-0.30277784625413323],[1],[0],[0],[1.7994999999646097],"[""trial_ahead_box""]",0,59,59,40,1,drycleaners4.jpg,farm1.jpg,drymountains.jpg,dugout1.jpg,,
Image_List_5,,,,,,,,,,,,,,,,44579,2020-11-18_19h26.33.643,lingCatScenes,2020.1.3,Win32,60,"[1536,864]",,,"[""trial_ahead_box""]",,,,,,,,,,,,bridalboutique3.jpg,space,1.624105,[0.004629642944093104],[-0.30277784625413323],[1],[0],[0],[1.343885000096634],"[""trial_ahead_box""]",0,60,60,29,1,cornfield2.jpg,deck2.jpg,cliff2.jpg,constructionSite4.jpg,,
Image_List_5,,,,,,,,,,,,,,,,44579,2020-11-18_19h26.33.643,lingCatScenes,2020.1.3,Win32,60,"[1536,864]",,,"[""trial_ahead_box""]",,,,,,,,,,,,RVinside2.jpg,space,1.34217,[0.004629642944093104],[-0.30277784625413323],[1],[0],[0],[1.0290949998889118],"[""trial_ahead_box""]",0,61,61,87,1,restaurantkitchen2.jpg,theater2.jpg,savanna.jpg,sculpturegarden2.jpg,,
Image_List_5,,,,,,,,,,,,,,,,44579,2020-11-18_19h26.33.643,lingCatScenes,2020.1.3,Win32,60,"[1536,864]",,,"[""trial_ahead_box""]",,,,,,,,,,,,cabin4.jpg,space,3.23722,[0.017592606100219267],[-0.3138889010167784],[1],[0],[0],[2.966535000130534],"[""trial_ahead_box""]",0,62,62,32,1,dancestudio6.jpg,diner12.jpg,constructionSite2.jpg,dentist4.jpg,,
Image_List_5,,,,,,,,,,,,,,,,44579,2020-11-18_19h26.33.643,lingCatScenes,2020.1.3,Win32,60,"[1536,864]",,,"[""trial_right_box""]",,,,,,,,,,,,checkoutcounter9.jpg,space,4.486935,[0.41388890830179054],[-0.2898148265839727],[1],[0],[0],[3.6237300001084805],"[""trial_right_box""]",0,63,63,36,1,diner14.jpg,dormroom9.jpg,dining_car3.jpg,doctor1.jpg,,
Image_List_5,,,,,,,,,,,,,,,,44579,2020-11-18_19h26.33.643,lingCatScenes,2020.1.3,Win32,60,"[1536,864]",,,"[""trial_ahead_box""]",,,,,,,,,,,,citystreet9.jpg,space,1.54961,[-0.00833332021203306],[-0.3185185307153949],[1],[0],[0],[1.3427750000264496],"[""trial_ahead_box""]",0,64,64,37,1,dining_car.jpg,driveway4.jpg,dinosaur4.jpg,driveway7.jpg,,
Image_List_5,,,,,,,,,,,,,,,,44579,2020-11-18_19h26.33.643,lingCatScenes,2020.1.3,Win32,60,"[1536,864]",,,"[""trial_ahead_box""]",,,,,,,,,,,,botanicalGarden7.jpg,space,1.12265,[-0.00833332021203306],[-0.3185185307153949],[1],[0],[0],[0.8616400000173599],"[""trial_ahead_box""]",0,65,65,26,1,campusquad2.jpg,cornfield4.jpg,church4.jpg,churchInside3.jpg,,
Image_List_5,,,,,,,,,,,,,,,,44579,2020-11-18_19h26.33.643,lingCatScenes,2020.1.3,Win32,60,"[1536,864]",,,"[""trial_right_box""]",,,,,,,,,,,,dentist2.jpg,space,6.078225,"[0.37314816695396547,0.3907407598087081]","[-0.2935185868569003,-0.3046296416195454]","[1,1]","[0,0]","[0,0]","[4.622745000058785,5.6719649999868125]","[""trial_right_box""]",0,66,66,41,1,dugout4.jpg,farm3.jpg,drymountains3.jpg,fabricstore1.jpg,,
Image_List_5,,,,,,,,,,,,,,,,44579,2020-11-18_19h26.33.643,lingCatScenes,2020.1.3,Win32,60,"[1536,864]",,,"[""trial_sharp_right_box""]",,,,,,,,,,,,rooftop3.jpg,space,12.2977,"[0.006481551337574105,0.017592606100219267,0.01574081073480708,-0.001851838633969978,-0.18888887845807606,-0.18888887845807606,0.5916668017567325]","[-0.30925927131816194,-0.31018519725788524,-0.31666673534998274,-0.30648149349899206,-0.30925927131816194,-0.30925927131816194,-0.2953703822223125]","[1,1,1,1,1,1,1]","[0,0,0,0,0,0,0]","[0,0,0,0,0,0,0]","[1.6096999999135733,2.925645000068471,6.305669999914244,8.036910000024363,9.135825000004843,9.568759999936447,12.033000000054017]","[""trial_ahead_box"",""trial_ahead_box"",""trial_ahead_box"",""trial_ahead_box"",""trial_slight_left_box"",""trial_slight_left_box"",""trial_sharp_right_box""]",0,67,67,85,1,recordingstudio4.jpg,sidewalk5.jpg,ruralroad2.jpg,sandDunes_desert_outdoor3.jpg,,
Image_List_5,,,,,,,,,,,,,,,,44579,2020-11-18_19h26.33.643,lingCatScenes,2020.1.3,Win32,60,"[1536,864]",,,"[""trial_slight_left_box""]",,,,,,,,,,,,pasture8.jpg,space,2.61928,[-0.21944443446894488],[-0.30185186380037554],[1],[0],[0],[2.4274849998764694],"[""trial_slight_left_box""]",0,68,68,81,1,promenadeDeck.jpg,ruralroad5.jpg,promenadeDeck2.jpg,rainforest5.jpg,,
Image_List_5,,,,,,,,,,,,,,,,44579,2020-11-18_19h26.33.643,lingCatScenes,2020.1.3,Win32,60,"[1536,864]",,,"[""trial_slight_left_box""]",,,,,,,,,,,,barbershop2.jpg,space,2.14954,"[-0.2083333231922653,-0.2083333231922653]","[-0.30092593786065225,-0.30092593786065225]","[1,1]","[0,0]","[0,0]","[1.3221800001338124,1.7716700001619756]","[""trial_slight_left_box"",""trial_slight_left_box""]",0,69,69,16,1,basement.jpg,cafeteria6.jpg,breakroom2.jpg,campusquad4.jpg,,
Image_List_5,,,,,,,,,,,,,,,,44579,2020-11-18_19h26.33.643,lingCatScenes,2020.1.3,Win32,60,"[1536,864]",,,"[""trial_left_box""]",,,,,,,,,,,,homeoffice8.jpg,space,4.781615,[-0.40277777053415775],[-0.30092593786065225],[1],[0],[0],[4.581199999898672],"[""trial_left_box""]",0,70,70,65,1,igloo5.jpg,newsstand7.jpg,laundromat2.jpeg,labClass7.jpg,,
Image_List_5,,,,,,,,,,,,,,,,44579,2020-11-18_19h26.33.643,lingCatScenes,2020.1.3,Win32,60,"[1536,864]",,,"[""trial_left_box""]",,,,,,,,,,,,hospitalroom2.jpg,space,1.587755,[-0.40277777053415775],[-0.30092593786065225],[1],[0],[0],[1.3093699999153614],"[""trial_left_box""]",0,71,71,67,1,library_aisle3.jpg,park7.jpg,laundromat4.jpg,liquorstore2.jpg,,
Image_List_5,,,,,,,,,,,,,,,,44579,2020-11-18_19h26.33.643,lingCatScenes,2020.1.3,Win32,60,"[1536,864]",,,"[""trial_ahead_box""]",,,,,,,,,,,,forestpath2.jpg,space,1.95364,[0.007407420763262996],[-0.3055555675592687],[1],[0],[0],[1.7608599998056889],"[""trial_ahead_box""]",0,72,72,52,1,gasstation7.jpg,hardwarestore1.jpg,frontFoyer6.jpg,highway.jpg,,
Image_List_5,,,,,,,,,,,,,,,,44579,2020-11-18_19h26.33.643,lingCatScenes,2020.1.3,Win32,60,"[1536,864]",,,"[""trial_ahead_box""]",,,,,,,,,,,,observatory1.jpg,space,1.60229,[0.007407420763262996],[-0.3055555675592687],[1],[0],[0],[1.3002100000157952],"[""trial_ahead_box""]",0,73,73,78,1,parkinglot3.jpg,poolhall1.jpg,pier5.jpg,pavilion3.jpg,,
Image_List_5,,,,,,,,,,,,,,,,44579,2020-11-18_19h26.33.643,lingCatScenes,2020.1.3,Win32,60,"[1536,864]",,,"[""trial_ahead_box""]",,,,,,,,,,,,arcade2.jpg,space,1.082685,[0.007407420763262996],[-0.3055555675592687],[1],[0],[0],[0.8782500000670552],"[""trial_ahead_box""]",0,74,74,9,1,auto_showroom3.jpg,bar2.jpg,ballroom2.jpg,basement5.jpg,,
Image_List_5,,,,,,,,,,,,,,,,44579,2020-11-18_19h26.33.643,lingCatScenes,2020.1.3,Win32,60,"[1536,864]",,,"[""trial_slight_left_box""]",,,,,,,,,,,,hospitalroom3.jpg,space,1.869865,[-0.19999998973475563],[-0.30925927131816194],[1],[0],[0],[1.642089999979362],"[""trial_slight_left_box""]",0,75,75,68,1,liquorstore7.jpg,parkinglot.jpg,lightingstore4.jpg,lockerroom2.jpg,,
Image_List_5,,,,,,,,,,,,,,,,44579,2020-11-18_19h26.33.643,lingCatScenes,2020.1.3,Win32,60,"[1536,864]",,,"[""trial_slight_left_box""]",,,,,,,,,,,,dock2.jpg,space,2.91654,[-0.19074073033752265],[-0.2824074190661863],[1],[0],[0],[2.261455000145361],"[""trial_slight_left_box""]",0,76,76,44,1,firestation2.jpg,frontFoyer4.jpg,elevatorOutside1.jpg,foodcourt6.jpg,,
Image_List_5,,,,,,,,,,,,,,,,44579,2020-11-18_19h26.33.643,lingCatScenes,2020.1.3,Win32,60,"[1536,864]",,,"[""trial_left_box""]",,,,,,,,,,,,applestore4.jpg,space,2.22237,[-0.3777777701616287],[-0.2953703822223125],[1],[0],[0],[1.616135000018403],"[""trial_left_box""]",0,77,77,8,1,attic3.jpg,banquetHall6.jpg,balconyIN.jpg,bar.jpg,,
Image_List_5,,,,,,,,,,,,,,,,44579,2020-11-18_19h26.33.643,lingCatScenes,2020.1.3,Win32,60,"[1536,864]",,,"[""trial_ahead_box"",""trial_slight_right_box"",""trial_slight_left_box""]",,,,,,,,,,,,baseball6.jpg,space,3.474785,"[-0.006481468332586465,0.20462964592432534,-0.17870363660708538]","[-0.3055555675592687,-0.2935185868569003,-0.30277784625413323]","[1,1,1]","[0,0,0]","[0,0,0]","[1.6913999998942018,2.4572399999015033,3.2233499998692423]","[""trial_ahead_box"",""trial_slight_right_box"",""trial_slight_left_box""]",0,78,78,17,1,bikerack1.jpg,campsite6.jpg,breakroom4.jpg,carmechanic.jpg,,
Image_List_5,,,,,,,,,,,,,,,,44579,2020-11-18_19h26.33.643,lingCatScenes,2020.1.3,Win32,60,"[1536,864]",,,"[""trial_left_box""]",,,,,,,,,,,,farm2.jpg,space,4.22124,"[-0.43240740060530325,-0.40555554835332763]","[-0.2851851968853562,-0.30370371567982213]","[1,1]","[0,0]","[0,0]","[2.576630000025034,3.4926350000314415]","[""trial_left_box""]",0,79,79,49,1,frontDoor3.jpg,greenhouse5.jpg,flowershop3.jpg,greenhouse.jpg,,
Image_List_5,,,,,,,,,,,,,,,,44579,2020-11-18_19h26.33.643,lingCatScenes,2020.1.3,Win32,60,"[1536,864]",,,"[""trial_left_box"",""trial_right_box""]",,,,,,,,,,,,soccerfield2.jpg,space,15.48796,"[-0.41203702993139074,0.4037037229648343,0.4046296489045576]","[-0.30092593786065225,-0.27222223372923005,-0.2805555671867397]","[1,1,1]","[0,0,0]","[0,0,0]","[13.083674999885261,14.181959999958053,15.232014999957755]","[""trial_left_box"",""trial_right_box""]",0,80,80,92,1,staircase.jpg,volleyballcourt.jpg,skatepark7.jpg,tvstudio2.jpg,,
Image_List_5,,,,,,,,,,,,,,,,44579,2020-11-18_19h26.33.643,lingCatScenes,2020.1.3,Win32,60,"[1536,864]",,,"[""trial_left_box"",""trial_right_box""]",,,,,,,,,,,,apartmentBuilding3.jpg,space,6.659905,"[-0.4277777709066868,-0.3999999927149879,0.4055555748442809]","[-0.3314814938715211,-0.30925927131816194,-0.29907408598120566]","[1,1,1]","[0,0,0]","[0,0,0]","[3.240470000077039,4.556259999983013,5.488770000170916]","[""trial_left_box"",""trial_right_box""]",0,81,81,6,1,ATM1.jpg,banquetHall2.jpg,auto_showroom5.jpg,baggageClaim1.jpg,,
Image_List_5,,,,,,,,,,,,,,,,44579,2020-11-18_19h26.33.643,lingCatScenes,2020.1.3,Win32,60,"[1536,864]",,,"[""trial_ahead_box""]",,,,,,,,,,,,observatory2.jpg,space,1.757515,[-0.009259246151756358],[-0.31666673534998274],[1],[0],[0],[1.4094950000289828],"[""trial_ahead_box""]",0,82,82,79,1,pasture.jpg,poolhall2.jpeg,playground9.jpg,pier2.jpg,,
Image_List_5,,,,,,,,,,,,,,,,44579,2020-11-18_19h26.33.643,lingCatScenes,2020.1.3,Win32,60,"[1536,864]",,,"[""trial_slight_left_box""]",,,,,,,,,,,,lockerroom.jpg,space,2.081705,[-0.207407397252542],[-0.31018519725788524],[1],[0],[0],[1.876454999903217],"[""trial_slight_left_box""]",0,83,83,75,1,pantry5.jpg,playground6.jpg,operatingroom4.jpg,park.jpg,,
Image_List_5,,,,,,,,,,,,,,,,44579,2020-11-18_19h26.33.643,lingCatScenes,2020.1.3,Win32,60,"[1536,864]",,,"[""trial_slight_right_box""]",,,,,,,,,,,,dock4.jpg,space,2.62162,[0.20555557186404863],[-0.315740752896225],[1],[0],[0],[2.340295000001788],"[""trial_slight_right_box""]",0,84,84,45,1,fittingroom2.jpg,frontFoyer7.jpg,factory1.jpg,forestpath4.jpg,,
Image_List_5,,,,,,,,,,,,,,,,44579,2020-11-18_19h26.33.643,lingCatScenes,2020.1.3,Win32,60,"[1536,864]",,,"[""trial_ahead_box""]",,,,,,,,,,,,lookout4.jpg,space,1.50041,[-0.007407337758275356],[-0.30648149349899206],[1],[0],[0],[1.1767449998296797],"[""trial_ahead_box""]",0,85,85,76,1,parkinggarage.jpg,playroom4.jpg,parkinggarage3.jpg,park2.jpg,,
Image_List_5,,,,,,,,,,,,,,,,44579,2020-11-18_19h26.33.643,lingCatScenes,2020.1.3,Win32,60,"[1536,864]",,,"[""trial_slight_right_box""]",,,,,,,,,,,,fireplace4.jpg,space,3.36419,[0.21111112750238842],[-0.30925927131816194],[1],[0],[0],[1.8078399999067187],"[""trial_slight_right_box""]",0,86,86,50,1,frontLawn4.jpg,grocerystore6.jpg,forestpath6.jpg,hallway2.jpg,,
Image_List_5,,,,,,,,,,,,,,,,44579,2020-11-18_19h26.33.643,lingCatScenes,2020.1.3,Win32,60,"[1536,864]",,,"[""trial_ahead_box""]",,,,,,,,,,,,frontFoyer.jpg,space,2.59944,"[0.004629642944093104,-0.0009259126942466806]","[-0.32777779011262786,-0.2805555671867397]","[1,1]","[0,0]","[0,0]","[1.3229099998716265,2.3550650000106543]","[""trial_ahead_box""]",0,87,87,54,1,greenhouse2.jpg,horsebarn11.jpg,gazebo2.jpg,homegarage4.jpg,,
Image_List_5,,,,,,,,,,,,,,,,44579,2020-11-18_19h26.33.643,lingCatScenes,2020.1.3,Win32,60,"[1536,864]",,,"[""trial_slight_left_box""]",,,,,,,,,,,,ATM4.jpg,space,2.91667,"[-0.22685184198673125,-0.21851850852922158]","[-0.3148148269565017,-0.3055555675592687]","[1,1]","[0,0]","[0,0]","[1.7434950000606477,2.67538999998942]","[""trial_slight_left_box""]",0,88,88,10,1,backstage2.jpg,barbershop3.jpg,ballroom4.jpg,basketballcourt3.jpg,,
Image_List_5,,,,,,,,,,,,,,,,44579,2020-11-18_19h26.33.643,lingCatScenes,2020.1.3,Win32,60,"[1536,864]",,,"[""trial_slight_right_box""]",,,,,,,,,,,,igloo.jpg,space,2.24952,[0.21111112750238842],[-0.30185186380037554],[1],[0],[0],[2.059720000019297],"[""trial_slight_right_box""]",0,89,89,70,1,lockerroom4.jpg,pavilion.jpg,lockerroom3.jpg,minigolf8.jpg,,
Image_List_5,,,,,,,,,,,,,,,,44579,2020-11-18_19h26.33.643,lingCatScenes,2020.1.3,Win32,60,"[1536,864]",,,"[""trial_ahead_box"",""trial_right_box""]",,,,,,,,,,,,warehouse1.jpg,space,4.012635,"[-0.0055555423928631675,0.3898148338689848]","[-0.3055555675592687,-0.30092593786065225]","[1,1]","[0,0]","[0,0]","[1.5114849999081343,3.7929149998817593]","[""trial_ahead_box"",""trial_right_box""]",0,90,90,96,1,warehouse4.jpg,warehouseoutside1.jpg,tenniscourt3.jpg,windmill1.jpg,,
Image_List_5,,,,,,,,,,,,,,,,44579,2020-11-18_19h26.33.643,lingCatScenes,2020.1.3,Win32,60,"[1536,864]",,,"[""trial_right_box"",""trial_left_box""]",,,,,,,,,,,,mallindoor6.jpg,space,4.30161,"[0.41018520454289736,-0.3592592513671628,-0.40277777053415775]","[-0.30648149349899206,-0.2935185868569003,-0.2861111228250795]","[1,1,1]","[0,0,0]","[0,0,0]","[1.810130000114441,3.025649999966845,3.624765000073239]","[""trial_right_box"",""trial_left_box""]",0,91,91,77,1,parkinggarage2.jpg,playroom6.jpg,pasture9.jpg,park8.jpg,,
Image_List_5,,,,,,,,,,,,,,,,44579,2020-11-18_19h26.33.643,lingCatScenes,2020.1.3,Win32,60,"[1536,864]",,,"[""trial_left_box"",""trial_right_box""]",,,,,,,,,,,,bleachers6.jpg,space,3.899205,"[-0.39444443707664806,0.45000001995099914,0.41203705642234395]","[-0.2944444562825892,-0.30092593786065225,-0.30000001192092896]","[1,1,1]","[0,0,0]","[0,0,0]","[1.542820000089705,2.742090000072494,3.6248350001405925]","[""trial_left_box"",""trial_right_box""]",0,92,92,23,1,bus_shelter.jpg,church8.jpg,carmechanic4.jpeg,cemetery3.jpg,,
Image_List_5,,,,,,,,,,,,,,,,44579,2020-11-18_19h26.33.643,lingCatScenes,2020.1.3,Win32,60,"[1536,864]",,,"[""trial_ahead_box"",""trial_right_box""]",,,,,,,,,,,,backyard5.jpg,space,5.5777,"[-0.001851838633969978,-0.3824073998602452,-0.3824073998602452,0.3962963154470479]","[-0.2861111228250795,-0.2870370487648028,-0.2870370487648028,-0.30092593786065225]","[1,1,1,1]","[0,0,0,0]","[0,0,0,0]","[1.5435850000940263,3.758529999991879,4.424374999944121,5.4235549999866635]","[""trial_ahead_box"",""trial_left_box"",""trial_left_box"",""trial_right_box""]",0,93,93,12,1,baggageClaim4.jpg,bedroom6.jpg,bambooforest5.jpg,bleachers7.jpg,,
Image_List_5,,,,,,,,,,,,,,,,44579,2020-11-18_19h26.33.643,lingCatScenes,2020.1.3,Win32,60,"[1536,864]",,,"[""trial_right_box"",""trial_ahead_box""]",,,,,,,,,,,,boardwalk.jpg,space,3.21722,[0.006481551337574105],[-0.30370371567982213],[1],[0],[0],[2.1123849998693913],"[""trial_ahead_box""]",0,94,94,24,1,campsite.jpg,cliff3.jpg,cave6.jpg,cemetery5.jpg,,
Image_List_5,,,,,,,,,,,,,,,,44579,2020-11-18_19h26.33.643,lingCatScenes,2020.1.3,Win32,60,"[1536,864]",,,"[""trial_ahead_box""]",,,,,,,,,,,,grocerystore2.jpg,space,2.22465,[0.017592606100219267],[-0.30000001192092896],[1],[0],[0],[1.922084999969229],"[""trial_ahead_box""]",0,95,95,58,1,highway7.jpg,lab1.jpg,hedgemaze1.jpg,igloo4.jpg,,
Image_List_5,,,,,,,,,,,,,,,,44579,2020-11-18_19h26.33.643,lingCatScenes,2020.1.3,Win32,60,"[1536,864]",,,"[""trial_slight_left_box""]",,,,,,,,,,,,grocerystore3.jpg,space,2.438605,[-0.19351850815669255],[-0.3194444566551182],[1],[0],[0],[1.9772200000006706],"[""trial_slight_left_box""]",0,96,96,59,1,homegarden7.jpg,library_aisle8.jpg,highway4.jpg,kindergarten_classroom5.jpg,,
Image_List_5,,,,,,,,,,,,,,,,44579,2020-11-18_19h26.33.643,lingCatScenes,2020.1.3,Win32,60,"[1536,864]",,,"[""trial_ahead_box""]",,,,,,,,,,,,airportTerminal6.jpg,space,3.108,[0.014814828281049375],[-0.29907408598120566],[1],[0],[0],[2.8436900000087917],"[""trial_ahead_box""]",0,97,97,2,1,alley1.jpg,arcade1.jpg,applestore6.jpg,apartmentBuilding4.jpg,,
Image_List_5,,,,,,,,,,,,,,,,44579,2020-11-18_19h26.33.643,lingCatScenes,2020.1.3,Win32,60,"[1536,864]",,,"[""trial_ahead_box""]",,,,,,,,,,,,highway2.jpg,space,1.56562,[0.014814828281049375],[-0.29907408598120566],[1],[0],[0],[1.260224999859929],"[""trial_ahead_box""]",0,98,98,63,1,hut2.jpg,museum6.jpg,hotelRoom2.jpg,lab4.jpg,,
Image_List_5,,,,,,,,,,,,,,,,44579,2020-11-18_19h26.33.643,lingCatScenes,2020.1.3,Win32,60,"[1536,864]",,,"[""trial_slight_right_box""]",,,,,,,,,,,,beach1.jpeg,space,6.440415,"[-0.2064814147987843,-0.2064814147987843,0.41481483424151383,0.2157407572010049,0.4055555748442809]","[-0.3231481604140114,-0.3231481604140114,-0.3148148269565017,-0.30648149349899206,-0.2842593274596673]","[1,1,1,1,1]","[0,0,0,0,0]","[0,0,0,0,0]","[2.643544999882579,3.126075000036508,4.741644999943674,5.623944999882951,6.255940000060946]","[""trial_slight_left_box"",""trial_slight_left_box"",""trial_right_box"",""trial_slight_right_box"",""trial_right_box""]",0,99,99,21,1,botanicalGarden6.jpg,cemetery6.jpg,campusquad3.jpg,cave5.jpg,,
Image_List_5,,,,,,,,,,,,,,,,44579,2020-11-18_19h26.33.643,lingCatScenes,2020.1.3,Win32,60,,,,,,,,,,,,,,,,,,,,,,,,,,,,,,,,,,,space,10.742725
