image_list,key_resp_intructions.keys,key_resp_intructions.rt,key_resp_intructions_3.keys,key_resp_intructions_3.rt,PracticeComplete_2.keys,PracticeComplete_2.rt,PracticeComplete_3.keys,PracticeComplete_3.rt,demo_trials.thisRepN,demo_trials.thisTrialN,demo_trials.thisN,demo_trials.thisIndex,demo_trials.ran,demo_images,path_images,participant,date,expName,psychopyVersion,OS,frameRate,windowSize,drawing,numDrawings,drawingSizes,practice_complete.keys,practice_complete.rt,PracticeComplete.keys,PracticeComplete.rt,practice_trials.thisRepN,practice_trials.thisTrialN,practice_trials.thisN,practice_trials.thisIndex,practice_trials.ran,practice_images,feedback_images,key_resp_intructions_2.keys,key_resp_intructions_2.rt,Image_List_3,trial_complete.keys,trial_complete.rt,trials.thisRepN,trials.thisTrialN,trials.thisN,trials.thisIndex,trials.ran,Image_List_1,Image_List_2,Image_List_4,Image_List_5,key_resp.keys,key_resp.rt
Image_List_3,space,19.23,space,2.834,space,8.416,space,4.604,0,0,0,6,1,right_left.jpg,right_left_path.jpg,44608,2020-11-24_10h34.24.162,analogCatScenes,2020.1.3,MacIntel,60,,,,,,,,,,,,,,,,,,,,,,,,,,,,,,,
Image_List_3,,,,,space,3.198,space,1.136,0,1,1,5,1,right.jpg,right_path.jpg,44608,2020-11-24_10h34.24.162,analogCatScenes,2020.1.3,MacIntel,60,,,,,,,,,,,,,,,,,,,,,,,,,,,,,,,
Image_List_3,,,,,space,0.968,space,0.735,0,2,2,0,1,ahead.jpg,ahead_path.jpg,44608,2020-11-24_10h34.24.162,analogCatScenes,2020.1.3,MacIntel,60,,,,,,,,,,,,,,,,,,,,,,,,,,,,,,,
Image_List_3,,,,,space,1.001,space,1.048,0,3,3,3,1,ahead_right_left.jpg,ahead_right_left_path.jpg,44608,2020-11-24_10h34.24.162,analogCatScenes,2020.1.3,MacIntel,60,,,,,,,,,,,,,,,,,,,,,,,,,,,,,,,
Image_List_3,,,,,space,1.077,space,1.132,0,4,4,2,1,ahead_right.jpg,ahead_right_path.jpg,44608,2020-11-24_10h34.24.162,analogCatScenes,2020.1.3,MacIntel,60,,,,,,,,,,,,,,,,,,,,,,,,,,,,,,,
Image_List_3,,,,,space,1.287,space,0.38,0,5,5,1,1,ahead_left.jpg,ahead_left_path.jpg,44608,2020-11-24_10h34.24.162,analogCatScenes,2020.1.3,MacIntel,60,,,,,,,,,,,,,,,,,,,,,,,,,,,,,,,
Image_List_3,,,,,space,0.633,space,0.524,0,6,6,4,1,left.jpg,left_path.jpg,44608,2020-11-24_10h34.24.162,analogCatScenes,2020.1.3,MacIntel,60,,,,,,,,,,,,,,,,,,,,,,,,,,,,,,,
Image_List_3,,,,,,,,,,,,,,,,44608,2020-11-24_10h34.24.162,analogCatScenes,2020.1.3,MacIntel,60,"[1440,900]","[[[-0.006666666666666667,-0.19777777777777777],[-0.006666666666666667,-0.19777777777777777],[-0.006666666666666667,-0.19777777777777777],[-0.006666666666666667,-0.19777777777777777],[-0.006666666666666667,-0.19777777777777777],[-0.006666666666666667,-0.19777777777777777],[-0.006666666666666667,-0.19777777777777777],[-0.006666666666666667,-0.19777777777777777],[-0.006666666666666667,-0.19777777777777777],[-0.008888888888888889,-0.19777777777777777],[-0.022222222222222223,-0.19666666666666666],[-0.05333333333333334,-0.18777777777777777],[-0.07666666666666666,-0.18],[-0.10444444444444445,-0.17222222222222222],[-0.12333333333333334,-0.16555555555555557],[-0.1411111111111111,-0.16],[-0.15222222222222223,-0.15666666666666668],[-0.16111111111111112,-0.15444444444444444],[-0.16777777777777778,-0.15444444444444444],[-0.17666666666666667,-0.15444444444444444],[-0.1811111111111111,-0.15444444444444444],[-0.18666666666666668,-0.15444444444444444],[-0.19333333333333333,-0.15444444444444444],[-0.2,-0.15444444444444444],[-0.20777777777777778,-0.15444444444444444],[-0.21555555555555556,-0.15333333333333332],[-0.2222222222222222,-0.1511111111111111],[-0.2288888888888889,-0.14888888888888888],[-0.23333333333333334,-0.14666666666666667],[-0.23777777777777778,-0.14444444444444443],[-0.24555555555555555,-0.14],[-0.2477777777777778,-0.14],[-0.2544444444444444,-0.13555555555555557],[-0.26,-0.13333333333333333],[-0.2644444444444444,-0.13],[-0.27,-0.12666666666666668],[-0.27444444444444444,-0.12222222222222222],[-0.2777777777777778,-0.11888888888888889],[-0.2811111111111111,-0.11666666666666667],[-0.28444444444444444,-0.11333333333333333],[-0.2877777777777778,-0.11],[-0.29,-0.10777777777777778],[-0.29333333333333333,-0.10333333333333333],[-0.2966666666666667,-0.10111111111111111],[-0.29888888888888887,-0.09888888888888889],[-0.3011111111111111,-0.09777777777777778],[-0.3022222222222222,-0.09666666666666666],[-0.30444444444444446,-0.09555555555555556],[-0.3055555555555556,-0.09444444444444444],[-0.30666666666666664,-0.09333333333333334],[-0.3088888888888889,-0.09333333333333334],[-0.31,-0.09222222222222222],[-0.3111111111111111,-0.09111111111111111],[-0.31333333333333335,-0.09111111111111111],[-0.31444444444444447,-0.09],[-0.31666666666666665,-0.08888888888888889],[-0.3188888888888889,-0.08777777777777777],[-0.3211111111111111,-0.08666666666666667],[-0.32222222222222224,-0.08666666666666667],[-0.3233333333333333,-0.08555555555555555],[-0.32555555555555554,-0.08555555555555555],[-0.32666666666666666,-0.08444444444444445],[-0.3277777777777778,-0.08444444444444445],[-0.3288888888888889,-0.08444444444444445],[-0.3288888888888889,-0.08444444444444445],[-0.3288888888888889,-0.08333333333333333],[-0.3288888888888889,-0.08333333333333333],[-0.3288888888888889,-0.08333333333333333],[-0.3288888888888889,-0.08333333333333333],[-0.3288888888888889,-0.08333333333333333]],[[-0.0011111111111111111,-0.1988888888888889],[-0.0011111111111111111,-0.1988888888888889],[-0.0011111111111111111,-0.1988888888888889],[-0.0011111111111111111,-0.1988888888888889],[-0.0011111111111111111,-0.1988888888888889],[-0.0011111111111111111,-0.1988888888888889],[-0.0011111111111111111,-0.1988888888888889],[-0.0011111111111111111,-0.1988888888888889],[-0.0011111111111111111,-0.1988888888888889],[-0.0011111111111111111,-0.1988888888888889],[-0.0011111111111111111,-0.1988888888888889],[-0.0011111111111111111,-0.1988888888888889],[-0.0011111111111111111,-0.1988888888888889],[-0.0011111111111111111,-0.19777777777777777],[-0.0011111111111111111,-0.19777777777777777],[-0.0011111111111111111,-0.19666666666666666],[-0.0011111111111111111,-0.19555555555555557],[-0.0011111111111111111,-0.19333333333333333],[-0.0011111111111111111,-0.18888888888888888],[-0.0011111111111111111,-0.18222222222222223],[-0.0011111111111111111,-0.17333333333333334],[-0.0011111111111111111,-0.16555555555555557],[0,-0.15444444444444444],[0,-0.14888888888888888],[0.0011111111111111111,-0.1411111111111111],[0.0011111111111111111,-0.13555555555555557],[0.0022222222222222222,-0.13],[0.0033333333333333335,-0.12111111111111111],[0.0044444444444444444,-0.11777777777777777],[0.005555555555555556,-0.11222222222222222],[0.005555555555555556,-0.11],[0.006666666666666667,-0.10666666666666667],[0.0077777777777777776,-0.10444444444444445],[0.0077777777777777776,-0.10111111111111111],[0.01,-0.09666666666666666],[0.011111111111111112,-0.09333333333333334],[0.012222222222222223,-0.09],[0.013333333333333334,-0.08777777777777777],[0.014444444444444444,-0.08444444444444445],[0.015555555555555555,-0.08222222222222222],[0.016666666666666666,-0.08],[0.017777777777777778,-0.07777777777777778],[0.01888888888888889,-0.07555555555555556],[0.02,-0.07333333333333333],[0.02,-0.07222222222222222],[0.02,-0.07],[0.02,-0.06777777777777778],[0.021111111111111112,-0.06444444444444444],[0.021111111111111112,-0.06111111111111111],[0.021111111111111112,-0.057777777777777775],[0.021111111111111112,-0.05555555555555555],[0.021111111111111112,-0.052222222222222225],[0.022222222222222223,-0.05],[0.022222222222222223,-0.04777777777777778],[0.022222222222222223,-0.04555555555555556],[0.023333333333333334,-0.04555555555555556],[0.023333333333333334,-0.044444444444444446],[0.023333333333333334,-0.044444444444444446],[0.023333333333333334,-0.044444444444444446],[0.024444444444444446,-0.043333333333333335],[0.024444444444444446,-0.043333333333333335],[0.024444444444444446,-0.043333333333333335],[0.024444444444444446,-0.043333333333333335],[0.024444444444444446,-0.043333333333333335],[0.024444444444444446,-0.043333333333333335]],[[0.0022222222222222222,-0.20555555555555555],[0.0022222222222222222,-0.20555555555555555],[0.0022222222222222222,-0.20555555555555555],[0.0022222222222222222,-0.20555555555555555],[0.0022222222222222222,-0.20555555555555555],[0.0022222222222222222,-0.20555555555555555],[0.0022222222222222222,-0.20555555555555555],[0.0044444444444444444,-0.20333333333333334],[0.015555555555555555,-0.19444444444444445],[0.025555555555555557,-0.18666666666666668],[0.04,-0.17777777777777778],[0.052222222222222225,-0.17222222222222222],[0.06444444444444444,-0.16666666666666666],[0.07333333333333333,-0.16444444444444445],[0.08222222222222222,-0.1622222222222222],[0.08666666666666667,-0.16111111111111112],[0.09333333333333334,-0.15888888888888889],[0.09888888888888889,-0.15666666666666668],[0.10444444444444445,-0.15444444444444444],[0.11222222222222222,-0.14888888888888888],[0.11555555555555555,-0.14666666666666667],[0.11777777777777777,-0.14333333333333334],[0.12111111111111111,-0.1411111111111111],[0.12444444444444444,-0.13666666666666666],[0.12777777777777777,-0.1322222222222222],[0.1322222222222222,-0.12777777777777777],[0.13555555555555557,-0.12333333333333334],[0.1388888888888889,-0.11777777777777777],[0.1411111111111111,-0.11444444444444445],[0.14333333333333334,-0.1111111111111111],[0.14555555555555555,-0.10666666666666667],[0.1511111111111111,-0.10111111111111111],[0.15333333333333332,-0.09888888888888889],[0.15666666666666668,-0.09555555555555556],[0.16,-0.09333333333333334],[0.1622222222222222,-0.09222222222222222],[0.16444444444444445,-0.09111111111111111],[0.16666666666666666,-0.09],[0.1688888888888889,-0.09],[0.17222222222222222,-0.08888888888888889],[0.17555555555555555,-0.08888888888888889],[0.17777777777777778,-0.08888888888888889],[0.18,-0.08777777777777777],[0.18222222222222223,-0.08777777777777777],[0.18444444444444444,-0.08555555555555555],[0.18666666666666668,-0.08555555555555555],[0.18888888888888888,-0.08444444444444445],[0.19,-0.08333333333333333],[0.19111111111111112,-0.08222222222222222],[0.19111111111111112,-0.08222222222222222],[0.1922222222222222,-0.08222222222222222],[0.1922222222222222,-0.08222222222222222],[0.1922222222222222,-0.08222222222222222],[0.19333333333333333,-0.08222222222222222],[0.19333333333333333,-0.0811111111111111],[0.19333333333333333,-0.0811111111111111],[0.19333333333333333,-0.0811111111111111],[0.19333333333333333,-0.0811111111111111],[0.19333333333333333,-0.0811111111111111],[0.19333333333333333,-0.0811111111111111],[0.19333333333333333,-0.0811111111111111],[0.19333333333333333,-0.0811111111111111],[0.19333333333333333,-0.0811111111111111],[0.19333333333333333,-0.0811111111111111],[0.19333333333333333,-0.0811111111111111],[0.19333333333333333,-0.0811111111111111],[0.19333333333333333,-0.0811111111111111],[0.19333333333333333,-0.0811111111111111],[0.19333333333333333,-0.0811111111111111],[0.19333333333333333,-0.0811111111111111],[0.19333333333333333,-0.0811111111111111],[0.19333333333333333,-0.0811111111111111],[0.19333333333333333,-0.0811111111111111]]]",3,"[70,65,73]",space,19.51,space,2.973,0,0,0,3,1,ahead_right_left_2.jpg,ahead_right_left_2_path.jpg,,,,,,,,,,,,,,,,
Image_List_3,,,,,,,,,,,,,,,,44608,2020-11-24_10h34.24.162,analogCatScenes,2020.1.3,MacIntel,60,"[1440,900]","[[[0.008888888888888889,-0.2111111111111111],[0.008888888888888889,-0.2111111111111111],[0.008888888888888889,-0.2111111111111111],[0.008888888888888889,-0.2111111111111111],[0.008888888888888889,-0.2111111111111111],[0.008888888888888889,-0.2111111111111111],[0.008888888888888889,-0.2111111111111111],[0.008888888888888889,-0.2088888888888889],[0.008888888888888889,-0.20444444444444446],[0.008888888888888889,-0.19555555555555557],[0.0077777777777777776,-0.17777777777777778],[0.005555555555555556,-0.15888888888888889],[0.0022222222222222222,-0.13666666666666666],[-0.0011111111111111111,-0.11444444444444445],[-0.0022222222222222222,-0.09888888888888889],[-0.005555555555555556,-0.08],[-0.0077777777777777776,-0.06666666666666667],[-0.01,-0.05555555555555555],[-0.013333333333333334,-0.03777777777777778],[-0.014444444444444444,-0.02666666666666667],[-0.015555555555555555,-0.016666666666666666],[-0.016666666666666666,-0.006666666666666667],[-0.017777777777777778,0.0011111111111111111],[-0.017777777777777778,0.006666666666666667],[-0.01888888888888889,0.014444444444444444],[-0.01888888888888889,0.02],[-0.02,0.025555555555555557],[-0.02,0.028888888888888888],[-0.02,0.03333333333333333],[-0.021111111111111112,0.035555555555555556],[-0.021111111111111112,0.04],[-0.021111111111111112,0.043333333333333335],[-0.021111111111111112,0.04666666666666667],[-0.021111111111111112,0.051111111111111114],[-0.021111111111111112,0.05444444444444444],[-0.021111111111111112,0.058888888888888886],[-0.022222222222222223,0.06111111111111111],[-0.022222222222222223,0.06444444444444444],[-0.022222222222222223,0.06666666666666667],[-0.022222222222222223,0.06888888888888889],[-0.023333333333333334,0.07111111111111111],[-0.023333333333333334,0.07333333333333333],[-0.023333333333333334,0.07444444444444444],[-0.024444444444444446,0.07555555555555556],[-0.024444444444444446,0.07666666666666666],[-0.024444444444444446,0.07666666666666666],[-0.024444444444444446,0.07777777777777778],[-0.024444444444444446,0.07777777777777778],[-0.025555555555555557,0.07777777777777778],[-0.025555555555555557,0.07777777777777778],[-0.025555555555555557,0.07777777777777778],[-0.025555555555555557,0.07777777777777778],[-0.025555555555555557,0.07777777777777778]],[[0.008888888888888889,-0.20666666666666667],[0.008888888888888889,-0.20666666666666667],[0.008888888888888889,-0.20666666666666667],[0.008888888888888889,-0.20666666666666667],[0.008888888888888889,-0.20666666666666667],[0.008888888888888889,-0.20666666666666667],[0.008888888888888889,-0.20666666666666667],[0.008888888888888889,-0.20666666666666667],[0.012222222222222223,-0.20666666666666667],[0.022222222222222223,-0.20444444444444446],[0.03777777777777778,-0.2011111111111111],[0.057777777777777775,-0.19555555555555557],[0.07555555555555556,-0.1922222222222222],[0.09777777777777778,-0.18666666666666668],[0.1111111111111111,-0.18333333333333332],[0.12222222222222222,-0.1811111111111111],[0.13111111111111112,-0.17888888888888888],[0.14888888888888888,-0.17333333333333334],[0.15888888888888889,-0.17],[0.17222222222222222,-0.16666666666666666],[0.18222222222222223,-0.1622222222222222],[0.19,-0.15888888888888889],[0.19666666666666666,-0.15666666666666668],[0.20555555555555555,-0.15333333333333332],[0.21444444444444444,-0.14888888888888888],[0.22333333333333333,-0.14555555555555555],[0.23222222222222222,-0.14],[0.24,-0.13555555555555557],[0.24555555555555555,-0.1322222222222222],[0.25,-0.1288888888888889],[0.25555555555555554,-0.12555555555555556],[0.26,-0.12333333333333334],[0.2633333333333333,-0.12111111111111111],[0.26666666666666666,-0.11888888888888889],[0.27,-0.11777777777777777],[0.2722222222222222,-0.11555555555555555],[0.27555555555555555,-0.11333333333333333],[0.2788888888888889,-0.11222222222222222],[0.2833333333333333,-0.11],[0.28888888888888886,-0.10888888888888888],[0.2922222222222222,-0.10666666666666667],[0.29555555555555557,-0.10555555555555556],[0.29777777777777775,-0.10444444444444445],[0.3022222222222222,-0.10333333333333333],[0.30333333333333334,-0.10222222222222223],[0.3055555555555556,-0.10222222222222223],[0.30666666666666664,-0.10222222222222223],[0.30777777777777776,-0.10222222222222223],[0.3088888888888889,-0.10111111111111111],[0.31,-0.10111111111111111],[0.3111111111111111,-0.10111111111111111],[0.31222222222222223,-0.10111111111111111],[0.31333333333333335,-0.10111111111111111],[0.31444444444444447,-0.10111111111111111],[0.31444444444444447,-0.1],[0.31444444444444447,-0.1],[0.31444444444444447,-0.1]]]",2,"[53,57]",space,5.502,space,1.885,0,1,1,2,1,ahead_right_2.jpg,ahead_right_2_path.jpg,,,,,,,,,,,,,,,,
Image_List_3,,,,,,,,,,,,,,,,44608,2020-11-24_10h34.24.162,analogCatScenes,2020.1.3,MacIntel,60,"[1440,900]",[],0,[],space,1.286,space,2.2,0,2,2,4,1,left_2.jpg,left_2_path.jpg,,,,,,,,,,,,,,,,
Image_List_3,,,,,,,,,,,,,,,,44608,2020-11-24_10h34.24.162,analogCatScenes,2020.1.3,MacIntel,60,"[1440,900]",[],0,[],space,0.557,space,0.632,0,3,3,1,1,ahead_left_2.jpg,ahead_left_2_path.jpg,,,,,,,,,,,,,,,,
Image_List_3,,,,,,,,,,,,,,,,44608,2020-11-24_10h34.24.162,analogCatScenes,2020.1.3,MacIntel,60,"[1440,900]",[],0,[],space,0.604,space,0.9,0,4,4,6,1,right_left_2.jpg,right_left_2_path.jpg,,,,,,,,,,,,,,,,
Image_List_3,,,,,,,,,,,,,,,,44608,2020-11-24_10h34.24.162,analogCatScenes,2020.1.3,MacIntel,60,"[1440,900]",[],0,[],space,0.526,space,0.662,0,5,5,5,1,right_2.jpg,right_2_path.jpg,,,,,,,,,,,,,,,,
Image_List_3,,,,,,,,,,,,,,,,44608,2020-11-24_10h34.24.162,analogCatScenes,2020.1.3,MacIntel,60,"[1440,900]",[],0,[],space,0.45,space,0.352,0,6,6,0,1,ahead_2.jpg,ahead_2_path.jpg,,,,,,,,,,,,,,,,
Image_List_3,,,,,,,,,,,,,,,,44608,2020-11-24_10h34.24.162,analogCatScenes,2020.1.3,MacIntel,60,"[1440,900]","[[[-0.0044444444444444444,-0.2011111111111111],[-0.0044444444444444444,-0.2011111111111111],[-0.0044444444444444444,-0.2011111111111111],[-0.0044444444444444444,-0.2011111111111111],[-0.0044444444444444444,-0.2011111111111111],[0.005555555555555556,-0.2],[0.03111111111111111,-0.19333333333333333],[0.06888888888888889,-0.18],[0.11333333333333333,-0.1622222222222222],[0.15333333333333332,-0.14444444444444443],[0.17333333333333334,-0.1322222222222222],[0.21,-0.11],[0.22555555555555556,-0.1],[0.24555555555555555,-0.08888888888888889],[0.2588888888888889,-0.08222222222222222],[0.2677777777777778,-0.07777777777777778],[0.2722222222222222,-0.07666666666666666],[0.27666666666666667,-0.07555555555555556],[0.2777777777777778,-0.07555555555555556],[0.2788888888888889,-0.07555555555555556],[0.28,-0.07555555555555556],[0.2811111111111111,-0.07555555555555556],[0.2811111111111111,-0.07444444444444444],[0.2822222222222222,-0.07444444444444444],[0.2822222222222222,-0.07444444444444444],[0.2822222222222222,-0.07444444444444444],[0.2822222222222222,-0.07444444444444444],[0.2822222222222222,-0.07444444444444444],[0.2822222222222222,-0.07444444444444444],[0.2822222222222222,-0.07444444444444444],[0.2822222222222222,-0.07444444444444444],[0.2822222222222222,-0.07444444444444444],[0.2822222222222222,-0.07444444444444444],[0.2822222222222222,-0.07444444444444444],[0.2822222222222222,-0.07444444444444444],[0.2822222222222222,-0.07444444444444444],[0.2822222222222222,-0.07444444444444444],[0.2822222222222222,-0.07444444444444444],[0.2822222222222222,-0.07444444444444444],[0.2822222222222222,-0.07444444444444444],[0.2822222222222222,-0.07444444444444444]],[[-0.0033333333333333335,-0.20444444444444446],[-0.0033333333333333335,-0.20444444444444446],[-0.0033333333333333335,-0.20444444444444446],[-0.0033333333333333335,-0.20444444444444446],[-0.0033333333333333335,-0.20444444444444446],[-0.0033333333333333335,-0.20444444444444446],[-0.0033333333333333335,-0.20444444444444446],[-0.0033333333333333335,-0.20444444444444446],[-0.011111111111111112,-0.20333333333333334],[-0.025555555555555557,-0.19666666666666666],[-0.058888888888888886,-0.18222222222222223],[-0.08333333333333333,-0.17222222222222222],[-0.1111111111111111,-0.16],[-0.12555555555555556,-0.15333333333333332],[-0.1511111111111111,-0.14222222222222222],[-0.16333333333333333,-0.13666666666666666],[-0.17555555555555555,-0.1322222222222222],[-0.18555555555555556,-0.1288888888888889],[-0.19444444444444445,-0.12555555555555556],[-0.20222222222222222,-0.12222222222222222],[-0.2111111111111111,-0.11888888888888889],[-0.21666666666666667,-0.11666666666666667],[-0.22111111111111112,-0.11444444444444445],[-0.22555555555555556,-0.11222222222222222],[-0.23,-0.11],[-0.23222222222222222,-0.10888888888888888],[-0.23444444444444446,-0.10666666666666667],[-0.23666666666666666,-0.10555555555555556],[-0.2388888888888889,-0.10444444444444445],[-0.2411111111111111,-0.10444444444444445],[-0.24333333333333335,-0.10333333333333333],[-0.24888888888888888,-0.10222222222222223],[-0.2511111111111111,-0.10111111111111111],[-0.2577777777777778,-0.09888888888888889],[-0.26222222222222225,-0.09555555555555556],[-0.26555555555555554,-0.09222222222222222],[-0.2688888888888889,-0.09111111111111111],[-0.27111111111111114,-0.08777777777777777],[-0.2733333333333333,-0.08555555555555555],[-0.27444444444444444,-0.08555555555555555],[-0.27444444444444444,-0.08555555555555555],[-0.27444444444444444,-0.08555555555555555]],[[0.0011111111111111111,-0.1988888888888889],[0.0011111111111111111,-0.1988888888888889],[0.0011111111111111111,-0.1988888888888889],[0.0011111111111111111,-0.19444444444444445],[0.0011111111111111111,-0.18],[0.0011111111111111111,-0.1622222222222222],[-0.0011111111111111111,-0.12],[-0.0022222222222222222,-0.09222222222222222],[-0.0022222222222222222,-0.07777777777777778],[-0.0022222222222222222,-0.06222222222222222],[-0.0033333333333333335,-0.05],[-0.0044444444444444444,-0.04],[-0.005555555555555556,-0.03222222222222222],[-0.006666666666666667,-0.025555555555555557],[-0.0077777777777777776,-0.01888888888888889],[-0.0077777777777777776,-0.013333333333333334],[-0.008888888888888889,-0.008888888888888889],[-0.01,-0.0033333333333333335],[-0.011111111111111112,-0.0022222222222222222],[-0.011111111111111112,0],[-0.011111111111111112,0],[-0.011111111111111112,0],[-0.011111111111111112,0],[-0.011111111111111112,0],[-0.011111111111111112,0],[-0.011111111111111112,0],[-0.011111111111111112,0],[-0.011111111111111112,0],[-0.011111111111111112,0]]]",3,"[41,42,29]",,,,,,,,,,,,space,2.653,frontLawn3.jpg,space,6.924,0,0,0,53,1,gazebo3.jpg,homeoffice.jpg,homegarage3.jpg,fountain.jpg,,
Image_List_3,,,,,,,,,,,,,,,,44608,2020-11-24_10h34.24.162,analogCatScenes,2020.1.3,MacIntel,60,"[1440,900]","[[[0.0011111111111111111,-0.2],[0.0011111111111111111,-0.2],[0.0011111111111111111,-0.2],[0.0011111111111111111,-0.2],[0.0011111111111111111,-0.2],[0.0011111111111111111,-0.2],[0.0011111111111111111,-0.2],[0.0011111111111111111,-0.2],[0.0011111111111111111,-0.2],[0.0011111111111111111,-0.2],[0.005555555555555556,-0.19666666666666666],[0.013333333333333334,-0.19],[0.02666666666666667,-0.17888888888888888],[0.043333333333333335,-0.16666666666666666],[0.07111111111111111,-0.14222222222222222],[0.09,-0.12666666666666668],[0.1,-0.11666666666666667],[0.1111111111111111,-0.10555555555555556],[0.12,-0.09666666666666666],[0.13,-0.08666666666666667],[0.1388888888888889,-0.08],[0.14777777777777779,-0.07222222222222222],[0.15777777777777777,-0.06444444444444444],[0.16555555555555557,-0.057777777777777775],[0.1688888888888889,-0.05444444444444444],[0.17444444444444446,-0.05],[0.17888888888888888,-0.04555555555555556],[0.18888888888888888,-0.04],[0.19444444444444445,-0.035555555555555556],[0.1988888888888889,-0.03333333333333333],[0.20222222222222222,-0.03111111111111111],[0.20555555555555555,-0.028888888888888888],[0.2088888888888889,-0.027777777777777776],[0.2111111111111111,-0.025555555555555557],[0.21555555555555556,-0.023333333333333334],[0.22,-0.02],[0.22444444444444445,-0.01888888888888889],[0.2288888888888889,-0.015555555555555555],[0.23222222222222222,-0.014444444444444444],[0.23777777777777778,-0.012222222222222223],[0.24,-0.01],[0.24222222222222223,-0.008888888888888889],[0.24444444444444444,-0.0077777777777777776],[0.24666666666666667,-0.006666666666666667],[0.24888888888888888,-0.005555555555555556],[0.2511111111111111,-0.0033333333333333335],[0.2544444444444444,-0.0022222222222222222],[0.25555555555555554,-0.0011111111111111111],[0.2577777777777778,0],[0.2588888888888889,0],[0.26,0.0011111111111111111],[0.2611111111111111,0.0011111111111111111],[0.26222222222222225,0.0011111111111111111],[0.26222222222222225,0.0011111111111111111],[0.26222222222222225,0.0011111111111111111],[0.26222222222222225,0.0011111111111111111],[0.26222222222222225,0.0011111111111111111]],[[-0.0077777777777777776,-0.2088888888888889],[-0.0077777777777777776,-0.2088888888888889],[-0.0077777777777777776,-0.2088888888888889],[-0.012222222222222223,-0.2088888888888889],[-0.024444444444444446,-0.2088888888888889],[-0.042222222222222223,-0.2088888888888889],[-0.06777777777777778,-0.2088888888888889],[-0.09444444444444444,-0.2088888888888889],[-0.12,-0.2088888888888889],[-0.13666666666666666,-0.2088888888888889],[-0.15444444444444444,-0.2088888888888889],[-0.17777777777777778,-0.2088888888888889],[-0.19,-0.2088888888888889],[-0.20333333333333334,-0.2088888888888889],[-0.21555555555555556,-0.2111111111111111],[-0.22666666666666666,-0.21333333333333335],[-0.23555555555555555,-0.21444444444444444],[-0.2411111111111111,-0.21444444444444444],[-0.24666666666666667,-0.21444444444444444],[-0.2511111111111111,-0.21444444444444444],[-0.25555555555555554,-0.21444444444444444],[-0.26,-0.21444444444444444],[-0.2633333333333333,-0.21444444444444444],[-0.2688888888888889,-0.21333333333333335],[-0.27555555555555555,-0.2111111111111111],[-0.2788888888888889,-0.21],[-0.2822222222222222,-0.2088888888888889],[-0.28555555555555556,-0.20777777777777778],[-0.2877777777777778,-0.20666666666666667],[-0.29,-0.20555555555555555],[-0.2922222222222222,-0.20444444444444446],[-0.29444444444444445,-0.20333333333333334],[-0.29555555555555557,-0.20222222222222222],[-0.2966666666666667,-0.20222222222222222],[-0.29777777777777775,-0.2011111111111111],[-0.3,-0.2],[-0.3011111111111111,-0.2],[-0.30444444444444446,-0.1988888888888889],[-0.30666666666666664,-0.19777777777777777],[-0.3088888888888889,-0.19777777777777777],[-0.3111111111111111,-0.19666666666666666],[-0.31222222222222223,-0.19666666666666666],[-0.31444444444444447,-0.19555555555555557],[-0.31444444444444447,-0.19444444444444445],[-0.31555555555555553,-0.19444444444444445],[-0.31555555555555553,-0.19333333333333333],[-0.31555555555555553,-0.19333333333333333],[-0.31555555555555553,-0.19333333333333333]]]",2,"[57,48]",,,,,,,,,,,,,,drymountains.jpg,space,6.406,0,1,1,40,1,drycleaners4.jpg,farm1.jpg,dugout1.jpg,clothingstore3.jpg,,
Image_List_3,,,,,,,,,,,,,,,,44608,2020-11-24_10h34.24.162,analogCatScenes,2020.1.3,MacIntel,60,"[1440,900]","[[[0.0077777777777777776,-0.20444444444444446],[0.0077777777777777776,-0.20444444444444446],[0.0077777777777777776,-0.20444444444444446],[0.0077777777777777776,-0.20444444444444446],[0.0077777777777777776,-0.20444444444444446],[0.0077777777777777776,-0.20444444444444446],[0.0077777777777777776,-0.20444444444444446],[0.0077777777777777776,-0.20444444444444446],[0.0077777777777777776,-0.20444444444444446],[0.0077777777777777776,-0.20444444444444446],[0.0077777777777777776,-0.20444444444444446],[0.006666666666666667,-0.20444444444444446],[0.0011111111111111111,-0.20444444444444446],[-0.006666666666666667,-0.20222222222222222],[-0.02,-0.2],[-0.03222222222222222,-0.19777777777777777],[-0.042222222222222223,-0.19555555555555557],[-0.052222222222222225,-0.19444444444444445],[-0.06111111111111111,-0.19444444444444445],[-0.07,-0.19333333333333333],[-0.07777777777777778,-0.1922222222222222],[-0.08444444444444445,-0.19],[-0.09111111111111111,-0.19],[-0.09666666666666666,-0.18777777777777777],[-0.10111111111111111,-0.18666666666666668],[-0.10666666666666667,-0.18555555555555556],[-0.11,-0.18444444444444444],[-0.11333333333333333,-0.18444444444444444],[-0.11555555555555555,-0.18333333333333332],[-0.11777777777777777,-0.18333333333333332],[-0.12,-0.18333333333333332],[-0.12222222222222222,-0.18333333333333332],[-0.12555555555555556,-0.18333333333333332],[-0.13,-0.18333333333333332],[-0.13666666666666666,-0.18333333333333332],[-0.14333333333333334,-0.18333333333333332],[-0.15222222222222223,-0.18333333333333332],[-0.16111111111111112,-0.18333333333333332],[-0.17777777777777778,-0.18333333333333332],[-0.18777777777777777,-0.18333333333333332],[-0.19666666666666666,-0.18222222222222223],[-0.20555555555555555,-0.18222222222222223],[-0.21333333333333335,-0.1811111111111111],[-0.22111111111111112,-0.1811111111111111],[-0.2288888888888889,-0.1811111111111111],[-0.23444444444444446,-0.1811111111111111],[-0.2411111111111111,-0.1811111111111111],[-0.24666666666666667,-0.1811111111111111],[-0.2544444444444444,-0.1811111111111111],[-0.2577777777777778,-0.1811111111111111],[-0.2633333333333333,-0.1811111111111111],[-0.27,-0.18],[-0.2733333333333333,-0.18],[-0.2777777777777778,-0.17888888888888888],[-0.2811111111111111,-0.17888888888888888],[-0.28444444444444444,-0.17777777777777778],[-0.2866666666666667,-0.17777777777777778],[-0.29,-0.17666666666666667],[-0.29333333333333333,-0.17555555555555555],[-0.2966666666666667,-0.17444444444444446],[-0.3,-0.17444444444444446],[-0.30444444444444446,-0.17333333333333334],[-0.31,-0.17222222222222222],[-0.31444444444444447,-0.1711111111111111],[-0.32,-0.17],[-0.3233333333333333,-0.1688888888888889],[-0.32555555555555554,-0.16777777777777778],[-0.32555555555555554,-0.16777777777777778],[-0.32555555555555554,-0.16666666666666666],[-0.32555555555555554,-0.16666666666666666],[-0.32555555555555554,-0.16666666666666666]],[[0,-0.19666666666666666],[0,-0.19666666666666666],[0,-0.19666666666666666],[0,-0.19666666666666666],[0,-0.19666666666666666],[0,-0.19666666666666666],[0,-0.19666666666666666],[0,-0.19666666666666666],[-0.0044444444444444444,-0.19444444444444445],[-0.013333333333333334,-0.18888888888888888],[-0.025555555555555557,-0.18],[-0.034444444444444444,-0.17444444444444446],[-0.04777777777777778,-0.16444444444444445],[-0.05444444444444444,-0.15888888888888889],[-0.06,-0.15333333333333332],[-0.06444444444444444,-0.14888888888888888],[-0.06888888888888889,-0.14444444444444443],[-0.07333333333333333,-0.1388888888888889],[-0.07666666666666666,-0.13333333333333333],[-0.0811111111111111,-0.1288888888888889],[-0.08333333333333333,-0.12444444444444444],[-0.08555555555555555,-0.12],[-0.08888888888888889,-0.11333333333333333],[-0.09,-0.10888888888888888],[-0.09222222222222222,-0.10222222222222223],[-0.09333333333333334,-0.09777777777777778],[-0.09333333333333334,-0.09333333333333334],[-0.09333333333333334,-0.08777777777777777],[-0.09333333333333334,-0.08333333333333333],[-0.09333333333333334,-0.07666666666666666],[-0.09333333333333334,-0.07222222222222222],[-0.09333333333333334,-0.06555555555555556],[-0.09333333333333334,-0.06],[-0.09333333333333334,-0.052222222222222225],[-0.09333333333333334,-0.04666666666666667],[-0.09333333333333334,-0.03888888888888889],[-0.09222222222222222,-0.028888888888888888],[-0.09111111111111111,-0.023333333333333334],[-0.09,-0.015555555555555555],[-0.09,-0.011111111111111112],[-0.09,-0.005555555555555556],[-0.08888888888888889,-0.0011111111111111111],[-0.08777777777777777,0.0022222222222222222],[-0.08777777777777777,0.005555555555555556],[-0.08666666666666667,0.008888888888888889],[-0.08666666666666667,0.011111111111111112],[-0.08666666666666667,0.012222222222222223],[-0.08666666666666667,0.014444444444444444],[-0.08666666666666667,0.016666666666666666],[-0.08666666666666667,0.01888888888888889],[-0.08555555555555555,0.021111111111111112],[-0.08555555555555555,0.022222222222222223],[-0.08555555555555555,0.024444444444444446],[-0.08444444444444445,0.025555555555555557],[-0.08444444444444445,0.027777777777777776],[-0.08333333333333333,0.028888888888888888],[-0.08333333333333333,0.03],[-0.08222222222222222,0.03111111111111111],[-0.08222222222222222,0.03111111111111111],[-0.0811111111111111,0.03222222222222222],[-0.0811111111111111,0.03222222222222222],[-0.0811111111111111,0.03222222222222222],[-0.0811111111111111,0.03222222222222222],[-0.0811111111111111,0.03222222222222222],[-0.0811111111111111,0.03222222222222222],[-0.0811111111111111,0.03222222222222222],[-0.0811111111111111,0.03222222222222222],[-0.0811111111111111,0.03222222222222222],[-0.0811111111111111,0.03222222222222222],[-0.0811111111111111,0.03222222222222222],[-0.0811111111111111,0.03222222222222222]],[[0.0044444444444444444,-0.1988888888888889],[0.0044444444444444444,-0.1988888888888889],[0.0044444444444444444,-0.1988888888888889],[0.0044444444444444444,-0.1988888888888889],[0.0044444444444444444,-0.1988888888888889],[0.005555555555555556,-0.1988888888888889],[0.015555555555555555,-0.1988888888888889],[0.03111111111111111,-0.1988888888888889],[0.051111111111111114,-0.1988888888888889],[0.07555555555555556,-0.1988888888888889],[0.09111111111111111,-0.19777777777777777],[0.10888888888888888,-0.19666666666666666],[0.12333333333333334,-0.19666666666666666],[0.13666666666666666,-0.19555555555555557],[0.14888888888888888,-0.19444444444444445],[0.16,-0.19333333333333333],[0.17333333333333334,-0.1922222222222222],[0.18333333333333332,-0.19111111111111112],[0.19111111111111112,-0.19],[0.20222222222222222,-0.19],[0.2111111111111111,-0.19],[0.21888888888888888,-0.18888888888888888],[0.2288888888888889,-0.18888888888888888],[0.23555555555555555,-0.18777777777777777],[0.24222222222222223,-0.18777777777777777],[0.2511111111111111,-0.18666666666666668],[0.2544444444444444,-0.18666666666666668],[0.2611111111111111,-0.18555555555555556],[0.26666666666666666,-0.18555555555555556],[0.2722222222222222,-0.18555555555555556],[0.27555555555555555,-0.18555555555555556],[0.2811111111111111,-0.18555555555555556],[0.2822222222222222,-0.18555555555555556],[0.2833333333333333,-0.18555555555555556],[0.28444444444444444,-0.18555555555555556],[0.28555555555555556,-0.18555555555555556],[0.28555555555555556,-0.18444444444444444],[0.28555555555555556,-0.18444444444444444],[0.28555555555555556,-0.18444444444444444]]]",3,"[71,71,39]",,,,,,,,,,,,,,cubicle7.jpg,space,5.915,0,2,2,35,1,deck5.jpg,dock3.jpg,dining_car6.jpg,carmechanic2.jpg,,
Image_List_3,,,,,,,,,,,,,,,,44608,2020-11-24_10h34.24.162,analogCatScenes,2020.1.3,MacIntel,60,"[1440,900]","[[[-0.0011111111111111111,-0.19555555555555557],[-0.0011111111111111111,-0.19555555555555557],[-0.0011111111111111111,-0.19555555555555557],[-0.0011111111111111111,-0.19555555555555557],[-0.0011111111111111111,-0.19555555555555557],[-0.0011111111111111111,-0.19555555555555557],[-0.0011111111111111111,-0.19555555555555557],[-0.0011111111111111111,-0.19555555555555557],[-0.0011111111111111111,-0.19555555555555557],[-0.0011111111111111111,-0.19555555555555557],[-0.0011111111111111111,-0.19555555555555557],[-0.0011111111111111111,-0.19555555555555557],[-0.0011111111111111111,-0.19555555555555557],[-0.0011111111111111111,-0.19555555555555557],[0,-0.19555555555555557],[0.0011111111111111111,-0.19555555555555557],[0.0011111111111111111,-0.19555555555555557],[0.0022222222222222222,-0.19555555555555557],[0.0022222222222222222,-0.19555555555555557],[0.0022222222222222222,-0.19555555555555557],[0.0022222222222222222,-0.19444444444444445],[0.0033333333333333335,-0.19444444444444445],[0.0033333333333333335,-0.19444444444444445],[0.0033333333333333335,-0.19444444444444445],[0.0033333333333333335,-0.19444444444444445],[0.0033333333333333335,-0.19333333333333333],[0.0033333333333333335,-0.19333333333333333],[0.0033333333333333335,-0.19333333333333333],[0.0033333333333333335,-0.19333333333333333],[0.0044444444444444444,-0.19333333333333333],[0.0044444444444444444,-0.19333333333333333],[0.005555555555555556,-0.1922222222222222],[0.01,-0.19],[0.01888888888888889,-0.18444444444444444],[0.028888888888888888,-0.17888888888888888],[0.05,-0.16666666666666666],[0.06222222222222222,-0.16],[0.07444444444444444,-0.15222222222222223],[0.08555555555555555,-0.14666666666666667],[0.09666666666666666,-0.14],[0.1111111111111111,-0.1322222222222222],[0.12222222222222222,-0.12555555555555556],[0.13555555555555557,-0.11777777777777777],[0.15,-0.10888888888888888],[0.15888888888888889,-0.10333333333333333],[0.1688888888888889,-0.09777777777777778],[0.17666666666666667,-0.09222222222222222],[0.18333333333333332,-0.08888888888888889],[0.19111111111111112,-0.08444444444444445],[0.20222222222222222,-0.07888888888888888],[0.21,-0.07555555555555556],[0.21777777777777776,-0.07222222222222222],[0.22333333333333333,-0.06777777777777778],[0.23,-0.06444444444444444],[0.23444444444444446,-0.06111111111111111],[0.24,-0.056666666666666664],[0.24555555555555555,-0.05333333333333334],[0.25,-0.05],[0.25555555555555554,-0.04555555555555556],[0.26,-0.04111111111111111],[0.26222222222222225,-0.03888888888888889],[0.26555555555555554,-0.03666666666666667],[0.27,-0.03333333333333333],[0.2733333333333333,-0.03111111111111111],[0.27666666666666667,-0.028888888888888888],[0.2788888888888889,-0.025555555555555557],[0.2822222222222222,-0.023333333333333334],[0.28444444444444444,-0.022222222222222223],[0.2866666666666667,-0.02],[0.2877777777777778,-0.02],[0.28888888888888886,-0.01888888888888889],[0.29,-0.01888888888888889],[0.2911111111111111,-0.017777777777777778],[0.2922222222222222,-0.017777777777777778],[0.2922222222222222,-0.017777777777777778],[0.2922222222222222,-0.017777777777777778],[0.2922222222222222,-0.017777777777777778],[0.2922222222222222,-0.017777777777777778],[0.2922222222222222,-0.017777777777777778],[0.2922222222222222,-0.017777777777777778],[0.2922222222222222,-0.017777777777777778],[0.2922222222222222,-0.017777777777777778],[0.2922222222222222,-0.017777777777777778],[0.2922222222222222,-0.017777777777777778],[0.2922222222222222,-0.017777777777777778],[0.2922222222222222,-0.017777777777777778],[0.2922222222222222,-0.017777777777777778],[0.2922222222222222,-0.017777777777777778],[0.2922222222222222,-0.017777777777777778],[0.2922222222222222,-0.017777777777777778],[0.2922222222222222,-0.017777777777777778],[0.2922222222222222,-0.017777777777777778],[0.2922222222222222,-0.017777777777777778],[0.2922222222222222,-0.017777777777777778],[0.2922222222222222,-0.017777777777777778],[0.2922222222222222,-0.017777777777777778],[0.2922222222222222,-0.017777777777777778],[0.2922222222222222,-0.017777777777777778],[0.2922222222222222,-0.017777777777777778],[0.2922222222222222,-0.017777777777777778],[0.2922222222222222,-0.017777777777777778],[0.29333333333333333,-0.017777777777777778],[0.29333333333333333,-0.017777777777777778],[0.29333333333333333,-0.017777777777777778],[0.29444444444444445,-0.017777777777777778],[0.29444444444444445,-0.017777777777777778],[0.29555555555555557,-0.017777777777777778],[0.2966666666666667,-0.016666666666666666],[0.29777777777777775,-0.016666666666666666],[0.29777777777777775,-0.016666666666666666],[0.29888888888888887,-0.015555555555555555],[0.3,-0.015555555555555555],[0.3,-0.015555555555555555],[0.3,-0.015555555555555555],[0.3,-0.015555555555555555],[0.3,-0.015555555555555555],[0.3,-0.015555555555555555],[0.3,-0.015555555555555555],[0.3,-0.015555555555555555],[0.3,-0.015555555555555555],[0.3,-0.015555555555555555],[0.3,-0.015555555555555555],[0.29888888888888887,-0.015555555555555555]]]",1,[123],,,,,,,,,,,,,,lockerroom3.jpg,space,3.72,0,3,3,70,1,lockerroom4.jpg,pavilion.jpg,minigolf8.jpg,igloo.jpg,,
Image_List_3,,,,,,,,,,,,,,,,44608,2020-11-24_10h34.24.162,analogCatScenes,2020.1.3,MacIntel,60,"[1440,900]","[[[-0.008888888888888889,-0.19666666666666666],[-0.008888888888888889,-0.19666666666666666],[-0.008888888888888889,-0.19666666666666666],[-0.008888888888888889,-0.19666666666666666],[-0.008888888888888889,-0.19666666666666666],[-0.005555555555555556,-0.19666666666666666],[0.0011111111111111111,-0.19666666666666666],[0.027777777777777776,-0.18888888888888888],[0.05444444444444444,-0.18222222222222223],[0.07555555555555556,-0.17444444444444446],[0.10333333333333333,-0.16555555555555557],[0.12222222222222222,-0.16111111111111112],[0.14222222222222222,-0.15555555555555556],[0.15555555555555556,-0.15222222222222223],[0.16666666666666666,-0.15],[0.17555555555555555,-0.14666666666666667],[0.18555555555555556,-0.14333333333333334],[0.19555555555555557,-0.14],[0.20666666666666667,-0.13555555555555557],[0.21333333333333335,-0.13444444444444445],[0.21777777777777776,-0.1322222222222222],[0.22444444444444445,-0.13],[0.23,-0.1288888888888889],[0.23666666666666666,-0.12666666666666668],[0.2411111111111111,-0.12555555555555556],[0.24888888888888888,-0.12333333333333334],[0.25333333333333335,-0.12222222222222222],[0.2588888888888889,-0.12],[0.2633333333333333,-0.11888888888888889],[0.2688888888888889,-0.11666666666666667],[0.27444444444444444,-0.11444444444444445],[0.2833333333333333,-0.11222222222222222],[0.2877777777777778,-0.1111111111111111],[0.2911111111111111,-0.11],[0.29333333333333333,-0.11],[0.29333333333333333,-0.10888888888888888],[0.29777777777777775,-0.10777777777777778],[0.3,-0.10666666666666667],[0.3,-0.10666666666666667],[0.3,-0.10666666666666667],[0.3,-0.10666666666666667]],[[-0.0044444444444444444,-0.19111111111111112],[-0.0044444444444444444,-0.19111111111111112],[-0.0044444444444444444,-0.19111111111111112],[-0.0044444444444444444,-0.19111111111111112],[-0.0044444444444444444,-0.19111111111111112],[-0.0044444444444444444,-0.19111111111111112],[-0.0044444444444444444,-0.19111111111111112],[-0.008888888888888889,-0.19111111111111112],[-0.02,-0.19111111111111112],[-0.035555555555555556,-0.19],[-0.058888888888888886,-0.18555555555555556],[-0.09666666666666666,-0.17888888888888888],[-0.1288888888888889,-0.17333333333333334],[-0.14777777777777779,-0.17],[-0.16555555555555557,-0.16555555555555557],[-0.17777777777777778,-0.16333333333333333],[-0.1922222222222222,-0.16111111111111112],[-0.20222222222222222,-0.15888888888888889],[-0.21222222222222223,-0.15777777777777777],[-0.22333333333333333,-0.15555555555555556],[-0.23333333333333334,-0.15444444444444444],[-0.24222222222222223,-0.15222222222222223],[-0.24888888888888888,-0.15],[-0.25555555555555554,-0.14777777777777779],[-0.26222222222222225,-0.14555555555555555],[-0.2677777777777778,-0.14333333333333334],[-0.2733333333333333,-0.1411111111111111],[-0.2833333333333333,-0.1388888888888889],[-0.2877777777777778,-0.13777777777777778],[-0.29333333333333333,-0.13666666666666666],[-0.29888888888888887,-0.13444444444444445],[-0.30333333333333334,-0.1322222222222222],[-0.30777777777777776,-0.13111111111111112],[-0.31222222222222223,-0.13],[-0.31555555555555553,-0.1288888888888889],[-0.32,-0.12666666666666668],[-0.3233333333333333,-0.12444444444444444],[-0.32555555555555554,-0.12333333333333334],[-0.3288888888888889,-0.12222222222222222],[-0.3322222222222222,-0.12],[-0.33666666666666667,-0.11666666666666667],[-0.34,-0.11444444444444445],[-0.3422222222222222,-0.11333333333333333],[-0.3433333333333333,-0.11222222222222222],[-0.3433333333333333,-0.11222222222222222],[-0.3433333333333333,-0.11222222222222222],[-0.3433333333333333,-0.11222222222222222]]]",2,"[41,47]",,,,,,,,,,,,,,drymountains3.jpg,space,3.979,0,4,4,41,1,dugout4.jpg,farm3.jpg,fabricstore1.jpg,dentist2.jpg,,
Image_List_3,,,,,,,,,,,,,,,,44608,2020-11-24_10h34.24.162,analogCatScenes,2020.1.3,MacIntel,60,"[1440,900]","[[[0.008888888888888889,-0.19444444444444445],[0.008888888888888889,-0.19444444444444445],[0.008888888888888889,-0.19444444444444445],[0.008888888888888889,-0.19444444444444445],[0.008888888888888889,-0.19444444444444445],[0.008888888888888889,-0.19444444444444445],[0.008888888888888889,-0.19444444444444445],[0.008888888888888889,-0.19444444444444445],[0.008888888888888889,-0.19444444444444445],[0.008888888888888889,-0.19444444444444445],[0.008888888888888889,-0.19444444444444445],[0.008888888888888889,-0.19444444444444445],[0.008888888888888889,-0.19444444444444445],[0.008888888888888889,-0.19444444444444445],[0.014444444444444444,-0.19444444444444445],[0.02666666666666667,-0.1922222222222222],[0.05444444444444444,-0.18777777777777777],[0.07222222222222222,-0.18444444444444444],[0.09333333333333334,-0.1811111111111111],[0.10888888888888888,-0.17777777777777778],[0.12333333333333334,-0.17444444444444446],[0.14,-0.17],[0.15555555555555556,-0.16555555555555557],[0.16666666666666666,-0.1622222222222222],[0.18,-0.15888888888888889],[0.19,-0.15555555555555556],[0.19777777777777777,-0.15444444444444444],[0.20222222222222222,-0.15222222222222223],[0.20777777777777778,-0.15222222222222223],[0.21666666666666667,-0.15],[0.22,-0.14888888888888888],[0.22555555555555556,-0.14777777777777779],[0.2288888888888889,-0.14666666666666667],[0.23222222222222222,-0.14666666666666667],[0.23444444444444446,-0.14555555555555555],[0.23666666666666666,-0.14555555555555555],[0.2388888888888889,-0.14444444444444443],[0.2411111111111111,-0.14444444444444443],[0.24333333333333335,-0.14333333333333334],[0.24666666666666667,-0.14222222222222222],[0.24888888888888888,-0.1411111111111111],[0.25222222222222224,-0.14],[0.25555555555555554,-0.13777777777777778],[0.2588888888888889,-0.13666666666666666],[0.26222222222222225,-0.13555555555555557],[0.26666666666666666,-0.13444444444444445],[0.27111111111111114,-0.13333333333333333],[0.27555555555555555,-0.1322222222222222],[0.28,-0.13111111111111112],[0.2833333333333333,-0.13],[0.2877777777777778,-0.1288888888888889],[0.2922222222222222,-0.12777777777777777],[0.29555555555555557,-0.12666666666666668],[0.29888888888888887,-0.12555555555555556],[0.30333333333333334,-0.12333333333333334],[0.30444444444444446,-0.12222222222222222],[0.3055555555555556,-0.12111111111111111],[0.30666666666666664,-0.12],[0.3088888888888889,-0.12],[0.31,-0.11888888888888889],[0.3111111111111111,-0.11888888888888889],[0.31333333333333335,-0.11777777777777777],[0.31444444444444447,-0.11666666666666667],[0.31555555555555553,-0.11666666666666667],[0.31666666666666665,-0.11666666666666667],[0.3188888888888889,-0.11555555555555555],[0.32,-0.11555555555555555],[0.32,-0.11555555555555555],[0.32,-0.11555555555555555],[0.32,-0.11555555555555555],[0.32,-0.11555555555555555]],[[0.0022222222222222222,-0.20666666666666667],[0.0022222222222222222,-0.20666666666666667],[0.0022222222222222222,-0.20666666666666667],[0.0022222222222222222,-0.20666666666666667],[0.0022222222222222222,-0.20666666666666667],[0.0022222222222222222,-0.20666666666666667],[0.0022222222222222222,-0.20666666666666667],[-0.0011111111111111111,-0.20666666666666667],[-0.0077777777777777776,-0.20333333333333334],[-0.017777777777777778,-0.19777777777777777],[-0.03111111111111111,-0.19111111111111112],[-0.05333333333333334,-0.18],[-0.07444444444444444,-0.1711111111111111],[-0.08555555555555555,-0.16555555555555557],[-0.09777777777777778,-0.15888888888888889],[-0.10555555555555556,-0.15222222222222223],[-0.11444444444444445,-0.14666666666666667],[-0.12333333333333334,-0.14],[-0.13666666666666666,-0.13111111111111112],[-0.14444444444444443,-0.12555555555555556],[-0.15666666666666668,-0.11666666666666667],[-0.1688888888888889,-0.10777777777777778],[-0.17666666666666667,-0.10111111111111111],[-0.18666666666666668,-0.09444444444444444],[-0.19555555555555557,-0.08888888888888889],[-0.20333333333333334,-0.08222222222222222],[-0.21222222222222223,-0.07666666666666666],[-0.22,-0.07111111111111111],[-0.22777777777777777,-0.06666666666666667],[-0.23555555555555555,-0.06222222222222222],[-0.2411111111111111,-0.058888888888888886],[-0.24666666666666667,-0.056666666666666664],[-0.25222222222222224,-0.05444444444444444],[-0.2611111111111111,-0.05],[-0.26555555555555554,-0.04666666666666667],[-0.2677777777777778,-0.043333333333333335],[-0.27111111111111114,-0.04111111111111111],[-0.27444444444444444,-0.03888888888888889],[-0.27666666666666667,-0.03666666666666667],[-0.2788888888888889,-0.035555555555555556],[-0.2811111111111111,-0.034444444444444444],[-0.2822222222222222,-0.03333333333333333],[-0.2833333333333333,-0.03222222222222222],[-0.28555555555555556,-0.03111111111111111],[-0.28555555555555556,-0.03111111111111111],[-0.2877777777777778,-0.03],[-0.2877777777777778,-0.03],[-0.2877777777777778,-0.03],[-0.2877777777777778,-0.03],[-0.2877777777777778,-0.03],[-0.2877777777777778,-0.03]]]",2,"[71,51]",,,,,,,,,,,,,,cave6.jpg,space,4.746,0,5,5,24,1,campsite.jpg,cliff3.jpg,cemetery5.jpg,boardwalk.jpg,,
Image_List_3,,,,,,,,,,,,,,,,44608,2020-11-24_10h34.24.162,analogCatScenes,2020.1.3,MacIntel,60,"[1440,900]","[[[0.0011111111111111111,-0.19777777777777777],[0.0011111111111111111,-0.19777777777777777],[0.0011111111111111111,-0.19777777777777777],[0.0011111111111111111,-0.19777777777777777],[0.0011111111111111111,-0.19777777777777777],[0.0011111111111111111,-0.19777777777777777],[0.0011111111111111111,-0.19777777777777777],[0.0044444444444444444,-0.19777777777777777],[0.011111111111111112,-0.19555555555555557],[0.021111111111111112,-0.19111111111111112],[0.034444444444444444,-0.18444444444444444],[0.044444444444444446,-0.17888888888888888],[0.06,-0.17222222222222222],[0.06666666666666667,-0.16777777777777778],[0.07444444444444444,-0.16444444444444445],[0.0811111111111111,-0.16111111111111112],[0.08666666666666667,-0.15777777777777777],[0.09555555555555556,-0.15222222222222223],[0.10333333333333333,-0.14777777777777779],[0.10888888888888888,-0.14333333333333334],[0.11222222222222222,-0.1411111111111111],[0.11666666666666667,-0.13666666666666666],[0.12111111111111111,-0.13444444444444445],[0.12444444444444444,-0.13],[0.1322222222222222,-0.12333333333333334],[0.13666666666666666,-0.11777777777777777],[0.1388888888888889,-0.11333333333333333],[0.14333333333333334,-0.10666666666666667],[0.14555555555555555,-0.10111111111111111],[0.14777777777777779,-0.09444444444444444],[0.15,-0.08555555555555555],[0.1511111111111111,-0.07666666666666666],[0.15333333333333332,-0.06555555555555556],[0.15333333333333332,-0.06],[0.15444444444444444,-0.052222222222222225],[0.15444444444444444,-0.04777777777777778],[0.15444444444444444,-0.044444444444444446],[0.15444444444444444,-0.03888888888888889],[0.15444444444444444,-0.035555555555555556],[0.15444444444444444,-0.03222222222222222],[0.15333333333333332,-0.027777777777777776],[0.15222222222222223,-0.023333333333333334],[0.1511111111111111,-0.01888888888888889],[0.15,-0.013333333333333334],[0.14777777777777779,-0.0077777777777777776],[0.14666666666666667,-0.0044444444444444444],[0.14444444444444443,0],[0.14444444444444443,0.0011111111111111111],[0.14333333333333334,0.0033333333333333335],[0.14222222222222222,0.0044444444444444444],[0.14222222222222222,0.0044444444444444444],[0.14222222222222222,0.0044444444444444444],[0.14222222222222222,0.0044444444444444444],[0.1411111111111111,0.0044444444444444444],[0.1411111111111111,0.0044444444444444444],[0.1411111111111111,0.005555555555555556],[0.1411111111111111,0.005555555555555556],[0.14,0.006666666666666667],[0.1388888888888889,0.0077777777777777776],[0.1388888888888889,0.008888888888888889],[0.1388888888888889,0.01],[0.13777777777777778,0.01],[0.13777777777777778,0.011111111111111112],[0.13777777777777778,0.011111111111111112],[0.13777777777777778,0.011111111111111112],[0.13777777777777778,0.011111111111111112]],[[0.0077777777777777776,-0.19333333333333333],[0.0077777777777777776,-0.19333333333333333],[0.0077777777777777776,-0.19333333333333333],[0.0077777777777777776,-0.19333333333333333],[0.0077777777777777776,-0.19333333333333333],[0.006666666666666667,-0.19333333333333333],[0,-0.19333333333333333],[-0.022222222222222223,-0.19333333333333333],[-0.03777777777777778,-0.19333333333333333],[-0.056666666666666664,-0.19333333333333333],[-0.07444444444444444,-0.19333333333333333],[-0.08888888888888889,-0.19333333333333333],[-0.10111111111111111,-0.19333333333333333],[-0.11333333333333333,-0.19333333333333333],[-0.12444444444444444,-0.19333333333333333],[-0.13555555555555557,-0.1922222222222222],[-0.14555555555555555,-0.1922222222222222],[-0.15666666666666668,-0.1922222222222222],[-0.17222222222222222,-0.19111111111111112],[-0.18333333333333332,-0.19],[-0.1922222222222222,-0.18888888888888888],[-0.20222222222222222,-0.18777777777777777],[-0.2111111111111111,-0.18555555555555556],[-0.21888888888888888,-0.18333333333333332],[-0.22666666666666666,-0.18],[-0.2311111111111111,-0.17888888888888888],[-0.23777777777777778,-0.17444444444444446],[-0.2411111111111111,-0.1711111111111111],[-0.24444444444444444,-0.17],[-0.2477777777777778,-0.16666666666666666],[-0.2511111111111111,-0.16333333333333333],[-0.25555555555555554,-0.16],[-0.2577777777777778,-0.15666666666666668],[-0.26,-0.15444444444444444],[-0.2633333333333333,-0.15],[-0.2644444444444444,-0.14666666666666667],[-0.26666666666666666,-0.14222222222222222],[-0.2688888888888889,-0.13777777777777778],[-0.27,-0.13333333333333333],[-0.27111111111111114,-0.13],[-0.2722222222222222,-0.12555555555555556],[-0.2733333333333333,-0.12222222222222222],[-0.27444444444444444,-0.11777777777777777],[-0.27555555555555555,-0.11555555555555555],[-0.2788888888888889,-0.1111111111111111],[-0.28,-0.10888888888888888],[-0.2822222222222222,-0.10555555555555556],[-0.2833333333333333,-0.10333333333333333],[-0.28444444444444444,-0.10111111111111111],[-0.28555555555555556,-0.09777777777777778],[-0.2866666666666667,-0.09555555555555556],[-0.2877777777777778,-0.09333333333333334],[-0.28888888888888886,-0.09111111111111111],[-0.29,-0.08888888888888889],[-0.29,-0.08666666666666667],[-0.2911111111111111,-0.08444444444444445],[-0.2922222222222222,-0.08222222222222222],[-0.29333333333333333,-0.07888888888888888],[-0.29333333333333333,-0.07666666666666666],[-0.29444444444444445,-0.07444444444444444],[-0.29444444444444445,-0.07333333333333333],[-0.29555555555555557,-0.07222222222222222],[-0.29555555555555557,-0.07],[-0.2966666666666667,-0.06888888888888889],[-0.2966666666666667,-0.06777777777777778],[-0.2966666666666667,-0.06555555555555556],[-0.29777777777777775,-0.06444444444444444],[-0.29888888888888887,-0.06222222222222222],[-0.29888888888888887,-0.06],[-0.3,-0.058888888888888886],[-0.3,-0.057777777777777775],[-0.3011111111111111,-0.056666666666666664],[-0.3011111111111111,-0.05555555555555555],[-0.3011111111111111,-0.05555555555555555],[-0.3022222222222222,-0.05444444444444444],[-0.3022222222222222,-0.05444444444444444],[-0.30333333333333334,-0.05444444444444444],[-0.30333333333333334,-0.05333333333333334]]]",2,"[66,78]",,,,,,,,,,,,,,musicStore1.jpg,space,4.405,0,6,6,72,1,museum5.jpg,pharmacy4.jpg,museum4.jpg,kindergarten_classroom.jpg,,
Image_List_3,,,,,,,,,,,,,,,,44608,2020-11-24_10h34.24.162,analogCatScenes,2020.1.3,MacIntel,60,"[1440,900]","[[[0.005555555555555556,-0.19555555555555557],[0.005555555555555556,-0.19555555555555557],[0.005555555555555556,-0.19555555555555557],[0.005555555555555556,-0.19555555555555557],[0.005555555555555556,-0.19555555555555557],[0.005555555555555556,-0.19555555555555557],[0.0011111111111111111,-0.18777777777777777],[-0.01,-0.1711111111111111],[-0.025555555555555557,-0.14222222222222222],[-0.042222222222222223,-0.10111111111111111],[-0.057777777777777775,-0.05444444444444444],[-0.06777777777777778,-0.022222222222222223],[-0.08,0.015555555555555555],[-0.09111111111111111,0.04666666666666667],[-0.1,0.06888888888888889],[-0.10555555555555556,0.08222222222222222],[-0.11222222222222222,0.09666666666666666],[-0.11666666666666667,0.11],[-0.12444444444444444,0.12666666666666668],[-0.13,0.13777777777777778],[-0.13444444444444445,0.14777777777777779],[-0.13777777777777778,0.15888888888888889],[-0.14,0.16444444444444445],[-0.1411111111111111,0.1711111111111111],[-0.14222222222222222,0.17444444444444446],[-0.14222222222222222,0.17666666666666667],[-0.14333333333333334,0.17888888888888888],[-0.14333333333333334,0.1811111111111111],[-0.14333333333333334,0.18222222222222223],[-0.14333333333333334,0.18333333333333332],[-0.14333333333333334,0.18444444444444444],[-0.14333333333333334,0.18444444444444444],[-0.14333333333333334,0.18555555555555556],[-0.14333333333333334,0.18555555555555556],[-0.14333333333333334,0.18555555555555556],[-0.14333333333333334,0.18555555555555556],[-0.14333333333333334,0.18555555555555556],[-0.14333333333333334,0.18555555555555556],[-0.14333333333333334,0.18555555555555556],[-0.14333333333333334,0.18555555555555556],[-0.14333333333333334,0.18555555555555556],[-0.14333333333333334,0.18555555555555556]],[[0.012222222222222223,-0.19777777777777777],[0.012222222222222223,-0.19777777777777777],[0.012222222222222223,-0.19777777777777777],[0.012222222222222223,-0.19777777777777777],[0.012222222222222223,-0.19777777777777777],[0.012222222222222223,-0.19777777777777777],[0.012222222222222223,-0.19777777777777777],[0.013333333333333334,-0.19777777777777777],[0.02,-0.19777777777777777],[0.028888888888888888,-0.19777777777777777],[0.04888888888888889,-0.19555555555555557],[0.07,-0.1922222222222222],[0.09444444444444444,-0.18666666666666668],[0.11555555555555555,-0.17888888888888888],[0.13,-0.17333333333333334],[0.14444444444444443,-0.16555555555555557],[0.16111111111111112,-0.15777777777777777],[0.17333333333333334,-0.15333333333333332],[0.18666666666666668,-0.14777777777777779],[0.19555555555555557,-0.14555555555555555],[0.20444444444444446,-0.14333333333333334],[0.21333333333333335,-0.14],[0.22333333333333333,-0.13666666666666666],[0.23222222222222222,-0.13333333333333333],[0.24,-0.13],[0.24666666666666667,-0.12666666666666668],[0.2511111111111111,-0.12444444444444444],[0.2544444444444444,-0.12222222222222222],[0.25666666666666665,-0.12],[0.2611111111111111,-0.11666666666666667],[0.2644444444444444,-0.11333333333333333],[0.2677777777777778,-0.1111111111111111],[0.27,-0.10888888888888888],[0.2722222222222222,-0.10666666666666667],[0.2733333333333333,-0.10555555555555556],[0.27444444444444444,-0.10333333333333333],[0.27666666666666667,-0.10111111111111111],[0.28,-0.09777777777777778],[0.2811111111111111,-0.09555555555555556],[0.2822222222222222,-0.09444444444444444],[0.2833333333333333,-0.09222222222222222],[0.28444444444444444,-0.09222222222222222],[0.28444444444444444,-0.09111111111111111],[0.28555555555555556,-0.09],[0.28555555555555556,-0.08888888888888889],[0.2866666666666667,-0.08777777777777777],[0.2877777777777778,-0.08555555555555555],[0.28888888888888886,-0.08444444444444445],[0.29,-0.08333333333333333],[0.2922222222222222,-0.0811111111111111],[0.29555555555555557,-0.07777777777777778],[0.2966666666666667,-0.07666666666666666],[0.29777777777777775,-0.07444444444444444],[0.29888888888888887,-0.07222222222222222],[0.3,-0.07],[0.3011111111111111,-0.06888888888888889],[0.3011111111111111,-0.06666666666666667],[0.3022222222222222,-0.06444444444444444],[0.30333333333333334,-0.06222222222222222],[0.30333333333333334,-0.06],[0.30444444444444446,-0.058888888888888886],[0.3055555555555556,-0.057777777777777775],[0.3055555555555556,-0.056666666666666664],[0.3055555555555556,-0.056666666666666664],[0.3055555555555556,-0.056666666666666664],[0.3055555555555556,-0.056666666666666664],[0.3055555555555556,-0.056666666666666664],[0.3055555555555556,-0.056666666666666664],[0.3055555555555556,-0.056666666666666664],[0.3055555555555556,-0.056666666666666664],[0.3055555555555556,-0.056666666666666664],[0.3055555555555556,-0.056666666666666664],[0.3055555555555556,-0.056666666666666664]]]",2,"[42,73]",,,,,,,,,,,,,,sidewalk1.jpg,space,5.104,0,7,7,90,1,savanna5.jpg,trainStation1.jpg,stripmall3.jpg,shoestore4.jpg,,
Image_List_3,,,,,,,,,,,,,,,,44608,2020-11-24_10h34.24.162,analogCatScenes,2020.1.3,MacIntel,60,"[1440,900]","[[[-0.0011111111111111111,-0.19444444444444445],[-0.0011111111111111111,-0.19444444444444445],[-0.0011111111111111111,-0.19444444444444445],[-0.0011111111111111111,-0.19444444444444445],[-0.0011111111111111111,-0.19444444444444445],[0.0011111111111111111,-0.19444444444444445],[0.01,-0.19444444444444445],[0.023333333333333334,-0.19333333333333333],[0.03666666666666667,-0.19111111111111112],[0.05444444444444444,-0.18666666666666668],[0.07555555555555556,-0.18222222222222223],[0.1,-0.17555555555555555],[0.12666666666666668,-0.16777777777777778],[0.15222222222222223,-0.16111111111111112],[0.1688888888888889,-0.15666666666666668],[0.18777777777777777,-0.1511111111111111],[0.20222222222222222,-0.14777777777777779],[0.21444444444444444,-0.14444444444444443],[0.22111111111111112,-0.14222222222222222],[0.22666666666666666,-0.1411111111111111],[0.2311111111111111,-0.1388888888888889],[0.23444444444444446,-0.1388888888888889],[0.23777777777777778,-0.13666666666666666],[0.2388888888888889,-0.13666666666666666],[0.24,-0.13666666666666666],[0.24222222222222223,-0.13666666666666666],[0.24222222222222223,-0.13555555555555557],[0.24444444444444444,-0.13555555555555557],[0.24666666666666667,-0.13444444444444445],[0.24888888888888888,-0.13444444444444445],[0.2544444444444444,-0.1322222222222222],[0.2588888888888889,-0.1322222222222222],[0.26222222222222225,-0.13111111111111112],[0.26555555555555554,-0.13],[0.2677777777777778,-0.1288888888888889],[0.27,-0.1288888888888889],[0.27,-0.1288888888888889],[0.27111111111111114,-0.1288888888888889],[0.27111111111111114,-0.1288888888888889],[0.27111111111111114,-0.1288888888888889],[0.27111111111111114,-0.1288888888888889]],[[-0.0077777777777777776,-0.19666666666666666],[-0.0077777777777777776,-0.19666666666666666],[-0.0077777777777777776,-0.19666666666666666],[-0.0077777777777777776,-0.19666666666666666],[-0.0077777777777777776,-0.19666666666666666],[-0.0077777777777777776,-0.19666666666666666],[-0.0077777777777777776,-0.19666666666666666],[-0.0077777777777777776,-0.19666666666666666],[-0.0077777777777777776,-0.19666666666666666],[-0.0077777777777777776,-0.19666666666666666],[-0.013333333333333334,-0.19666666666666666],[-0.034444444444444444,-0.19111111111111112],[-0.052222222222222225,-0.18777777777777777],[-0.07222222222222222,-0.18444444444444444],[-0.10888888888888888,-0.1811111111111111],[-0.1411111111111111,-0.17777777777777778],[-0.15888888888888889,-0.17666666666666667],[-0.17777777777777778,-0.17444444444444446],[-0.19333333333333333,-0.17333333333333334],[-0.20555555555555555,-0.17222222222222222],[-0.21666666666666667,-0.1711111111111111],[-0.22777777777777777,-0.17],[-0.24,-0.1688888888888889],[-0.25222222222222224,-0.16777777777777778],[-0.26,-0.16555555555555557],[-0.26555555555555554,-0.16444444444444445],[-0.27,-0.16333333333333333],[-0.27444444444444444,-0.1622222222222222],[-0.2777777777777778,-0.16111111111111112],[-0.2822222222222222,-0.16],[-0.28555555555555556,-0.15888888888888889],[-0.28888888888888886,-0.15777777777777777],[-0.2911111111111111,-0.15666666666666668],[-0.29555555555555557,-0.15555555555555556],[-0.29888888888888887,-0.15444444444444444],[-0.30444444444444446,-0.15222222222222223],[-0.3088888888888889,-0.1511111111111111],[-0.31333333333333335,-0.15],[-0.31666666666666665,-0.14888888888888888],[-0.31777777777777777,-0.14888888888888888],[-0.3188888888888889,-0.14777777777777779],[-0.3188888888888889,-0.14777777777777779],[-0.3188888888888889,-0.14777777777777779],[-0.3188888888888889,-0.14777777777777779],[-0.3188888888888889,-0.14777777777777779]]]",2,"[41,45]",,,,,,,,,,,,,,drymountains6.jpg,space,3.93,0,8,8,42,1,exerciseequipment3.jpg,firestation3.jpg,farm4.jpg,desertvegetation2.jpg,,
Image_List_3,,,,,,,,,,,,,,,,44608,2020-11-24_10h34.24.162,analogCatScenes,2020.1.3,MacIntel,60,"[1440,900]","[[[-0.0033333333333333335,-0.20555555555555555],[-0.0033333333333333335,-0.20555555555555555],[-0.0033333333333333335,-0.20555555555555555],[-0.0033333333333333335,-0.20555555555555555],[-0.0033333333333333335,-0.20555555555555555],[-0.0044444444444444444,-0.20555555555555555],[-0.01,-0.20555555555555555],[-0.028888888888888888,-0.20555555555555555],[-0.04111111111111111,-0.20555555555555555],[-0.057777777777777775,-0.20555555555555555],[-0.07444444444444444,-0.20555555555555555],[-0.08888888888888889,-0.20555555555555555],[-0.10111111111111111,-0.20555555555555555],[-0.11444444444444445,-0.20555555555555555],[-0.12666666666666668,-0.20555555555555555],[-0.1388888888888889,-0.20555555555555555],[-0.15,-0.20555555555555555],[-0.16111111111111112,-0.20666666666666667],[-0.17,-0.20666666666666667],[-0.18444444444444444,-0.20666666666666667],[-0.1922222222222222,-0.20666666666666667],[-0.19777777777777777,-0.20666666666666667],[-0.20444444444444446,-0.20666666666666667],[-0.21333333333333335,-0.20666666666666667],[-0.21777777777777776,-0.20666666666666667],[-0.22444444444444445,-0.20666666666666667],[-0.23,-0.20666666666666667],[-0.23444444444444446,-0.20666666666666667],[-0.24222222222222223,-0.20666666666666667],[-0.24666666666666667,-0.20666666666666667],[-0.25222222222222224,-0.20666666666666667],[-0.25666666666666665,-0.20666666666666667],[-0.2633333333333333,-0.20666666666666667],[-0.26555555555555554,-0.20666666666666667],[-0.26555555555555554,-0.20666666666666667]],[[0,-0.2],[0,-0.2],[-0.0011111111111111111,-0.2],[0,-0.2],[0.0022222222222222222,-0.2],[0.0077777777777777776,-0.2],[0.011111111111111112,-0.2],[0.017777777777777778,-0.2],[0.028888888888888888,-0.2],[0.035555555555555556,-0.2],[0.044444444444444446,-0.2],[0.05,-0.2],[0.05555555555555555,-0.2],[0.06111111111111111,-0.2],[0.06777777777777778,-0.2],[0.07444444444444444,-0.2],[0.08,-0.2],[0.08666666666666667,-0.2],[0.09111111111111111,-0.2],[0.09666666666666666,-0.2],[0.1,-0.1988888888888889],[0.10333333333333333,-0.19666666666666666],[0.10555555555555556,-0.1922222222222222],[0.10777777777777778,-0.18555555555555556],[0.11,-0.17777777777777778],[0.11222222222222222,-0.16777777777777778],[0.11333333333333333,-0.15888888888888889],[0.11333333333333333,-0.15],[0.11333333333333333,-0.14555555555555555],[0.11333333333333333,-0.13777777777777778],[0.11333333333333333,-0.1322222222222222],[0.11222222222222222,-0.12777777777777777],[0.1111111111111111,-0.12],[0.10888888888888888,-0.11222222222222222],[0.10777777777777778,-0.10888888888888888],[0.10555555555555556,-0.10222222222222223],[0.10555555555555556,-0.09888888888888889],[0.10333333333333333,-0.09444444444444444],[0.10333333333333333,-0.09],[0.10222222222222223,-0.08555555555555555],[0.10222222222222223,-0.08222222222222222],[0.10111111111111111,-0.08],[0.10111111111111111,-0.07777777777777778],[0.10111111111111111,-0.07777777777777778],[0.10111111111111111,-0.07777777777777778],[0.10111111111111111,-0.07777777777777778],[0.10111111111111111,-0.07777777777777778]],[[0.005555555555555556,-0.20777777777777778],[0.005555555555555556,-0.20777777777777778],[0.005555555555555556,-0.20777777777777778],[0.005555555555555556,-0.20777777777777778],[0.005555555555555556,-0.20777777777777778],[0.005555555555555556,-0.20777777777777778],[0.0077777777777777776,-0.20777777777777778],[0.012222222222222223,-0.20777777777777778],[0.02,-0.21],[0.028888888888888888,-0.21444444444444444],[0.04,-0.21888888888888888],[0.05,-0.22333333333333333],[0.06222222222222222,-0.22666666666666666],[0.07444444444444444,-0.23],[0.08555555555555555,-0.23222222222222222],[0.09666666666666666,-0.23333333333333334],[0.10777777777777778,-0.23444444444444446],[0.11888888888888889,-0.23444444444444446],[0.1288888888888889,-0.23444444444444446],[0.1411111111111111,-0.23444444444444446],[0.15,-0.23444444444444446],[0.15888888888888889,-0.23444444444444446],[0.16555555555555557,-0.23444444444444446],[0.17333333333333334,-0.23444444444444446],[0.1811111111111111,-0.23444444444444446],[0.18888888888888888,-0.23444444444444446],[0.19333333333333333,-0.23444444444444446],[0.2,-0.23333333333333334],[0.20555555555555555,-0.23333333333333334],[0.21,-0.23333333333333334],[0.21444444444444444,-0.23222222222222222],[0.22111111111111112,-0.23222222222222222],[0.22444444444444445,-0.2311111111111111],[0.22777777777777777,-0.2311111111111111],[0.23222222222222222,-0.23],[0.23777777777777778,-0.2288888888888889],[0.2411111111111111,-0.22777777777777777],[0.24444444444444444,-0.22666666666666666],[0.24888888888888888,-0.22555555555555556],[0.25333333333333335,-0.22444444444444445],[0.25666666666666665,-0.22444444444444445],[0.2611111111111111,-0.22333333333333333],[0.2644444444444444,-0.2222222222222222],[0.2677777777777778,-0.22111111111111112],[0.2722222222222222,-0.22],[0.27444444444444444,-0.21888888888888888],[0.27666666666666667,-0.21888888888888888],[0.2777777777777778,-0.21777777777777776],[0.28,-0.21777777777777776],[0.2811111111111111,-0.21666666666666667],[0.2833333333333333,-0.21555555555555556],[0.2833333333333333,-0.21555555555555556],[0.2833333333333333,-0.21555555555555556],[0.2833333333333333,-0.21555555555555556],[0.2833333333333333,-0.21555555555555556]]]",3,"[35,47,55]",,,,,,,,,,,,,,flowershop3.jpg,space,10.329,0,9,9,49,1,frontDoor3.jpg,greenhouse5.jpg,greenhouse.jpg,farm2.jpg,,
Image_List_3,,,,,,,,,,,,,,,,44608,2020-11-24_10h34.24.162,analogCatScenes,2020.1.3,MacIntel,60,"[1440,900]","[[[-0.008888888888888889,-0.20222222222222222],[-0.008888888888888889,-0.20222222222222222],[-0.008888888888888889,-0.20222222222222222],[-0.008888888888888889,-0.20222222222222222],[-0.008888888888888889,-0.20222222222222222],[-0.008888888888888889,-0.20222222222222222],[-0.008888888888888889,-0.20222222222222222],[-0.008888888888888889,-0.20222222222222222],[-0.008888888888888889,-0.20222222222222222],[-0.008888888888888889,-0.20222222222222222],[-0.008888888888888889,-0.20222222222222222],[-0.008888888888888889,-0.20222222222222222],[-0.008888888888888889,-0.19666666666666666],[-0.008888888888888889,-0.19],[-0.0077777777777777776,-0.17777777777777778],[-0.006666666666666667,-0.16111111111111112],[-0.005555555555555556,-0.14333333333333334],[-0.0044444444444444444,-0.12555555555555556],[-0.0033333333333333335,-0.1111111111111111],[-0.0022222222222222222,-0.09888888888888889],[-0.0011111111111111111,-0.08777777777777777],[0,-0.07777777777777778],[0.0011111111111111111,-0.06666666666666667],[0.0033333333333333335,-0.04888888888888889],[0.0044444444444444444,-0.042222222222222223],[0.005555555555555556,-0.03222222222222222],[0.005555555555555556,-0.023333333333333334],[0.005555555555555556,-0.016666666666666666],[0.005555555555555556,-0.008888888888888889],[0.005555555555555556,-0.0022222222222222222],[0.005555555555555556,0.0044444444444444444],[0.005555555555555556,0.013333333333333334],[0.005555555555555556,0.017777777777777778],[0.005555555555555556,0.024444444444444446],[0.005555555555555556,0.03333333333333333],[0.005555555555555556,0.04],[0.0044444444444444444,0.04888888888888889],[0.0044444444444444444,0.052222222222222225],[0.0033333333333333335,0.057777777777777775],[0.0022222222222222222,0.06222222222222222],[0.0022222222222222222,0.06777777777777778],[0.0011111111111111111,0.07222222222222222],[0,0.07555555555555556],[-0.0011111111111111111,0.0811111111111111],[-0.0022222222222222222,0.08444444444444445],[-0.0033333333333333335,0.08888888888888889],[-0.0033333333333333335,0.09333333333333334],[-0.0044444444444444444,0.09666666666666666],[-0.005555555555555556,0.10222222222222223],[-0.005555555555555556,0.10444444444444445],[-0.005555555555555556,0.10777777777777778],[-0.006666666666666667,0.11],[-0.006666666666666667,0.11222222222222222],[-0.006666666666666667,0.11333333333333333],[-0.006666666666666667,0.11333333333333333],[-0.006666666666666667,0.11333333333333333],[-0.006666666666666667,0.11333333333333333]]]",1,[57],,,,,,,,,,,,,,dugout2.jpg,space,3.803,0,10,10,43,1,exerciseequipment5.jpg,forestpath10.jpg,foodcourt.jpg,diningroom3.jpg,,
Image_List_3,,,,,,,,,,,,,,,,44608,2020-11-24_10h34.24.162,analogCatScenes,2020.1.3,MacIntel,60,"[1440,900]","[[[0.006666666666666667,-0.19777777777777777],[0.006666666666666667,-0.19777777777777777],[0.006666666666666667,-0.19777777777777777],[0.006666666666666667,-0.19777777777777777],[0.006666666666666667,-0.19777777777777777],[0.006666666666666667,-0.19777777777777777],[0.006666666666666667,-0.19777777777777777],[0.005555555555555556,-0.19777777777777777],[-0.0022222222222222222,-0.19777777777777777],[-0.014444444444444444,-0.19777777777777777],[-0.02666666666666667,-0.19444444444444445],[-0.058888888888888886,-0.18333333333333332],[-0.08222222222222222,-0.17555555555555555],[-0.11,-0.16444444444444445],[-0.13666666666666666,-0.15222222222222223],[-0.1511111111111111,-0.14444444444444443],[-0.16333333333333333,-0.14],[-0.17222222222222222,-0.13555555555555557],[-0.1811111111111111,-0.13444444444444445],[-0.18888888888888888,-0.1322222222222222],[-0.19777777777777777,-0.13],[-0.20666666666666667,-0.12777777777777777],[-0.21555555555555556,-0.12555555555555556],[-0.22333333333333333,-0.12333333333333334],[-0.22777777777777777,-0.12111111111111111],[-0.23333333333333334,-0.12],[-0.2388888888888889,-0.11777777777777777],[-0.24222222222222223,-0.11666666666666667],[-0.24555555555555555,-0.11555555555555555],[-0.24888888888888888,-0.11333333333333333],[-0.2511111111111111,-0.11222222222222222],[-0.2511111111111111,-0.11222222222222222],[-0.2511111111111111,-0.11222222222222222],[-0.2511111111111111,-0.11222222222222222]],[[0.0044444444444444444,-0.19555555555555557],[0.0044444444444444444,-0.19555555555555557],[0.0044444444444444444,-0.19555555555555557],[0.0044444444444444444,-0.19555555555555557],[0.006666666666666667,-0.19555555555555557],[0.022222222222222223,-0.19555555555555557],[0.04555555555555556,-0.19555555555555557],[0.08,-0.18888888888888888],[0.11,-0.18333333333333332],[0.1411111111111111,-0.17555555555555555],[0.16,-0.17222222222222222],[0.18333333333333332,-0.16777777777777778],[0.20777777777777778,-0.16444444444444445],[0.2222222222222222,-0.16333333333333333],[0.23444444444444446,-0.16333333333333333],[0.24222222222222223,-0.1622222222222222],[0.2477777777777778,-0.1622222222222222],[0.25333333333333335,-0.16111111111111112],[0.25666666666666665,-0.16111111111111112],[0.26222222222222225,-0.16],[0.26666666666666666,-0.15888888888888889],[0.27,-0.15777777777777777],[0.27444444444444444,-0.15666666666666668],[0.27666666666666667,-0.15555555555555556],[0.28,-0.15555555555555556],[0.2811111111111111,-0.15444444444444444],[0.2811111111111111,-0.15444444444444444],[0.2822222222222222,-0.15444444444444444],[0.2822222222222222,-0.15444444444444444],[0.2822222222222222,-0.15444444444444444],[0.2822222222222222,-0.15444444444444444]]]",2,"[34,31]",,,,,,,,,,,,,,observatory4.jpeg,space,3.983,0,11,11,74,1,newsstand2.jpg,playground10.jpg,operatingroom1.jpg,lightingstore2.jpg,,
Image_List_3,,,,,,,,,,,,,,,,44608,2020-11-24_10h34.24.162,analogCatScenes,2020.1.3,MacIntel,60,"[1440,900]","[[[0.0044444444444444444,-0.2],[0.0044444444444444444,-0.2],[0.0044444444444444444,-0.2],[0.0044444444444444444,-0.2],[0.0044444444444444444,-0.2],[0.0044444444444444444,-0.2],[0.0044444444444444444,-0.2],[0.0044444444444444444,-0.2],[0.0044444444444444444,-0.2],[0.0044444444444444444,-0.2],[0.0044444444444444444,-0.19666666666666666],[0.0044444444444444444,-0.19],[0.0044444444444444444,-0.1811111111111111],[0.0044444444444444444,-0.1711111111111111],[0.0044444444444444444,-0.16444444444444445],[0.0044444444444444444,-0.15555555555555556],[0.0044444444444444444,-0.1511111111111111],[0.0033333333333333335,-0.14555555555555555],[0.0033333333333333335,-0.13777777777777778],[0.0022222222222222222,-0.13111111111111112],[0.0011111111111111111,-0.12111111111111111],[0,-0.10555555555555556],[0,-0.09888888888888889],[-0.0011111111111111111,-0.08777777777777777],[-0.0011111111111111111,-0.08],[-0.0011111111111111111,-0.07222222222222222],[-0.0011111111111111111,-0.06666666666666667],[-0.0011111111111111111,-0.058888888888888886],[-0.0011111111111111111,-0.05333333333333334],[-0.0011111111111111111,-0.04888888888888889],[-0.0011111111111111111,-0.044444444444444446],[-0.0011111111111111111,-0.04111111111111111],[-0.0011111111111111111,-0.03888888888888889],[-0.0011111111111111111,-0.035555555555555556],[-0.0022222222222222222,-0.034444444444444444],[-0.0022222222222222222,-0.03333333333333333],[-0.0022222222222222222,-0.03222222222222222],[-0.0022222222222222222,-0.03222222222222222],[-0.0022222222222222222,-0.03222222222222222],[-0.0022222222222222222,-0.03111111111111111],[-0.0022222222222222222,-0.03111111111111111]]]",1,[41],,,,,,,,,,,,,,highway4.jpg,space,2.37,0,12,12,59,1,homegarden7.jpg,library_aisle8.jpg,kindergarten_classroom5.jpg,grocerystore3.jpg,,
Image_List_3,,,,,,,,,,,,,,,,44608,2020-11-24_10h34.24.162,analogCatScenes,2020.1.3,MacIntel,60,"[1440,900]","[[[0,-0.2088888888888889],[0,-0.2088888888888889],[0,-0.2088888888888889],[0,-0.2088888888888889],[0.006666666666666667,-0.2088888888888889],[0.017777777777777778,-0.20777777777777778],[0.035555555555555556,-0.20555555555555555],[0.056666666666666664,-0.20333333333333334],[0.07333333333333333,-0.2011111111111111],[0.09,-0.19777777777777777],[0.10444444444444445,-0.19666666666666666],[0.11444444444444445,-0.19555555555555557],[0.12444444444444444,-0.19333333333333333],[0.14333333333333334,-0.18888888888888888],[0.15444444444444444,-0.18666666666666668],[0.1688888888888889,-0.18333333333333332],[0.1811111111111111,-0.1811111111111111],[0.18888888888888888,-0.1811111111111111],[0.19666666666666666,-0.18],[0.20444444444444446,-0.17777777777777778],[0.21,-0.17666666666666667],[0.21777777777777776,-0.17666666666666667],[0.22555555555555556,-0.17555555555555555],[0.23333333333333334,-0.17555555555555555],[0.24,-0.17555555555555555],[0.2477777777777778,-0.17444444444444446],[0.25555555555555554,-0.17333333333333334],[0.2633333333333333,-0.17222222222222222],[0.2733333333333333,-0.17],[0.28444444444444444,-0.16777777777777778],[0.29,-0.16777777777777778],[0.2966666666666667,-0.16666666666666666],[0.3,-0.16555555555555557],[0.30333333333333334,-0.16555555555555557],[0.3055555555555556,-0.16555555555555557],[0.30666666666666664,-0.16555555555555557],[0.31,-0.16444444444444445],[0.31,-0.16444444444444445]],[[-0.005555555555555556,-0.20222222222222222],[-0.005555555555555556,-0.20222222222222222],[-0.005555555555555556,-0.20222222222222222],[-0.0077777777777777776,-0.20222222222222222],[-0.014444444444444444,-0.2],[-0.027777777777777776,-0.19333333333333333],[-0.04666666666666667,-0.18555555555555556],[-0.06777777777777778,-0.17666666666666667],[-0.0811111111111111,-0.1711111111111111],[-0.09888888888888889,-0.16333333333333333],[-0.1111111111111111,-0.15777777777777777],[-0.12555555555555556,-0.1511111111111111],[-0.13111111111111112,-0.15],[-0.1411111111111111,-0.14666666666666667],[-0.14777777777777779,-0.14444444444444443],[-0.15444444444444444,-0.14333333333333334],[-0.16,-0.1411111111111111],[-0.16666666666666666,-0.1388888888888889],[-0.1711111111111111,-0.13666666666666666],[-0.17444444444444446,-0.13444444444444445],[-0.17888888888888888,-0.1322222222222222],[-0.18222222222222223,-0.13111111111111112],[-0.18444444444444444,-0.13],[-0.18888888888888888,-0.1288888888888889],[-0.19111111111111112,-0.12777777777777777],[-0.1922222222222222,-0.12666666666666668],[-0.19444444444444445,-0.12666666666666668],[-0.19555555555555557,-0.12555555555555556],[-0.19666666666666666,-0.12555555555555556],[-0.19777777777777777,-0.12555555555555556],[-0.1988888888888889,-0.12444444444444444],[-0.20222222222222222,-0.12222222222222222],[-0.20333333333333334,-0.12111111111111111],[-0.20333333333333334,-0.12111111111111111],[-0.20333333333333334,-0.12111111111111111]]]",2,"[38,35]",,,,,,,,,,,,,,cliff2.jpg,space,3.658,0,13,13,29,1,cornfield2.jpg,deck2.jpg,constructionSite4.jpg,bridalboutique3.jpg,,
Image_List_3,,,,,,,,,,,,,,,,44608,2020-11-24_10h34.24.162,analogCatScenes,2020.1.3,MacIntel,60,"[1440,900]","[[[0,-0.19111111111111112],[0,-0.19111111111111112],[0,-0.19111111111111112],[0,-0.19111111111111112],[0,-0.19111111111111112],[0,-0.19111111111111112],[0,-0.19111111111111112],[0.0022222222222222222,-0.19111111111111112],[0.0044444444444444444,-0.19111111111111112],[0.006666666666666667,-0.19111111111111112],[0.006666666666666667,-0.19111111111111112],[0.0077777777777777776,-0.19111111111111112],[0.0077777777777777776,-0.19111111111111112],[0.0077777777777777776,-0.19111111111111112],[0.0077777777777777776,-0.19111111111111112],[0.0077777777777777776,-0.19111111111111112],[0.008888888888888889,-0.19111111111111112],[0.011111111111111112,-0.19],[0.014444444444444444,-0.19],[0.024444444444444446,-0.18666666666666668],[0.035555555555555556,-0.18333333333333332],[0.05333333333333334,-0.17777777777777778],[0.07333333333333333,-0.17],[0.08666666666666667,-0.16555555555555557],[0.10222222222222223,-0.16],[0.11555555555555555,-0.15555555555555556],[0.12777777777777777,-0.15222222222222223],[0.14,-0.14888888888888888],[0.15666666666666668,-0.14444444444444443],[0.16555555555555557,-0.14222222222222222],[0.17444444444444446,-0.14],[0.1811111111111111,-0.1388888888888889],[0.18777777777777777,-0.13666666666666666],[0.19555555555555557,-0.13333333333333333],[0.20222222222222222,-0.1288888888888889],[0.2088888888888889,-0.12555555555555556],[0.21555555555555556,-0.12222222222222222],[0.22111111111111112,-0.12],[0.22666666666666666,-0.11777777777777777],[0.23333333333333334,-0.11555555555555555],[0.2411111111111111,-0.11333333333333333],[0.24666666666666667,-0.1111111111111111],[0.25,-0.11],[0.2544444444444444,-0.10666666666666667],[0.26,-0.10444444444444445],[0.26555555555555554,-0.10111111111111111],[0.27111111111111114,-0.09888888888888889],[0.27666666666666667,-0.09666666666666666],[0.2811111111111111,-0.09444444444444444],[0.2866666666666667,-0.09222222222222222],[0.2922222222222222,-0.09111111111111111],[0.2966666666666667,-0.09],[0.3011111111111111,-0.08888888888888889],[0.30777777777777776,-0.08666666666666667],[0.31222222222222223,-0.08555555555555555],[0.31666666666666665,-0.08444444444444445],[0.32,-0.08222222222222222],[0.32666666666666666,-0.08],[0.32666666666666666,-0.08],[0.32666666666666666,-0.08],[0.32666666666666666,-0.08]],[[-0.011111111111111112,-0.1988888888888889],[-0.011111111111111112,-0.1988888888888889],[-0.011111111111111112,-0.1988888888888889],[-0.011111111111111112,-0.1988888888888889],[-0.011111111111111112,-0.1988888888888889],[-0.011111111111111112,-0.19666666666666666],[-0.011111111111111112,-0.1922222222222222],[-0.008888888888888889,-0.18444444444444444],[-0.0044444444444444444,-0.17666666666666667],[0,-0.1688888888888889],[0.006666666666666667,-0.16111111111111112],[0.012222222222222223,-0.15666666666666668],[0.017777777777777778,-0.15222222222222223],[0.023333333333333334,-0.14666666666666667],[0.03222222222222222,-0.1411111111111111],[0.03888888888888889,-0.13666666666666666],[0.04777777777777778,-0.13],[0.05444444444444444,-0.12444444444444444],[0.06,-0.12],[0.06555555555555556,-0.11666666666666667],[0.07,-0.11222222222222222],[0.07555555555555556,-0.10777777777777778],[0.0811111111111111,-0.10333333333333333],[0.08888888888888889,-0.09666666666666666],[0.09444444444444444,-0.09111111111111111],[0.1,-0.08555555555555555],[0.10777777777777778,-0.07888888888888888],[0.11222222222222222,-0.07444444444444444],[0.11777777777777777,-0.07],[0.12222222222222222,-0.06444444444444444],[0.12777777777777777,-0.06],[0.13333333333333333,-0.05555555555555555],[0.13666666666666666,-0.052222222222222225],[0.1411111111111111,-0.05],[0.14333333333333334,-0.04666666666666667],[0.14666666666666667,-0.043333333333333335],[0.14888888888888888,-0.042222222222222223],[0.15333333333333332,-0.03777777777777778],[0.15555555555555556,-0.035555555555555556],[0.15888888888888889,-0.03333333333333333],[0.16111111111111112,-0.03111111111111111],[0.16444444444444445,-0.03],[0.1688888888888889,-0.027777777777777776],[0.17222222222222222,-0.027777777777777776],[0.17222222222222222,-0.027777777777777776],[0.17222222222222222,-0.027777777777777776],[0.17222222222222222,-0.027777777777777776]],[[-0.0011111111111111111,-0.21],[-0.0011111111111111111,-0.21],[-0.0011111111111111111,-0.2088888888888889],[-0.0011111111111111111,-0.20777777777777778],[-0.0011111111111111111,-0.20666666666666667],[-0.0011111111111111111,-0.20222222222222222],[-0.0011111111111111111,-0.19777777777777777],[-0.0011111111111111111,-0.19],[-0.0011111111111111111,-0.17777777777777778],[0.0011111111111111111,-0.16555555555555557],[0.0044444444444444444,-0.15666666666666668],[0.0077777777777777776,-0.14555555555555555],[0.008888888888888889,-0.13777777777777778],[0.012222222222222223,-0.12444444444444444],[0.014444444444444444,-0.11666666666666667],[0.015555555555555555,-0.11],[0.016666666666666666,-0.10333333333333333],[0.01888888888888889,-0.09777777777777778],[0.021111111111111112,-0.09222222222222222],[0.023333333333333334,-0.08666666666666667],[0.024444444444444446,-0.08222222222222222],[0.027777777777777776,-0.07666666666666666],[0.03,-0.07111111111111111],[0.03222222222222222,-0.06666666666666667],[0.035555555555555556,-0.06111111111111111],[0.04111111111111111,-0.05333333333333334],[0.04555555555555556,-0.04777777777777778],[0.04888888888888889,-0.042222222222222223],[0.05333333333333334,-0.03777777777777778],[0.056666666666666664,-0.034444444444444444],[0.06,-0.03222222222222222],[0.06222222222222222,-0.03],[0.06333333333333334,-0.028888888888888888],[0.06444444444444444,-0.027777777777777776],[0.06444444444444444,-0.02666666666666667],[0.06555555555555556,-0.025555555555555557],[0.06666666666666667,-0.023333333333333334],[0.06777777777777778,-0.021111111111111112],[0.06777777777777778,-0.02],[0.06777777777777778,-0.017777777777777778],[0.06777777777777778,-0.015555555555555555],[0.06888888888888889,-0.014444444444444444],[0.07,-0.012222222222222223],[0.07333333333333333,-0.0077777777777777776]],[[-0.012222222222222223,-0.20555555555555555],[-0.012222222222222223,-0.20555555555555555],[-0.012222222222222223,-0.20555555555555555],[-0.012222222222222223,-0.20555555555555555],[-0.012222222222222223,-0.20333333333333334],[-0.012222222222222223,-0.2],[-0.012222222222222223,-0.19444444444444445],[-0.012222222222222223,-0.18777777777777777],[-0.012222222222222223,-0.17888888888888888],[-0.012222222222222223,-0.16666666666666666],[-0.012222222222222223,-0.15555555555555556],[-0.012222222222222223,-0.14444444444444443],[-0.012222222222222223,-0.13444444444444445],[-0.012222222222222223,-0.12333333333333334],[-0.012222222222222223,-0.11333333333333333],[-0.012222222222222223,-0.10555555555555556],[-0.012222222222222223,-0.09333333333333334],[-0.012222222222222223,-0.08777777777777777],[-0.012222222222222223,-0.0811111111111111],[-0.012222222222222223,-0.07333333333333333],[-0.012222222222222223,-0.06888888888888889],[-0.012222222222222223,-0.06111111111111111],[-0.012222222222222223,-0.05555555555555555],[-0.011111111111111112,-0.04666666666666667],[-0.011111111111111112,-0.03888888888888889],[-0.011111111111111112,-0.034444444444444444],[-0.011111111111111112,-0.028888888888888888],[-0.011111111111111112,-0.023333333333333334],[-0.011111111111111112,-0.01888888888888889],[-0.011111111111111112,-0.012222222222222223],[-0.011111111111111112,-0.008888888888888889],[-0.011111111111111112,-0.005555555555555556],[-0.011111111111111112,-0.0033333333333333335],[-0.011111111111111112,0],[-0.011111111111111112,0.0022222222222222222],[-0.011111111111111112,0.0044444444444444444],[-0.011111111111111112,0.006666666666666667],[-0.011111111111111112,0.0077777777777777776],[-0.011111111111111112,0.011111111111111112],[-0.011111111111111112,0.013333333333333334],[-0.011111111111111112,0.016666666666666666],[-0.011111111111111112,0.01888888888888889],[-0.011111111111111112,0.01888888888888889],[-0.011111111111111112,0.01888888888888889],[-0.011111111111111112,0.01888888888888889],[-0.011111111111111112,0.017777777777777778],[-0.011111111111111112,0.015555555555555555],[-0.011111111111111112,0.013333333333333334]]]",4,"[61,47,44,48]",,,,,,,,,,,,,,elevatorOutside1.jpg,space,7.893,0,14,14,44,1,firestation2.jpg,frontFoyer4.jpg,foodcourt6.jpg,dock2.jpg,,
Image_List_3,,,,,,,,,,,,,,,,44608,2020-11-24_10h34.24.162,analogCatScenes,2020.1.3,MacIntel,60,"[1440,900]","[[[0.0011111111111111111,-0.20666666666666667],[0.0011111111111111111,-0.20666666666666667],[0.0011111111111111111,-0.20666666666666667],[0.0011111111111111111,-0.20666666666666667],[0.0011111111111111111,-0.20666666666666667],[0.0011111111111111111,-0.20666666666666667],[0.0011111111111111111,-0.20666666666666667],[0.0011111111111111111,-0.20666666666666667],[0.0011111111111111111,-0.20555555555555555],[0,-0.1988888888888889],[-0.006666666666666667,-0.18333333333333332],[-0.01888888888888889,-0.16111111111111112],[-0.03222222222222222,-0.13777777777777778],[-0.044444444444444446,-0.11555555555555555],[-0.057777777777777775,-0.08888888888888889],[-0.06444444444444444,-0.07666666666666666],[-0.07222222222222222,-0.06222222222222222],[-0.07888888888888888,-0.05],[-0.08444444444444445,-0.03888888888888889],[-0.09111111111111111,-0.027777777777777776],[-0.09666666666666666,-0.01888888888888889],[-0.10222222222222223,-0.01],[-0.10777777777777778,-0.0022222222222222222],[-0.11222222222222222,0.0044444444444444444],[-0.11777777777777777,0.012222222222222223],[-0.12444444444444444,0.02],[-0.13111111111111112,0.03],[-0.13555555555555557,0.03777777777777778],[-0.14,0.04555555555555556],[-0.14444444444444443,0.05333333333333334],[-0.14777777777777779,0.057777777777777775],[-0.15333333333333332,0.06444444444444444],[-0.15666666666666668,0.07],[-0.16,0.07444444444444444],[-0.1622222222222222,0.07777777777777778],[-0.16555555555555557,0.08333333333333333],[-0.16777777777777778,0.08666666666666667],[-0.1711111111111111,0.09111111111111111],[-0.17222222222222222,0.09444444444444444],[-0.17444444444444446,0.09888888888888889],[-0.17666666666666667,0.10222222222222223],[-0.17777777777777778,0.10555555555555556],[-0.17888888888888888,0.10777777777777778],[-0.18,0.1111111111111111],[-0.1811111111111111,0.11333333333333333],[-0.18222222222222223,0.11555555555555555],[-0.18333333333333332,0.11777777777777777],[-0.18444444444444444,0.12],[-0.18666666666666668,0.12333333333333334],[-0.18777777777777777,0.12555555555555556],[-0.18888888888888888,0.12666666666666668],[-0.19,0.1288888888888889],[-0.19111111111111112,0.13111111111111112],[-0.1922222222222222,0.1322222222222222],[-0.1922222222222222,0.13333333333333333],[-0.19333333333333333,0.13444444444444445],[-0.19444444444444445,0.13666666666666666],[-0.19555555555555557,0.1388888888888889],[-0.19666666666666666,0.1411111111111111],[-0.19777777777777777,0.14333333333333334],[-0.1988888888888889,0.14444444444444443],[-0.2,0.14666666666666667],[-0.2,0.14888888888888888],[-0.2011111111111111,0.15],[-0.2011111111111111,0.15222222222222223],[-0.2011111111111111,0.15222222222222223]]]",1,[66],,,,,,,,,,,,,,ruralroad3.jpg,space,2.213,0,15,15,86,1,restaurant14.jpg,stripmall.jpg,sandDunes_desert_outdoor8.jpg,rooftop4.jpg,,
Image_List_3,,,,,,,,,,,,,,,,44608,2020-11-24_10h34.24.162,analogCatScenes,2020.1.3,MacIntel,60,"[1440,900]","[[[0,-0.2011111111111111],[0,-0.2011111111111111],[0,-0.2011111111111111],[0,-0.2011111111111111],[0,-0.2011111111111111],[0,-0.19666666666666666],[0,-0.18888888888888888],[0.0077777777777777776,-0.16444444444444445],[0.015555555555555555,-0.1322222222222222],[0.023333333333333334,-0.10666666666666667],[0.03333333333333333,-0.07444444444444444],[0.04111111111111111,-0.04888888888888889],[0.04555555555555556,-0.03777777777777778],[0.04888888888888889,-0.027777777777777776],[0.05444444444444444,-0.017777777777777778],[0.058888888888888886,-0.0077777777777777776],[0.06777777777777778,0.0044444444444444444],[0.07111111111111111,0.012222222222222223],[0.07666666666666666,0.021111111111111112],[0.08,0.02666666666666667],[0.08333333333333333,0.03333333333333333],[0.08666666666666667,0.04],[0.09111111111111111,0.044444444444444446],[0.09777777777777778,0.051111111111111114],[0.10222222222222223,0.056666666666666664],[0.10555555555555556,0.058888888888888886],[0.10888888888888888,0.06111111111111111],[0.1111111111111111,0.06333333333333334],[0.11333333333333333,0.06444444444444444],[0.11444444444444445,0.06444444444444444],[0.11666666666666667,0.06555555555555556],[0.11777777777777777,0.06666666666666667],[0.11888888888888889,0.06777777777777778],[0.11888888888888889,0.06888888888888889],[0.12,0.06888888888888889],[0.12,0.07],[0.12,0.07],[0.12,0.07],[0.12,0.07],[0.12,0.07]]]",1,[40],,,,,,,,,,,,,,promenadeDeck6.jpg,space,2.07,0,16,16,83,1,readingroom1.jpg,sculpturegarden1.jpg,restaurant8.jpg,readingroom2.jpg,,
Image_List_3,,,,,,,,,,,,,,,,44608,2020-11-24_10h34.24.162,analogCatScenes,2020.1.3,MacIntel,60,"[1440,900]","[[[0.0033333333333333335,-0.20222222222222222],[0.0033333333333333335,-0.20222222222222222],[0.0033333333333333335,-0.20222222222222222],[0.0033333333333333335,-0.20222222222222222],[0.0033333333333333335,-0.20222222222222222],[0.0033333333333333335,-0.20222222222222222],[0,-0.20222222222222222],[-0.008888888888888889,-0.20222222222222222],[-0.01888888888888889,-0.20222222222222222],[-0.034444444444444444,-0.20222222222222222],[-0.04777777777777778,-0.20222222222222222],[-0.06222222222222222,-0.20222222222222222],[-0.07444444444444444,-0.20222222222222222],[-0.08333333333333333,-0.20222222222222222],[-0.09222222222222222,-0.20222222222222222],[-0.09777777777777778,-0.2011111111111111],[-0.10444444444444445,-0.2],[-0.11444444444444445,-0.1988888888888889],[-0.12222222222222222,-0.19777777777777777],[-0.13111111111111112,-0.19666666666666666],[-0.1411111111111111,-0.19555555555555557],[-0.15,-0.19444444444444445],[-0.15888888888888889,-0.1922222222222222],[-0.16666666666666666,-0.19111111111111112],[-0.17444444444444446,-0.18888888888888888],[-0.18222222222222223,-0.18666666666666668],[-0.19,-0.18444444444444444],[-0.19777777777777777,-0.18333333333333332],[-0.20444444444444446,-0.18],[-0.21555555555555556,-0.17666666666666667],[-0.22333333333333333,-0.17555555555555555],[-0.2311111111111111,-0.17333333333333334],[-0.23777777777777778,-0.17222222222222222],[-0.24333333333333335,-0.1711111111111111],[-0.24888888888888888,-0.17],[-0.2577777777777778,-0.16777777777777778],[-0.2633333333333333,-0.16555555555555557],[-0.27,-0.16444444444444445],[-0.2733333333333333,-0.16333333333333333],[-0.2788888888888889,-0.1622222222222222],[-0.2833333333333333,-0.16111111111111112],[-0.2877777777777778,-0.16],[-0.29333333333333333,-0.15777777777777777],[-0.29555555555555557,-0.15666666666666668],[-0.29777777777777775,-0.15555555555555556],[-0.29777777777777775,-0.15444444444444444],[-0.29777777777777775,-0.15444444444444444],[-0.29777777777777775,-0.15444444444444444],[-0.29777777777777775,-0.15444444444444444]],[[0.0033333333333333335,-0.20333333333333334],[0.0033333333333333335,-0.20333333333333334],[0.0033333333333333335,-0.20333333333333334],[0.0033333333333333335,-0.20333333333333334],[0.0033333333333333335,-0.20333333333333334],[0.0033333333333333335,-0.20222222222222222],[0.0011111111111111111,-0.19666666666666666],[-0.0044444444444444444,-0.18777777777777777],[-0.011111111111111112,-0.17777777777777778],[-0.016666666666666666,-0.17],[-0.022222222222222223,-0.16],[-0.027777777777777776,-0.15],[-0.03666666666666667,-0.13777777777777778],[-0.04111111111111111,-0.13111111111111112],[-0.04555555555555556,-0.12555555555555556],[-0.05,-0.12],[-0.05333333333333334,-0.11555555555555555],[-0.05555555555555555,-0.11222222222222222],[-0.058888888888888886,-0.10777777777777778],[-0.06111111111111111,-0.10555555555555556],[-0.06333333333333334,-0.10222222222222223],[-0.06666666666666667,-0.09777777777777778],[-0.06888888888888889,-0.09444444444444444],[-0.07111111111111111,-0.09111111111111111],[-0.07444444444444444,-0.08555555555555555],[-0.07555555555555556,-0.08333333333333333],[-0.07666666666666666,-0.0811111111111111],[-0.07777777777777778,-0.08],[-0.07777777777777778,-0.07888888888888888],[-0.07888888888888888,-0.07888888888888888],[-0.07888888888888888,-0.07888888888888888],[-0.07888888888888888,-0.07888888888888888],[-0.07888888888888888,-0.07888888888888888],[-0.07888888888888888,-0.07888888888888888]],[[0.0011111111111111111,-0.19666666666666666],[0.0011111111111111111,-0.19666666666666666],[0.0011111111111111111,-0.19666666666666666],[0.0011111111111111111,-0.19666666666666666],[0.0011111111111111111,-0.19666666666666666],[0.005555555555555556,-0.19666666666666666],[0.023333333333333334,-0.19666666666666666],[0.042222222222222223,-0.19444444444444445],[0.07111111111111111,-0.18888888888888888],[0.10222222222222223,-0.18222222222222223],[0.12222222222222222,-0.17777777777777778],[0.14222222222222222,-0.17333333333333334],[0.16333333333333333,-0.17],[0.17333333333333334,-0.1688888888888889],[0.18333333333333332,-0.16777777777777778],[0.19333333333333333,-0.16666666666666666],[0.1988888888888889,-0.16555555555555557],[0.20555555555555555,-0.16555555555555557],[0.21,-0.16444444444444445],[0.21444444444444444,-0.16444444444444445],[0.21777777777777776,-0.16444444444444445],[0.22,-0.16444444444444445],[0.22333333333333333,-0.16333333333333333],[0.22555555555555556,-0.1622222222222222],[0.22777777777777777,-0.1622222222222222],[0.2288888888888889,-0.16111111111111112],[0.23,-0.16],[0.23,-0.15777777777777777],[0.23,-0.15777777777777777]]]",3,"[49,34,29]",,,,,,,,,,,,,,gazebo5.jpg,space,4.867,0,17,17,55,1,greenmountains.jpg,hotelRoom3.jpg,hotelRoom7.jpg,frontLawn2.jpg,,
