image_list,key_resp_intructions.keys,key_resp_intructions.rt,key_resp_intructions_3.keys,key_resp_intructions_3.rt,PracticeComplete_2.keys,PracticeComplete_2.rt,PracticeComplete_3.keys,PracticeComplete_3.rt,demo_trials.thisRepN,demo_trials.thisTrialN,demo_trials.thisN,demo_trials.thisIndex,demo_trials.ran,demo_images,path_images,participant,date,expName,psychopyVersion,OS,frameRate,windowSize,drawing,numDrawings,drawingSizes,practice_complete.keys,practice_complete.rt,PracticeComplete.keys,PracticeComplete.rt,practice_trials.thisRepN,practice_trials.thisTrialN,practice_trials.thisN,practice_trials.thisIndex,practice_trials.ran,practice_images,feedback_images,key_resp_intructions_2.keys,key_resp_intructions_2.rt,Image_List_4,trial_complete.keys,trial_complete.rt,trials.thisRepN,trials.thisTrialN,trials.thisN,trials.thisIndex,trials.ran,Image_List_1,Image_List_2,Image_List_3,Image_List_5,key_resp.keys,key_resp.rt
Image_List_4,space,18.321995,space,4.550385,space,5.090125,space,1.75707,0,0,0,2,1,ahead_right.jpg,ahead_right_path.jpg,44601,2020-11-23_14h06.32.598,analogCatScenes,2020.1.3,MacIntel,60,,,,,,,,,,,,,,,,,,,,,,,,,,,,,,,
Image_List_4,,,,,space,1.561675,space,3.698415,0,1,1,5,1,right.jpg,right_path.jpg,44601,2020-11-23_14h06.32.598,analogCatScenes,2020.1.3,MacIntel,60,,,,,,,,,,,,,,,,,,,,,,,,,,,,,,,
Image_List_4,,,,,space,0.84457,space,1.346515,0,2,2,4,1,left.jpg,left_path.jpg,44601,2020-11-23_14h06.32.598,analogCatScenes,2020.1.3,MacIntel,60,,,,,,,,,,,,,,,,,,,,,,,,,,,,,,,
Image_List_4,,,,,space,1.129395,space,1.36563,0,3,3,1,1,ahead_left.jpg,ahead_left_path.jpg,44601,2020-11-23_14h06.32.598,analogCatScenes,2020.1.3,MacIntel,60,,,,,,,,,,,,,,,,,,,,,,,,,,,,,,,
Image_List_4,,,,,space,1.473225,space,1.003995,0,4,4,3,1,ahead_right_left.jpg,ahead_right_left_path.jpg,44601,2020-11-23_14h06.32.598,analogCatScenes,2020.1.3,MacIntel,60,,,,,,,,,,,,,,,,,,,,,,,,,,,,,,,
Image_List_4,,,,,space,0.780035,space,0.90158,0,5,5,6,1,right_left.jpg,right_left_path.jpg,44601,2020-11-23_14h06.32.598,analogCatScenes,2020.1.3,MacIntel,60,,,,,,,,,,,,,,,,,,,,,,,,,,,,,,,
Image_List_4,,,,,space,0.99096,space,0.679255,0,6,6,0,1,ahead.jpg,ahead_path.jpg,44601,2020-11-23_14h06.32.598,analogCatScenes,2020.1.3,MacIntel,60,,,,,,,,,,,,,,,,,,,,,,,,,,,,,,,
Image_List_4,,,,,,,,,,,,,,,,44601,2020-11-23_14h06.32.598,analogCatScenes,2020.1.3,MacIntel,60,"[1440,900]",[],0,[],space,16.10816,space,1.67346,0,0,0,0,1,ahead_2.jpg,ahead_2_path.jpg,,,,,,,,,,,,,,,,
Image_List_4,,,,,,,,,,,,,,,,44601,2020-11-23_14h06.32.598,analogCatScenes,2020.1.3,MacIntel,60,"[1440,900]",[],0,[],space,2.044475,space,1.37987,0,1,1,1,1,ahead_left_2.jpg,ahead_left_2_path.jpg,,,,,,,,,,,,,,,,
Image_List_4,,,,,,,,,,,,,,,,44601,2020-11-23_14h06.32.598,analogCatScenes,2020.1.3,MacIntel,60,"[1440,900]",[],0,[],space,3.124795,space,1.706485,0,2,2,5,1,right_2.jpg,right_2_path.jpg,,,,,,,,,,,,,,,,
Image_List_4,,,,,,,,,,,,,,,,44601,2020-11-23_14h06.32.598,analogCatScenes,2020.1.3,MacIntel,60,"[1440,900]",[],0,[],space,1.462565,space,2.221645,0,3,3,3,1,ahead_right_left_2.jpg,ahead_right_left_2_path.jpg,,,,,,,,,,,,,,,,
Image_List_4,,,,,,,,,,,,,,,,44601,2020-11-23_14h06.32.598,analogCatScenes,2020.1.3,MacIntel,60,"[1440,900]","[[[-0.0018793402777777777,-0.2084418402777778],[-0.0018793402777777777,-0.2084418402777778],[-0.0018793402777777777,-0.2084418402777778],[-0.0018793402777777777,-0.2084418402777778],[-0.0018793402777777777,-0.2084418402777778],[-0.0018793402777777777,-0.2084418402777778],[-0.0018793402777777777,-0.2084418402777778],[-0.0018793402777777777,-0.2084418402777778],[-0.0018793402777777777,-0.2084418402777778],[-0.0018793402777777777,-0.2084418402777778],[-0.0018793402777777777,-0.2084418402777778],[-0.0018793402777777777,-0.2084418402777778],[-0.0018793402777777777,-0.2084418402777778],[-0.0018793402777777777,-0.20607638888888888],[-0.0012196180555555556,-0.19682291666666665],[0.00016927083333333334,-0.19125434027777777],[0.00796875,-0.17017361111111112],[0.011271701388888888,-0.16121527777777778],[0.014435763888888889,-0.15302517361111112],[0.01724826388888889,-0.14673611111111112],[0.019388020833333332,-0.14136284722222223],[0.021961805555555554,-0.13674045138888888],[0.0240625,-0.1321050347222222],[0.026106770833333334,-0.1274609375],[0.02881076388888889,-0.12203559027777777],[0.03169270833333333,-0.11571180555555556],[0.03511284722222222,-0.10940104166666667],[0.037994791666666666,-0.10307725694444445],[0.04123263888888889,-0.09766927083333334],[0.043997395833333335,-0.09212673611111111],[0.04670138888888889,-0.08670138888888888],[0.048502604166666664,-0.08350694444444444],[0.049405381944444444,-0.08030381944444444],[0.05054253472222222,-0.07832465277777778],[0.050902777777777776,-0.076875],[0.051323784722222224,-0.07489149305555555],[0.052157118055555556,-0.07236979166666667],[0.05354166666666667,-0.06723524305555556],[0.05444444444444444,-0.06403211805555556],[0.055334201388888886,-0.06086805555555556],[0.0562890625,-0.057039930555555556],[0.05887586805555556,-0.05293836805555555],[0.06194444444444445,-0.04931857638888889],[0.06483506944444445,-0.04641927083333333],[0.06753038194444444,-0.044140625],[0.07024305555555556,-0.04184461805555555],[0.07295572916666666,-0.03954861111111111],[0.0754904513888889,-0.037855902777777777],[0.07802517361111111,-0.03658420138888889],[0.08001736111111112,-0.03500868055555555],[0.08200954861111111,-0.033854166666666664],[0.08345920138888889,-0.033489583333333336],[0.08406684027777778,-0.032873263888888886],[0.08437065972222223,-0.032873263888888886],[0.08437065972222223,-0.032873263888888886],[0.08437065972222223,-0.032873263888888886],[0.08437065972222223,-0.032873263888888886],[0.08437065972222223,-0.032873263888888886],[0.08437065972222223,-0.032873263888888886],[0.08437065972222223,-0.032873263888888886],[0.08437065972222223,-0.032873263888888886],[0.08437065972222223,-0.032873263888888886],[0.08437065972222223,-0.032873263888888886],[0.08437065972222223,-0.032873263888888886],[0.08437065972222223,-0.032873263888888886],[0.08437065972222223,-0.032873263888888886],[0.08437065972222223,-0.032873263888888886],[0.08437065972222223,-0.032873263888888886],[0.08437065972222223,-0.032873263888888886],[0.08437065972222223,-0.032873263888888886],[0.08412326388888888,-0.032873263888888886],[0.08412326388888888,-0.032873263888888886],[0.08412326388888888,-0.032873263888888886],[0.08412326388888888,-0.032873263888888886],[0.08412326388888888,-0.032873263888888886],[0.08412326388888888,-0.032873263888888886],[0.08412326388888888,-0.032873263888888886],[0.08412326388888888,-0.032873263888888886],[0.08412326388888888,-0.032873263888888886],[0.08412326388888888,-0.032873263888888886],[0.08412326388888888,-0.032873263888888886],[0.08412326388888888,-0.032873263888888886],[0.08412326388888888,-0.032873263888888886],[0.08412326388888888,-0.032873263888888886],[0.08412326388888888,-0.032873263888888886],[0.08412326388888888,-0.032873263888888886],[0.08412326388888888,-0.032873263888888886],[0.08412326388888888,-0.032873263888888886],[0.08412326388888888,-0.032873263888888886],[0.08412326388888888,-0.032873263888888886],[0.08362413194444444,-0.032873263888888886],[0.08362413194444444,-0.032873263888888886],[0.08362413194444444,-0.032873263888888886],[0.08362413194444444,-0.032873263888888886],[0.08362413194444444,-0.032873263888888886],[0.08362413194444444,-0.032873263888888886],[0.08362413194444444,-0.032873263888888886],[0.08362413194444444,-0.032873263888888886],[0.08362413194444444,-0.032873263888888886],[0.08362413194444444,-0.032873263888888886],[0.08362413194444444,-0.032873263888888886],[0.08362413194444444,-0.032873263888888886],[0.08362413194444444,-0.032873263888888886],[0.08362413194444444,-0.032873263888888886],[0.08362413194444444,-0.032873263888888886],[0.08362413194444444,-0.032873263888888886],[0.08362413194444444,-0.032873263888888886],[0.08362413194444444,-0.032873263888888886],[0.08362413194444444,-0.032873263888888886],[0.08362413194444444,-0.032873263888888886],[0.08362413194444444,-0.032873263888888886],[0.08362413194444444,-0.032873263888888886],[0.08362413194444444,-0.032873263888888886],[0.08362413194444444,-0.032873263888888886],[0.08362413194444444,-0.032873263888888886],[0.08362413194444444,-0.032873263888888886]],[[0.0032335069444444442,-0.1959201388888889],[0.0032335069444444442,-0.1959201388888889],[0.0032335069444444442,-0.1959201388888889],[0.0032335069444444442,-0.1959201388888889],[0.0032335069444444442,-0.1959201388888889],[0.0032335069444444442,-0.1959201388888889],[0.0032335069444444442,-0.1959201388888889],[0.0032335069444444442,-0.1959201388888889],[0.0032335069444444442,-0.1959201388888889],[0.0032335069444444442,-0.1959201388888889],[0.0032335069444444442,-0.1959201388888889],[0.0032335069444444442,-0.1959201388888889],[0.0032335069444444442,-0.1954253472222222],[-0.001032986111111111,-0.18577690972222222],[-0.00920138888888889,-0.16680121527777778],[-0.020130208333333333,-0.143984375],[-0.034019097222222225,-0.11346788194444445],[-0.04813368055555556,-0.08523871527777778],[-0.06297309027777778,-0.053276909722222224],[-0.07838975694444444,-0.01773871527777778],[-0.08800347222222223,0.0033420138888888887],[-0.09791232638888889,0.027178819444444443],[-0.10722222222222222,0.046753472222222224],[-0.11394965277777777,0.06356770833333333],[-0.12128038194444445,0.07815972222222223],[-0.12969184027777778,0.09328993055555555],[-0.135859375,0.10715711805555556],[-0.1418576388888889,0.11993055555555555],[-0.14498263888888888,0.1276171875],[-0.1489279513888889,0.13694010416666666],[-0.151875,0.14402777777777778],[-0.15378038194444443,0.1478342013888889],[-0.1550998263888889,0.151015625],[-0.15582465277777777,0.1524609375],[-0.1561328125,0.15338541666666666],[-0.15644097222222222,0.1536892361111111],[-0.15644097222222222,0.1536892361111111],[-0.15644097222222222,0.1536892361111111],[-0.1566970486111111,0.1536892361111111],[-0.15697482638888888,0.1536892361111111],[-0.15759114583333333,0.1536892361111111],[-0.15820746527777776,0.1536892361111111]]]",2,"[116,42]",space,7.047935,space,1.448795,0,4,4,6,1,right_left_2.jpg,right_left_2_path.jpg,,,,,,,,,,,,,,,,
Image_List_4,,,,,,,,,,,,,,,,44601,2020-11-23_14h06.32.598,analogCatScenes,2020.1.3,MacIntel,60,"[1440,900]","[[[0.0034505208333333332,-0.2095876736111111],[0.0034505208333333332,-0.2095876736111111],[0.0034505208333333332,-0.2095876736111111],[0.0034505208333333332,-0.2095876736111111],[0.0034505208333333332,-0.2095876736111111],[0.0034505208333333332,-0.2095876736111111],[0.0034505208333333332,-0.2095876736111111],[0.0034505208333333332,-0.2095876736111111],[0.0034505208333333332,-0.2095876736111111],[0.0034505208333333332,-0.2095876736111111],[0.0034505208333333332,-0.2095876736111111],[0.0034505208333333332,-0.20829427083333332],[0.0034505208333333332,-0.1966623263888889],[0.00140625,-0.17348958333333334],[-0.0009027777777777777,-0.13769965277777776],[-0.004210069444444444,-0.10856770833333333],[-0.007751736111111111,-0.07230902777777778],[-0.009978298611111111,-0.040052083333333335],[-0.011119791666666667,-0.007795138888888889],[-0.01310763888888889,0.017000868055555556],[-0.013997395833333334,0.030355902777777777],[-0.014778645833333333,0.04433159722222222],[-0.015503472222222222,0.05357638888888889],[-0.016106770833333332,0.0591015625],[-0.01657986111111111,0.06292534722222222],[-0.01657986111111111,0.06490885416666667],[-0.017196180555555555,0.06624131944444445],[-0.017196180555555555,0.06654947916666666],[-0.017504340277777777,0.06682725694444444],[-0.017504340277777777,0.06682725694444444],[-0.01776909722222222,0.06682725694444444],[-0.018046875,0.06682725694444444],[-0.018324652777777777,0.06682725694444444],[-0.018940972222222224,0.06682725694444444],[-0.01997829861111111,0.06682725694444444]],[[0.004314236111111111,-0.19930121527777778],[0.004314236111111111,-0.19930121527777778],[0.004314236111111111,-0.19930121527777778],[0.004314236111111111,-0.19930121527777778],[0.004314236111111111,-0.19930121527777778],[0.004314236111111111,-0.19930121527777778],[0.004314236111111111,-0.19930121527777778],[0.004314236111111111,-0.19930121527777778],[0.004314236111111111,-0.19930121527777778],[0.004314236111111111,-0.19930121527777778],[0.004314236111111111,-0.19930121527777778],[0.004314236111111111,-0.19930121527777778],[0.007486979166666667,-0.19930121527777778],[0.016822916666666667,-0.19930121527777778],[0.03822916666666667,-0.1974392361111111],[0.0648828125,-0.1911892361111111],[0.09327690972222222,-0.1827777777777778],[0.11227864583333333,-0.17623697916666667],[0.15442274305555556,-0.16391059027777777],[0.17776909722222223,-0.15711805555555555],[0.2025347222222222,-0.1491970486111111],[0.2222092013888889,-0.1438237847222222],[0.23901475694444443,-0.13877604166666666],[0.24868055555555554,-0.1353732638888889],[0.25897569444444446,-0.13190972222222222],[0.2660720486111111,-0.12953559027777778],[0.2707074652777778,-0.12796440972222223],[0.2739453125,-0.12670572916666667],[0.275390625,-0.1259765625],[0.2759982638888889,-0.12566840277777777],[0.27630208333333334,-0.12566840277777777],[0.27630208333333334,-0.12539930555555556],[0.27630208333333334,-0.1247829861111111],[0.27413194444444444,-0.12261284722222222]]]",2,"[35,34]",space,4.75939,space,0.768355,0,5,5,2,1,ahead_right_2.jpg,ahead_right_2_path.jpg,,,,,,,,,,,,,,,,
Image_List_4,,,,,,,,,,,,,,,,44601,2020-11-23_14h06.32.598,analogCatScenes,2020.1.3,MacIntel,60,"[1440,900]","[[[0.005881076388888889,-0.19846354166666666],[0.005881076388888889,-0.19846354166666666],[0.005881076388888889,-0.19846354166666666],[0.005881076388888889,-0.19846354166666666],[0.005881076388888889,-0.19846354166666666],[0.005881076388888889,-0.19846354166666666],[0.005881076388888889,-0.19846354166666666],[0.005881076388888889,-0.19846354166666666],[0.005881076388888889,-0.19846354166666666],[0.005881076388888889,-0.19846354166666666],[0.005881076388888889,-0.19846354166666666],[0.005881076388888889,-0.19796875],[-0.00033420138888888887,-0.18901041666666665],[-0.007756076388888889,-0.17930989583333334],[-0.022447916666666668,-0.1616796875],[-0.04331163194444444,-0.1365017361111111],[-0.05926215277777778,-0.11450520833333333],[-0.07913194444444445,-0.08797309027777778],[-0.11294704861111111,-0.03861979166666667],[-0.1266970486111111,-0.018914930555555556],[-0.14610243055555555,0.009622395833333333],[-0.16798177083333332,0.04376302083333333],[-0.18167534722222223,0.06430121527777778],[-0.19747395833333334,0.08952256944444445],[-0.21319878472222223,0.11361545138888889],[-0.2215190972222222,0.12798177083333334],[-0.22903211805555557,0.1392751736111111],[-0.2330078125,0.14505642361111112],[-0.2346875,0.14768663194444445],[-0.23541666666666666,0.14872395833333332],[-0.2357204861111111,0.14872395833333332],[-0.2357204861111111,0.14872395833333332],[-0.2357204861111111,0.14872395833333332]]]",1,[33],space,2.626195,space,0.86121,0,6,6,4,1,left_2.jpg,left_2_path.jpg,,,,,,,,,,,,,,,,
Image_List_4,,,,,,,,,,,,,,,,44601,2020-11-23_14h06.32.598,analogCatScenes,2020.1.3,MacIntel,60,"[1440,900]","[[[0.0036805555555555554,-0.2001388888888889],[0.0036805555555555554,-0.2001388888888889],[0.0036805555555555554,-0.2001388888888889],[0.0036805555555555554,-0.2001388888888889],[0.0036805555555555554,-0.2001388888888889],[0.0036805555555555554,-0.2001388888888889],[0.0036805555555555554,-0.2001388888888889],[0.0036805555555555554,-0.2001388888888889],[0.0036805555555555554,-0.2001388888888889],[0.0036805555555555554,-0.2001388888888889],[0.0036805555555555554,-0.2001388888888889],[0.0036805555555555554,-0.2001388888888889],[0.0036805555555555554,-0.2001388888888889],[0.0036805555555555554,-0.2001388888888889],[0.0036805555555555554,-0.2001388888888889],[0.0036805555555555554,-0.2001388888888889],[0.0036805555555555554,-0.2001388888888889],[0.0036805555555555554,-0.2001388888888889],[0.0036805555555555554,-0.1993359375],[0.0036805555555555554,-0.19872395833333334],[0.0036805555555555554,-0.19769097222222223],[0.0036805555555555554,-0.19741319444444444],[0.0036805555555555554,-0.196796875],[0.0036805555555555554,-0.1962109375],[0.0036805555555555554,-0.19559895833333332],[0.0036805555555555554,-0.19529079861111112],[0.0036805555555555554,-0.1947048611111111],[0.0036805555555555554,-0.19442708333333333],[0.0036805555555555554,-0.19381076388888888],[0.0036805555555555554,-0.19319444444444445],[0.0036805555555555554,-0.19258246527777778],[0.0036805555555555554,-0.19112413194444444],[0.0041015625,-0.18858072916666666],[0.005004340277777778,-0.18537760416666665],[0.0060112847222222225,-0.18081597222222223],[0.006853298611111111,-0.17827256944444445],[0.007634548611111111,-0.17627604166666666],[0.007994791666666667,-0.1748220486111111],[0.007994791666666667,-0.17420572916666666],[0.007994791666666667,-0.17317708333333334],[0.008949652777777779,-0.16934461805555556],[0.01,-0.16365885416666667],[0.011076388888888889,-0.15815104166666666],[0.012686631944444445,-0.1500390625],[0.013758680555555555,-0.1446484375],[0.014956597222222222,-0.1374262152777778],[0.016197916666666666,-0.12930121527777777],[0.018333333333333333,-0.1178689236111111],[0.019592013888888888,-0.10938802083333334],[0.020846354166666668,-0.10118055555555555],[0.021922743055555555,-0.09575520833333333],[0.023181423611111113,-0.08727430555555556],[0.024440104166666667,-0.07903211805555556],[0.025638020833333334,-0.07168836805555556],[0.02689670138888889,-0.06344618055555555],[0.028033854166666667,-0.05712239583333333],[0.029283854166666668,-0.04893229166666667],[0.030538194444444444,-0.04071180555555556],[0.03161892361111111,-0.035169270833333335],[0.03221788194444444,-0.027947048611111112],[0.03275607638888889,-0.02330295138888889],[0.033294270833333334,-0.018658854166666666],[0.033828125,-0.014036458333333333],[0.034366319444444446,-0.008611111111111111],[0.035386284722222223,-0.003967013888888889],[0.035386284722222223,-0.0014236111111111112],[0.03574652777777778,0.00034288194444444443],[0.03574652777777778,0.0009592013888888889],[0.03574652777777778,0.0012369791666666666],[0.03574652777777778,0.0012369791666666666],[0.03574652777777778,0.0015060763888888888],[0.03574652777777778,0.0020876736111111113],[0.03574652777777778,0.002395833333333333],[0.03574652777777778,0.0029817708333333332],[0.03574652777777778,0.0035980902777777777],[0.03574652777777778,0.004635416666666667],[0.03574652777777778,0.0052517361111111115],[0.03574652777777778,0.005868055555555555],[0.03574652777777778,0.006480034722222222],[0.03574652777777778,0.006480034722222222],[0.03574652777777778,0.006480034722222222],[0.03574652777777778,0.006480034722222222],[0.035490451388888886,0.006480034722222222]],[[-0.002065972222222222,-0.19764756944444445],[-0.002065972222222222,-0.19764756944444445],[-0.002065972222222222,-0.19764756944444445],[-0.002065972222222222,-0.19764756944444445],[-0.002065972222222222,-0.19764756944444445],[-0.002065972222222222,-0.19764756944444445],[-0.002065972222222222,-0.19764756944444445],[-0.002065972222222222,-0.19764756944444445],[-0.002065972222222222,-0.19764756944444445],[-0.002065972222222222,-0.19764756944444445],[-0.0028125,-0.19764756944444445],[-0.008211805555555556,-0.19764756944444445],[-0.017430555555555557,-0.1969921875],[-0.027764756944444444,-0.1928689236111111],[-0.039422743055555556,-0.1899826388888889],[-0.05207899305555556,-0.18700520833333334],[-0.06342881944444445,-0.18344184027777777],[-0.07368055555555555,-0.18005208333333333],[-0.08975694444444444,-0.1737717013888889],[-0.10129340277777778,-0.16944010416666666],[-0.11267795138888889,-0.16586805555555556],[-0.12547309027777778,-0.16207899305555556],[-0.13822916666666665,-0.15680555555555556],[-0.15366319444444446,-0.15031684027777778],[-0.16766927083333333,-0.14408854166666665],[-0.17740885416666666,-0.13987847222222222],[-0.1889453125,-0.135546875],[-0.19952690972222223,-0.1306423611111111],[-0.20776909722222223,-0.1268532986111111],[-0.21546006944444446,-0.12348524305555555],[-0.22100260416666667,-0.1213107638888889],[-0.22642795138888888,-0.11859809027777778],[-0.2318142361111111,-0.11644097222222222],[-0.23645833333333333,-0.11438802083333334],[-0.24275173611111112,-0.11156684027777777],[-0.24661458333333333,-0.10963107638888889],[-0.25125868055555556,-0.10805989583333334],[-0.2544487847222222,-0.10667100694444444],[-0.2569704861111111,-0.10540798611111112],[-0.25897135416666667,-0.10461805555555556],[-0.2605512152777778,-0.10419270833333333],[-0.2618967013888889,-0.103828125],[-0.2618967013888889,-0.103828125]]]",2,"[83,43]",,,,,,,,,,,,space,2.66509,tvstudio2.jpg,space,5.720955,0,0,0,92,1,staircase.jpg,volleyballcourt.jpg,skatepark7.jpg,soccerfield2.jpg,,
Image_List_4,,,,,,,,,,,,,,,,44601,2020-11-23_14h06.32.598,analogCatScenes,2020.1.3,MacIntel,60,"[1440,900]","[[[0.00017361111111111112,-0.20471788194444446],[0.00017361111111111112,-0.20471788194444446],[0.00017361111111111112,-0.20471788194444446],[0.00017361111111111112,-0.20471788194444446],[0.00017361111111111112,-0.20471788194444446],[0.00017361111111111112,-0.20471788194444446],[0.00017361111111111112,-0.20471788194444446],[0.00017361111111111112,-0.20471788194444446],[0.00017361111111111112,-0.20471788194444446],[0.00017361111111111112,-0.20471788194444446],[0.00017361111111111112,-0.20471788194444446],[0.00017361111111111112,-0.20471788194444446],[0.00017361111111111112,-0.20471788194444446],[0.00017361111111111112,-0.20471788194444446],[0.00017361111111111112,-0.20471788194444446],[0.00017361111111111112,-0.20471788194444446],[0.00017361111111111112,-0.20471788194444446],[0.00017361111111111112,-0.20471788194444446],[0.00017361111111111112,-0.20471788194444446],[0.00017361111111111112,-0.20471788194444446],[0.00017361111111111112,-0.20471788194444446],[0.00017361111111111112,-0.20471788194444446],[0.00017361111111111112,-0.20421875],[0.00017361111111111112,-0.20421875],[0.00017361111111111112,-0.20421875],[0.00017361111111111112,-0.20395833333333332],[0.00017361111111111112,-0.20395833333333332],[0.00017361111111111112,-0.20369357638888888],[0.00017361111111111112,-0.20369357638888888],[0.00017361111111111112,-0.20343315972222223],[0.00017361111111111112,-0.20343315972222223],[0.00017361111111111112,-0.20317274305555555],[0.00017361111111111112,-0.20317274305555555],[0.00017361111111111112,-0.2029123263888889],[0.00017361111111111112,-0.2029123263888889],[0.00017361111111111112,-0.2029123263888889],[0.00017361111111111112,-0.20265625],[0.00017361111111111112,-0.20265625],[0.00017361111111111112,-0.20239583333333333],[0.00043836805555555556,-0.20212673611111112],[0.00043836805555555556,-0.20212673611111112],[0.00043836805555555556,-0.20185763888888889],[0.00043836805555555556,-0.20185763888888889],[0.00043836805555555556,-0.20159288194444444],[0.0007118055555555556,-0.2012847222222222],[0.0007118055555555556,-0.20100694444444445],[0.0007118055555555556,-0.20072916666666665],[0.0009852430555555556,-0.2004513888888889],[0.0009852430555555556,-0.1998654513888889],[0.0012586805555555556,-0.1995876736111111],[0.0012586805555555556,-0.19897569444444443],[0.0012586805555555556,-0.19869791666666667],[0.0015625,-0.1980815972222222],[0.0015625,-0.19746527777777778],[0.0018663194444444445,-0.19684895833333332],[0.0021397569444444446,-0.19657118055555556],[0.002443576388888889,-0.1959548611111111],[0.0027473958333333335,-0.19534288194444444],[0.003472222222222222,-0.19376302083333333],[0.005737847222222222,-0.1910763888888889],[0.009583333333333333,-0.1866232638888889],[0.013914930555555555,-0.1822829861111111],[0.017703993055555554,-0.1774001736111111],[0.020950520833333333,-0.17305989583333334],[0.024505208333333334,-0.16949652777777777],[0.027560763888888888,-0.16588975694444444],[0.03076388888888889,-0.16160590277777778],[0.034505208333333336,-0.15731336805555557],[0.039392361111111114,-0.15122395833333332],[0.04297309027777778,-0.1476345486111111],[0.04834635416666667,-0.14062065972222224],[0.05137152777777778,-0.13705729166666666],[0.054427083333333334,-0.1334548611111111],[0.05659722222222222,-0.13127604166666668],[0.05888454861111111,-0.1285546875],[0.06177517361111111,-0.12565538194444445],[0.06466145833333334,-0.12276041666666666],[0.06844618055555556,-0.11842447916666667],[0.07205729166666666,-0.1148046875],[0.07494357638888889,-0.11190972222222222],[0.07783420138888889,-0.10901041666666667],[0.080546875,-0.10671440972222222],[0.08415798611111111,-0.10363715277777778],[0.0872265625,-0.1000173611111111],[0.09155815972222223,-0.09621961805555555],[0.09444878472222222,-0.0933203125],[0.09655815972222222,-0.09120225694444445],[0.09810763888888889,-0.08922743055555556],[0.09954861111111112,-0.08814236111111111],[0.10015625,-0.08752604166666667],[0.10076388888888889,-0.08721788194444445],[0.10106770833333334,-0.08690972222222222],[0.10133246527777778,-0.08690972222222222],[0.10133246527777778,-0.08690972222222222],[0.10133246527777778,-0.08690972222222222],[0.10133246527777778,-0.08690972222222222],[0.10133246527777778,-0.08690972222222222],[0.10133246527777778,-0.08690972222222222],[0.10133246527777778,-0.08690972222222222],[0.10133246527777778,-0.08690972222222222],[0.10133246527777778,-0.08690972222222222],[0.10133246527777778,-0.08690972222222222],[0.10133246527777778,-0.08690972222222222],[0.10133246527777778,-0.08690972222222222],[0.10133246527777778,-0.08690972222222222],[0.10133246527777778,-0.08715711805555555],[0.10133246527777778,-0.08715711805555555],[0.10133246527777778,-0.08741753472222222],[0.10133246527777778,-0.08741753472222222],[0.10133246527777778,-0.08741753472222222],[0.10133246527777778,-0.08766927083333333],[0.10133246527777778,-0.08766927083333333],[0.10133246527777778,-0.08766927083333333],[0.10133246527777778,-0.08766927083333333],[0.10133246527777778,-0.08792100694444445],[0.10133246527777778,-0.08792100694444445],[0.10133246527777778,-0.08792100694444445],[0.10133246527777778,-0.08817274305555556],[0.10133246527777778,-0.08817274305555556],[0.10133246527777778,-0.08817274305555556],[0.10133246527777778,-0.08817274305555556],[0.10133246527777778,-0.08817274305555556],[0.10133246527777778,-0.08817274305555556],[0.10133246527777778,-0.08817274305555556],[0.10133246527777778,-0.08817274305555556],[0.10133246527777778,-0.08817274305555556],[0.10133246527777778,-0.08817274305555556],[0.10133246527777778,-0.08817274305555556],[0.10133246527777778,-0.08817274305555556],[0.10133246527777778,-0.08817274305555556],[0.10082899305555555,-0.08817274305555556],[0.10055121527777777,-0.08817274305555556],[0.09952256944444444,-0.08817274305555556],[0.09754340277777777,-0.08817274305555556],[0.09555989583333334,-0.08817274305555556],[0.09162326388888889,-0.08817274305555556],[0.08584201388888889,-0.0851171875],[0.07501302083333333,-0.07591579861111111],[0.05155381944444445,-0.05530815972222222],[0.03212239583333333,-0.039848090277777776],[0.013003472222222222,-0.025499131944444444],[-0.00782986111111111,-0.010603298611111112],[-0.028663194444444446,0.004231770833333333],[-0.051119791666666664,0.020568576388888888],[-0.07032986111111111,0.03498263888888889],[-0.08804253472222222,0.04897569444444445],[-0.10287760416666666,0.06032552083333333],[-0.11261284722222223,0.06777777777777778],[-0.12048611111111111,0.07368923611111111],[-0.12620659722222222,0.07772569444444444],[-0.1298263888888889,0.08080295138888889],[-0.13182725694444444,0.08201388888888889],[-0.13286458333333334,0.08305121527777778],[-0.13317274305555554,0.083359375],[-0.13348090277777777,0.083359375],[-0.13348090277777777,0.083359375],[-0.13348090277777777,0.083359375],[-0.13348090277777777,0.083359375],[-0.13348090277777777,0.083359375],[-0.13348090277777777,0.083359375],[-0.13348090277777777,0.083359375],[-0.13348090277777777,0.083359375],[-0.13348090277777777,0.083359375],[-0.13348090277777777,0.083359375],[-0.13348090277777777,0.08311197916666667],[-0.13348090277777777,0.08311197916666667],[-0.13348090277777777,0.08311197916666667],[-0.13348090277777777,0.08311197916666667],[-0.13348090277777777,0.08311197916666667],[-0.13348090277777777,0.08311197916666667],[-0.13348090277777777,0.08311197916666667]]]",1,[171],,,,,,,,,,,,,,sandDunes_desert_outdoor.jpg,space,7.39766,0,1,1,84,1,readingroom5.jpg,sidewalk2.jpg,restaurant13.jpg,rooftop2.jpg,,
Image_List_4,,,,,,,,,,,,,,,,44601,2020-11-23_14h06.32.598,analogCatScenes,2020.1.3,MacIntel,60,"[1440,900]","[[[-0.004118923611111111,-0.19838541666666668],[-0.004118923611111111,-0.19838541666666668],[-0.004118923611111111,-0.19838541666666668],[-0.004118923611111111,-0.19838541666666668],[-0.004118923611111111,-0.19838541666666668],[-0.004118923611111111,-0.19838541666666668],[-0.004118923611111111,-0.19838541666666668],[-0.004118923611111111,-0.19838541666666668],[-0.004118923611111111,-0.19838541666666668],[-0.004118923611111111,-0.19838541666666668],[-0.004118923611111111,-0.19838541666666668],[-0.004118923611111111,-0.19838541666666668],[-0.004118923611111111,-0.19838541666666668],[-0.004118923611111111,-0.19838541666666668],[-0.0037586805555555555,-0.19690972222222222],[0.0022352430555555554,-0.1888671875],[0.01165798611111111,-0.18009548611111112],[0.022578125,-0.16916666666666666],[0.03476128472222222,-0.1578168402777778],[0.04693576388888889,-0.14809461805555554],[0.05988715277777778,-0.13831163194444446],[0.0720703125,-0.12858506944444445],[0.08317708333333333,-0.12119791666666667],[0.09393229166666667,-0.11473090277777778],[0.10090277777777777,-0.11015625],[0.1123828125,-0.1018359375],[0.1213888888888889,-0.09630208333333333],[0.1314019097222222,-0.08985243055555556],[0.1404079861111111,-0.08431857638888889],[0.149375,-0.07815104166666667],[0.15946180555555556,-0.07165798611111111],[0.1695486111111111,-0.06444444444444444],[0.17963541666666666,-0.05723090277777778],[0.1896657986111111,-0.05006076388888889],[0.196875,-0.04482638888888889],[0.2098046875,-0.03572482638888889],[0.21911024305555554,-0.02783420138888889],[0.22567708333333333,-0.021258680555555555],[0.23297309027777777,-0.014548611111111111],[0.2408984375,-0.007934027777777778],[0.2502387152777778,-0.00002604166666666667],[0.2563671875,0.004908854166666666],[0.26297309027777777,0.0115234375],[0.2681163194444444,0.016080729166666665],[0.27112413194444446,0.018980034722222223],[0.2731119791666667,0.02019097222222222],[0.274140625,0.020555555555555556],[0.2747439236111111,0.020555555555555556],[0.2747439236111111,0.020555555555555556],[0.2747439236111111,0.020555555555555556],[0.2747439236111111,0.020811631944444443],[0.2747439236111111,0.02142795138888889],[0.27274305555555556,0.02263888888888889]],[[-0.0005034722222222222,-0.21078125],[-0.0005034722222222222,-0.21078125],[-0.0005034722222222222,-0.21078125],[-0.0005034722222222222,-0.21078125],[-0.0005034722222222222,-0.21078125],[-0.0005034722222222222,-0.21078125],[-0.0005034722222222222,-0.21078125],[-0.0005034722222222222,-0.21078125],[-0.0005034722222222222,-0.21078125],[-0.0005034722222222222,-0.21078125],[-0.0005034722222222222,-0.21078125],[-0.0009982638888888888,-0.21078125],[-0.006905381944444444,-0.20927517361111111],[-0.011245659722222223,-0.20601996527777777],[-0.015230034722222223,-0.20396701388888888],[-0.01921440972222222,-0.20245659722222223],[-0.023858506944444444,-0.20040364583333334],[-0.029401041666666666,-0.19822916666666668],[-0.034014756944444446,-0.1961935763888889],[-0.039422743055555556,-0.19348524305555556],[-0.04484809027777778,-0.19077256944444446],[-0.05112847222222222,-0.18856770833333333],[-0.056553819444444445,-0.18585503472222223],[-0.06584635416666666,-0.1825173611111111],[-0.07510850694444444,-0.17921006944444445],[-0.08790364583333334,-0.17542100694444446],[-0.10069878472222223,-0.17169270833333333],[-0.11344184027777778,-0.1679861111111111],[-0.12491319444444444,-0.16511284722222222],[-0.1374782986111111,-0.16138454861111112],[-0.15129774305555554,-0.1575564236111111],[-0.16517795138888888,-0.1544704861111111],[-0.1804079861111111,-0.1512673611111111],[-0.2054296875,-0.14541666666666667],[-0.2206467013888889,-0.14138020833333334],[-0.23340711805555556,-0.1391623263888889],[-0.24487413194444443,-0.13772135416666667],[-0.2552734375,-0.1363324652777778],[-0.2667404513888889,-0.13489149305555556],[-0.2771397569444444,-0.13344618055555554],[-0.2856032986111111,-0.13272135416666667],[-0.29483506944444443,-0.13139756944444445],[-0.30205729166666667,-0.13139756944444445],[-0.3092795138888889,-0.13079427083333334],[-0.3139105902777778,-0.13030815972222223],[-0.31711371527777776,-0.1298220486111111],[-0.3191145833333333,-0.1293967013888889],[-0.32057291666666665,-0.12903211805555556],[-0.3208810763888889,-0.12872395833333333],[-0.3211848958333333,-0.12872395833333333],[-0.3211848958333333,-0.12872395833333333],[-0.3211848958333333,-0.12872395833333333]]]",2,"[53,52]",,,,,,,,,,,,,,botanicalGarden5.jpg,space,5.91594,0,2,2,14,1,ballroom1.jpg,breakroom5.jpg,bistrooutdoor5.jpg,ballroom3.jpg,,
Image_List_4,,,,,,,,,,,,,,,,44601,2020-11-23_14h06.32.598,analogCatScenes,2020.1.3,MacIntel,60,"[1440,900]","[[[-0.00018663194444444445,-0.19791666666666666],[-0.00018663194444444445,-0.19791666666666666],[-0.00018663194444444445,-0.19791666666666666],[-0.00018663194444444445,-0.19791666666666666],[-0.00018663194444444445,-0.19791666666666666],[-0.00018663194444444445,-0.19791666666666666],[-0.00018663194444444445,-0.19791666666666666],[-0.00018663194444444445,-0.19791666666666666],[-0.00018663194444444445,-0.19791666666666666],[-0.00018663194444444445,-0.19791666666666666],[-0.00018663194444444445,-0.19791666666666666],[-0.00018663194444444445,-0.19791666666666666],[-0.00018663194444444445,-0.19791666666666666],[-0.00018663194444444445,-0.19791666666666666],[-0.00018663194444444445,-0.19791666666666666],[-0.00018663194444444445,-0.19791666666666666],[-0.00018663194444444445,-0.19791666666666666],[-0.00018663194444444445,-0.19791666666666666],[-0.0011631944444444443,-0.19791666666666666],[-0.004322916666666667,-0.1965451388888889],[-0.010121527777777778,-0.19299913194444446],[-0.017096354166666668,-0.18794270833333335],[-0.029361979166666666,-0.17982204861111112],[-0.035980902777777775,-0.1756076388888889],[-0.042634548611111114,-0.17135416666666667],[-0.047517361111111114,-0.16755642361111112],[-0.05294270833333333,-0.16430121527777777],[-0.058120659722222225,-0.16026475694444445],[-0.0624609375,-0.1570095486111111],[-0.06678385416666667,-0.1537673611111111],[-0.07112413194444445,-0.14942708333333332],[-0.07721354166666666,-0.14399305555555555],[-0.08297743055555555,-0.13822916666666665],[-0.08746527777777778,-0.13366319444444444],[-0.09286024305555556,-0.12826822916666666],[-0.09720052083333333,-0.12392795138888889],[-0.10291666666666667,-0.116953125],[-0.10694878472222222,-0.11177951388888889],[-0.11174479166666666,-0.10578993055555555],[-0.11575954861111111,-0.10009548611111112],[-0.11901475694444444,-0.09521267361111112],[-0.12226996527777778,-0.09032986111111112],[-0.12552517361111112,-0.08544704861111112],[-0.12979600694444443,-0.07955295138888889],[-0.1346701388888889,-0.07251736111111111],[-0.13737413194444445,-0.06765625],[-0.13995225694444444,-0.06357638888888889],[-0.14176649305555555,-0.06037326388888889],[-0.14436197916666665,-0.05627170138888889],[-0.14693576388888888,-0.05220920138888889],[-0.14875,-0.04901041666666667],[-0.1505642361111111,-0.045807291666666666],[-0.1519574652777778,-0.042604166666666665],[-0.15274739583333333,-0.04060329861111111],[-0.15311197916666666,-0.03914496527777778],[-0.15378472222222223,-0.03810763888888889],[-0.15378472222222223,-0.03749131944444444],[-0.15409288194444445,-0.03718315972222222],[-0.15409288194444445,-0.03718315972222222],[-0.15409288194444445,-0.036922743055555554],[-0.15409288194444445,-0.036922743055555554],[-0.15409288194444445,-0.036922743055555554],[-0.15409288194444445,-0.036922743055555554],[-0.15409288194444445,-0.036922743055555554],[-0.15409288194444445,-0.036922743055555554],[-0.15409288194444445,-0.036922743055555554],[-0.15409288194444445,-0.036922743055555554],[-0.15409288194444445,-0.036922743055555554]]]",1,[68],,,,,,,,,,,,,,basement5.jpg,space,5.930125,0,3,3,9,1,auto_showroom3.jpg,bar2.jpg,ballroom2.jpg,arcade2.jpg,,
Image_List_4,,,,,,,,,,,,,,,,44601,2020-11-23_14h06.32.598,analogCatScenes,2020.1.3,MacIntel,60,"[1440,900]","[[[0.005269097222222222,-0.20236979166666666],[0.005269097222222222,-0.20236979166666666],[0.005269097222222222,-0.20236979166666666],[0.005269097222222222,-0.20236979166666666],[0.005269097222222222,-0.20236979166666666],[0.005269097222222222,-0.20236979166666666],[0.005269097222222222,-0.20236979166666666],[0.005269097222222222,-0.20236979166666666],[0.005269097222222222,-0.20236979166666666],[0.005269097222222222,-0.20236979166666666],[0.005269097222222222,-0.20236979166666666],[0.005269097222222222,-0.20236979166666666],[0.005269097222222222,-0.20236979166666666],[0.005269097222222222,-0.20236979166666666],[0.005269097222222222,-0.20236979166666666],[0.005269097222222222,-0.20236979166666666],[0.005269097222222222,-0.20236979166666666],[0.005269097222222222,-0.20236979166666666],[0.005269097222222222,-0.20236979166666666],[0.005269097222222222,-0.20236979166666666],[0.005269097222222222,-0.20212239583333333],[0.005269097222222222,-0.2015060763888889],[0.005269097222222222,-0.20046875],[0.00484375,-0.197265625],[0.003042534722222222,-0.19009114583333334],[0.0011284722222222221,-0.18192708333333332],[-0.000078125,-0.17458333333333334],[-0.0018880208333333333,-0.16736979166666666],[-0.0030338541666666665,-0.16104600694444443],[-0.004904513888888889,-0.15280381944444443],[-0.006592881944444445,-0.146484375],[-0.00828125,-0.14095052083333334],[-0.009900173611111111,-0.1355859375],[-0.011519097222222222,-0.13018663194444444],[-0.013572048611111111,-0.1255425347222222],[-0.016102430555555554,-0.11730034722222223],[-0.0186328125,-0.10905815972222223],[-0.020499131944444443,-0.10171440972222222],[-0.02247829861111111,-0.09250434027777778],[-0.024283854166666667,-0.08529947916666666],[-0.02655815972222222,-0.07902777777777778],[-0.02818576388888889,-0.07360243055555556],[-0.029752604166666665,-0.06897135416666667],[-0.031197916666666665,-0.06512152777777777],[-0.03204861111111111,-0.06258246527777778],[-0.03272135416666667,-0.06081597222222222],[-0.0330859375,-0.05936631944444445],[-0.03345052083333333,-0.05790798611111111],[-0.03387586805555556,-0.05591145833333333],[-0.034301215277777776,-0.05391059027777778],[-0.03466579861111111,-0.05245225694444444],[-0.03509114583333333,-0.050451388888888886],[-0.03588107638888889,-0.04845486111111111],[-0.03624565972222222,-0.046996527777777776],[-0.036610243055555554,-0.045538194444444444],[-0.03722222222222222,-0.04492621527777778],[-0.03752604166666667,-0.04461805555555556],[-0.03752604166666667,-0.04434027777777778],[-0.03752604166666667,-0.04434027777777778],[-0.03779513888888889,-0.04434027777777778],[-0.038072916666666665,-0.04434027777777778]],[[0.006371527777777778,-0.19685329861111112],[0.006371527777777778,-0.19685329861111112],[0.006371527777777778,-0.19685329861111112],[0.006371527777777778,-0.19685329861111112],[0.006371527777777778,-0.19685329861111112],[0.006371527777777778,-0.19685329861111112],[0.006371527777777778,-0.19685329861111112],[0.006371527777777778,-0.19685329861111112],[0.006371527777777778,-0.19685329861111112],[0.006371527777777778,-0.19685329861111112],[0.006371527777777778,-0.19685329861111112],[0.006371527777777778,-0.19685329861111112],[0.006371527777777778,-0.19441840277777778],[0.010399305555555556,-0.1892404513888889],[0.017256944444444443,-0.18095052083333332],[0.028289930555555554,-0.17158420138888889],[0.03861545138888889,-0.16149305555555554],[0.050798611111111114,-0.15176649305555556],[0.06171875,-0.1416189236111111],[0.07915364583333333,-0.1273871527777778],[0.08582465277777777,-0.12299479166666667],[0.09375434027777778,-0.11776909722222222],[0.09917100694444445,-0.11505642361111111],[0.10380642361111111,-0.11300347222222222],[0.10698350694444445,-0.11161892361111111],[0.11017795138888889,-0.11070746527777778],[0.1121701388888889,-0.10991753472222222],[0.11416232638888889,-0.10876302083333333],[0.11669704861111112,-0.10791232638888888],[0.11989149305555556,-0.10742621527777778],[0.12308159722222223,-0.10651475694444444],[0.12627604166666667,-0.10602864583333334],[0.13013020833333333,-0.10554253472222222],[0.134765625,-0.10451388888888889],[0.13861979166666666,-0.10354166666666667],[0.1425954861111111,-0.10257378472222223],[0.14578993055555556,-0.10166232638888889],[0.1483203125,-0.10081163194444444],[0.1503125,-0.10038628472222222],[0.15176215277777777,-0.09965711805555555],[0.1527907986111111,-0.09934895833333333],[0.15381944444444445,-0.098984375],[0.15442708333333333,-0.09867621527777778],[0.15503472222222223,-0.09805989583333333],[0.15503472222222223,-0.09702256944444444],[0.15503472222222223,-0.09598524305555556],[0.1524392361111111,-0.0930859375]],[[0.002677951388888889,-0.18965277777777778],[0.002677951388888889,-0.18965277777777778],[0.002677951388888889,-0.18965277777777778],[0.002677951388888889,-0.18965277777777778],[0.002677951388888889,-0.18965277777777778],[0.002677951388888889,-0.18965277777777778],[0.002677951388888889,-0.18965277777777778],[0.002677951388888889,-0.18965277777777778],[0.002677951388888889,-0.18965277777777778],[0.002677951388888889,-0.18965277777777778],[0.002677951388888889,-0.18965277777777778],[-0.00024305555555555555,-0.1874826388888889],[-0.007821180555555555,-0.18236979166666667],[-0.020776909722222223,-0.17343315972222223],[-0.03651041666666666,-0.16388454861111112],[-0.044270833333333336,-0.16045572916666667],[-0.05365017361111111,-0.1557638888888889],[-0.06086805555555556,-0.15215277777777778],[-0.06784722222222223,-0.14829861111111112],[-0.076328125,-0.14378472222222222],[-0.08119357638888888,-0.14114149305555557],[-0.08891059027777778,-0.1359375],[-0.09552951388888889,-0.1317230902777778],[-0.10454427083333333,-0.1261892361111111],[-0.1140407986111111,-0.121015625],[-0.12161892361111111,-0.1165625],[-0.13026475694444445,-0.111875],[-0.1388671875,-0.10721788194444444],[-0.1456684027777778,-0.10360677083333333],[-0.1546267361111111,-0.09999565972222223],[-0.16366319444444444,-0.09607638888888889],[-0.16752604166666665,-0.09462239583333333],[-0.17217013888888888,-0.09359375],[-0.1768142361111111,-0.09310763888888889],[-0.18231336805555556,-0.09251302083333333],[-0.18953559027777778,-0.09251302083333333],[-0.19577256944444443,-0.09192274305555556],[-0.20515190972222222,-0.09192274305555556],[-0.21233072916666668,-0.09192274305555556],[-0.22159288194444443,-0.09192274305555556],[-0.22791666666666666,-0.09192274305555556],[-0.2351388888888889,-0.09192274305555556],[-0.24146267361111112,-0.09192274305555556],[-0.24688802083333333,-0.09192274305555556],[-0.25153211805555553,-0.09294270833333333],[-0.256171875,-0.09395833333333334],[-0.26003472222222224,-0.094921875],[-0.2632378472222222,-0.09540364583333333],[-0.26644097222222224,-0.09540364583333333],[-0.2696440972222222,-0.09588541666666667],[-0.2721440972222222,-0.09588541666666667],[-0.27466145833333333,-0.09630642361111111],[-0.2773828125,-0.0970876736111111],[-0.2789626736111111,-0.09750868055555556],[-0.28042100694444444,-0.09786892361111112],[-0.2810373263888889,-0.0984765625],[-0.2810373263888889,-0.0984765625],[-0.2810373263888889,-0.09873697916666667]]]",3,"[61,47,58]",,,,,,,,,,,,,,park8.jpg,space,6.74806,0,4,4,77,1,parkinggarage2.jpg,playroom6.jpg,pasture9.jpg,mallindoor6.jpg,,
Image_List_4,,,,,,,,,,,,,,,,44601,2020-11-23_14h06.32.598,analogCatScenes,2020.1.3,MacIntel,60,"[1440,900]","[[[-0.0022265625,-0.2044140625],[-0.0022265625,-0.2044140625],[-0.0022265625,-0.2044140625],[-0.0022265625,-0.2044140625],[-0.0022265625,-0.2044140625],[-0.0022265625,-0.2044140625],[-0.0022265625,-0.2044140625],[-0.0022265625,-0.2044140625],[-0.0022265625,-0.2044140625],[-0.0022265625,-0.2044140625],[-0.0022265625,-0.2044140625],[-0.0022265625,-0.2044140625],[-0.0022265625,-0.20391493055555557],[-0.0027690972222222223,-0.19994357638888888],[-0.004939236111111111,-0.19452690972222222],[-0.0068706597222222224,-0.1905425347222222],[-0.010112847222222223,-0.18567708333333333],[-0.012586805555555556,-0.18169270833333334],[-0.015620659722222222,-0.17812934027777777],[-0.018858506944444443,-0.17381510416666668],[-0.021905381944444444,-0.170234375],[-0.024973958333333334,-0.1666232638888889],[-0.029635416666666668,-0.1608767361111111],[-0.031931423611111114,-0.15815538194444445],[-0.03274739583333333,-0.15693576388888889],[-0.036493055555555556,-0.15276475694444444],[-0.03938368055555556,-0.14987413194444443],[-0.04167100694444444,-0.14716145833333333],[-0.04414496527777778,-0.14371961805555555],[-0.0482421875,-0.1383029513888889],[-0.05167534722222222,-0.13252170138888889],[-0.05427083333333333,-0.12787760416666666],[-0.058307291666666664,-0.12215711805555556],[-0.06114149305555556,-0.11583333333333333],[-0.06384982638888889,-0.11041666666666666],[-0.06677083333333333,-0.10392795138888888],[-0.06924045138888889,-0.09736979166666666],[-0.07188802083333333,-0.08967447916666667],[-0.07482638888888889,-0.07909722222222222],[-0.07732638888888889,-0.07072482638888888],[-0.07847222222222222,-0.06440104166666667],[-0.08026475694444445,-0.05729600694444444],[-0.08188368055555556,-0.05192708333333333],[-0.083515625,-0.045746527777777775],[-0.08508680555555556,-0.03838975694444444],[-0.08665364583333333,-0.03376302083333333],[-0.0876736111111111,-0.029153645833333332],[-0.08821614583333333,-0.02372829861111111],[-0.08875868055555555,-0.018328993055555555],[-0.08930121527777778,-0.013697916666666667],[-0.08930121527777778,-0.009848090277777779],[-0.08930121527777778,-0.005863715277777778],[-0.0897873263888889,-0.0026605902777777778],[-0.09020833333333333,-0.0006770833333333334],[-0.09057291666666667,0.00078125],[-0.09118923611111111,0.0013975694444444443],[-0.09155381944444445,0.002434895833333333],[-0.09217013888888889,0.0027430555555555554],[-0.0924782986111111,0.0030512152777777777],[-0.0924782986111111,0.0030512152777777777],[-0.09274739583333333,0.0030512152777777777]],[[-0.0113671875,-0.19481336805555555],[-0.0113671875,-0.19481336805555555],[-0.0113671875,-0.19481336805555555],[-0.0113671875,-0.19481336805555555],[-0.0113671875,-0.19481336805555555],[-0.0113671875,-0.19481336805555555],[-0.0113671875,-0.19481336805555555],[-0.0113671875,-0.19481336805555555],[-0.0113671875,-0.19481336805555555],[-0.0113671875,-0.19481336805555555],[-0.0113671875,-0.19481336805555555],[-0.0113671875,-0.19481336805555555],[-0.0113671875,-0.19481336805555555],[-0.006527777777777778,-0.19481336805555555],[0.002651909722222222,-0.19481336805555555],[0.0141796875,-0.19481336805555555],[0.025672743055555555,-0.19481336805555555],[0.03845920138888889,-0.19481336805555555],[0.04880642361111111,-0.19481336805555555],[0.057278645833333336,-0.19481336805555555],[0.06647135416666666,-0.19415798611111112],[0.07470486111111112,-0.19415798611111112],[0.08187065972222222,-0.19415798611111112],[0.09240017361111111,-0.19415798611111112],[0.09867621527777778,-0.19415798611111112],[0.10588541666666666,-0.19415798611111112],[0.11409722222222222,-0.19415798611111112],[0.12346788194444444,-0.19415798611111112],[0.1327126736111111,-0.19547743055555555],[0.13923611111111112,-0.19661024305555555],[0.14815972222222223,-0.19864149305555556],[0.15628038194444444,-0.1998828125],[0.1625954861111111,-0.20101996527777777],[0.16891059027777777,-0.20276041666666667],[0.17701822916666668,-0.20491319444444445],[0.18238715277777778,-0.20598090277777778],[0.19062065972222222,-0.20789930555555555],[0.19615451388888888,-0.20958333333333334],[0.20438802083333332,-0.2108420138888889],[0.2106814236111111,-0.2119748263888889],[0.21699652777777778,-0.21311197916666666],[0.22331163194444445,-0.2137109375],[0.23152777777777778,-0.21430555555555555],[0.23784288194444445,-0.21430555555555555],[0.24504774305555554,-0.2149045138888889],[0.2522092013888889,-0.2149045138888889],[0.2568315972222222,-0.21538194444444445],[0.26145399305555556,-0.21538194444444445],[0.2653038194444444,-0.21586371527777778],[0.26915364583333334,-0.21634114583333333],[0.2723480902777778,-0.21634114583333333],[0.2748828125,-0.21676215277777777],[0.2763324652777778,-0.21676215277777777],[0.2769357638888889,-0.21676215277777777],[0.2775390625,-0.21676215277777777],[0.2775390625,-0.21676215277777777],[0.2775390625,-0.21516059027777779],[0.2759765625,-0.21317274305555556],[0.2752517361111111,-0.21280815972222222]]]",2,"[61,59]",,,,,,,,,,,,,,cave5.jpg,space,5.91377,0,5,5,21,1,botanicalGarden6.jpg,cemetery6.jpg,campusquad3.jpg,beach1.jpeg,,
Image_List_4,,,,,,,,,,,,,,,,44601,2020-11-23_14h06.32.598,analogCatScenes,2020.1.3,MacIntel,60,"[1440,900]","[[[-0.003572048611111111,-0.1941015625],[-0.003572048611111111,-0.1941015625],[-0.003572048611111111,-0.1941015625],[-0.003572048611111111,-0.1941015625],[-0.003572048611111111,-0.1941015625],[-0.003572048611111111,-0.1941015625],[-0.003572048611111111,-0.1941015625],[-0.003572048611111111,-0.1941015625],[-0.003572048611111111,-0.1941015625],[-0.003572048611111111,-0.1941015625],[-0.003572048611111111,-0.1941015625],[-0.003572048611111111,-0.1941015625],[-0.003572048611111111,-0.1941015625],[-0.003572048611111111,-0.1941015625],[-0.003572048611111111,-0.1941015625],[-0.0006206597222222222,-0.1941015625],[0.007582465277777777,-0.19218315972222222],[0.017973090277777777,-0.18731336805555557],[0.03259548611111111,-0.18088975694444445],[0.047938368055555555,-0.1744357638888889],[0.061883680555555556,-0.16822916666666668],[0.07457899305555556,-0.16225694444444444],[0.08595486111111111,-0.1565625],[0.09993923611111111,-0.15033854166666666],[0.12154513888888889,-0.1398828125],[0.1343315972222222,-0.13387152777777778],[0.14280381944444445,-0.1299001736111111],[0.15639756944444444,-0.12342881944444445],[0.16565104166666667,-0.12012152777777778],[0.1749045138888889,-0.11681423611111111],[0.18409722222222222,-0.11286892361111112],[0.19376736111111112,-0.10799913194444444],[0.2024175347222222,-0.10330729166666666],[0.2120876736111111,-0.0984375],[0.2217578125,-0.09356770833333333],[0.23034722222222223,-0.08893663194444444],[0.239296875,-0.0839453125],[0.2478862847222222,-0.07931423611111112],[0.25611979166666665,-0.07552517361111111],[0.26459201388888887,-0.07155381944444444],[0.27012586805555555,-0.06986111111111111],[0.27781684027777775,-0.06720920138888889],[0.2849652777777778,-0.06481770833333333],[0.29038194444444443,-0.06319010416666666],[0.2942361111111111,-0.06125434027777778],[0.2967708333333333,-0.06040364583333333],[0.2981032986111111,-0.06009548611111111],[0.2984027777777778,-0.059483506944444445],[0.2984027777777778,-0.05844618055555555],[0.2984027777777778,-0.05740885416666667]],[[0.0002734375,-0.19977430555555556],[0.0002734375,-0.19977430555555556],[0.0002734375,-0.19977430555555556],[0.0002734375,-0.19977430555555556],[0.0002734375,-0.19977430555555556],[0.0002734375,-0.19977430555555556],[0.0002734375,-0.19977430555555556],[0.0002734375,-0.19977430555555556],[0.0002734375,-0.19977430555555556],[0.0002734375,-0.19977430555555556],[0.0002734375,-0.19977430555555556],[-0.0004557291666666667,-0.19879774305555556],[-0.005902777777777778,-0.1926953125],[-0.016050347222222223,-0.18176649305555556],[-0.02737847222222222,-0.16959635416666666],[-0.03501302083333333,-0.16250434027777777],[-0.04798611111111111,-0.14953125],[-0.056341145833333335,-0.14195746527777778],[-0.0661328125,-0.13294704861111112],[-0.0751171875,-0.12318576388888888],[-0.08197048611111112,-0.11555121527777777],[-0.08960503472222223,-0.10791666666666666],[-0.09837673611111111,-0.09848524305555556],[-0.10627170138888889,-0.08982638888888889],[-0.12026475694444444,-0.07338975694444444],[-0.12813802083333334,-0.06491753472222223],[-0.1349392361111111,-0.05603732638888889],[-0.14155381944444445,-0.04876302083333333],[-0.14887586805555555,-0.03934027777777778],[-0.15483072916666665,-0.032065972222222225],[-0.15886284722222221,-0.02689670138888889],[-0.16342447916666666,-0.021736111111111112],[-0.16722222222222222,-0.017395833333333333],[-0.16963975694444444,-0.014014756944444444],[-0.17121527777777779,-0.012013888888888888],[-0.17225260416666666,-0.0109765625],[-0.17334635416666666,-0.009522569444444445],[-0.17444010416666667,-0.008428819444444444],[-0.17553385416666667,-0.006970486111111111],[-0.17620659722222223,-0.0059331597222222225],[-0.1768185763888889,-0.0053211805555555556],[-0.1771267361111111,-0.005013020833333334],[-0.17771267361111112,-0.004427083333333333],[-0.1779904513888889,-0.004149305555555555],[-0.1779904513888889,-0.0035329861111111113]]]",2,"[50,45]",,,,,,,,,,,,,,hayfield4.jpg,space,6.69926,0,6,6,51,1,gasstation6.jpg,hallway5.jpg,frontDoor5.jpg,firestation5.jpg,,
Image_List_4,,,,,,,,,,,,,,,,44601,2020-11-23_14h06.32.598,analogCatScenes,2020.1.3,MacIntel,60,"[1440,900]","[[[-0.004396701388888889,-0.19251736111111112],[-0.004396701388888889,-0.19251736111111112],[-0.004396701388888889,-0.19251736111111112],[-0.004396701388888889,-0.19251736111111112],[-0.004396701388888889,-0.19251736111111112],[-0.004396701388888889,-0.19251736111111112],[-0.004396701388888889,-0.19251736111111112],[-0.004396701388888889,-0.19251736111111112],[-0.004396701388888889,-0.19251736111111112],[-0.004396701388888889,-0.19251736111111112],[-0.004396701388888889,-0.19251736111111112],[-0.004396701388888889,-0.19251736111111112],[-0.004396701388888889,-0.19251736111111112],[-0.004396701388888889,-0.19251736111111112],[-0.004396701388888889,-0.19251736111111112],[-0.004396701388888889,-0.19251736111111112],[-0.004396701388888889,-0.19251736111111112],[-0.004396701388888889,-0.19251736111111112],[-0.004396701388888889,-0.19251736111111112],[-0.004396701388888889,-0.19251736111111112],[-0.004396701388888889,-0.19251736111111112],[-0.004396701388888889,-0.19251736111111112],[-0.004396701388888889,-0.19251736111111112],[-0.004644097222222222,-0.1922092013888889],[-0.004644097222222222,-0.1922092013888889],[-0.004904513888888889,-0.1919487847222222],[-0.004904513888888889,-0.19167100694444444],[-0.005182291666666667,-0.19167100694444444],[-0.0054904513888888885,-0.19139322916666668],[-0.0054904513888888885,-0.19111545138888889],[-0.005798611111111111,-0.19111545138888889],[-0.005798611111111111,-0.19111545138888889],[-0.006106770833333333,-0.19085503472222223],[-0.006106770833333333,-0.19085503472222223],[-0.006106770833333333,-0.19059461805555555],[-0.006106770833333333,-0.19059461805555555],[-0.006371527777777778,-0.19059461805555555],[-0.006371527777777778,-0.19059461805555555],[-0.006371527777777778,-0.1903342013888889],[-0.006371527777777778,-0.1903342013888889],[-0.006371527777777778,-0.1903342013888889],[-0.006371527777777778,-0.1903342013888889],[-0.006371527777777778,-0.1903342013888889],[-0.006371527777777778,-0.1903342013888889],[-0.006371527777777778,-0.1903342013888889],[-0.006371527777777778,-0.1903342013888889],[-0.006371527777777778,-0.1903342013888889],[-0.006371527777777778,-0.1903342013888889],[-0.006371527777777778,-0.1903342013888889],[-0.006371527777777778,-0.1903342013888889],[-0.006371527777777778,-0.1903342013888889],[-0.006371527777777778,-0.1903342013888889],[-0.006371527777777778,-0.1903342013888889],[-0.006371527777777778,-0.1903342013888889],[-0.006371527777777778,-0.1903342013888889],[-0.006371527777777778,-0.1903342013888889],[-0.006371527777777778,-0.1903342013888889],[-0.006371527777777778,-0.1903342013888889],[-0.006371527777777778,-0.1903342013888889],[-0.006371527777777778,-0.1903342013888889],[-0.006371527777777778,-0.1903342013888889],[-0.006371527777777778,-0.1903342013888889],[-0.006371527777777778,-0.1903342013888889],[-0.006371527777777778,-0.1903342013888889],[-0.006371527777777778,-0.1903342013888889],[-0.006371527777777778,-0.1903342013888889],[-0.006371527777777778,-0.1903342013888889],[-0.006371527777777778,-0.1903342013888889],[-0.006371527777777778,-0.1903342013888889],[-0.006371527777777778,-0.1903342013888889],[-0.006371527777777778,-0.1903342013888889],[-0.006371527777777778,-0.1903342013888889],[-0.006371527777777778,-0.1903342013888889],[-0.006371527777777778,-0.1903342013888889],[-0.006371527777777778,-0.1903342013888889],[-0.006371527777777778,-0.1903342013888889],[-0.006371527777777778,-0.1903342013888889],[-0.006371527777777778,-0.1903342013888889],[-0.006371527777777778,-0.1903342013888889],[-0.006371527777777778,-0.1903342013888889],[-0.006371527777777778,-0.1903342013888889],[-0.006371527777777778,-0.1903342013888889],[-0.006371527777777778,-0.1903342013888889],[-0.006371527777777778,-0.1903342013888889],[-0.006371527777777778,-0.1903342013888889],[-0.006371527777777778,-0.1903342013888889],[-0.006371527777777778,-0.1903342013888889],[-0.006371527777777778,-0.1903342013888889],[-0.006371527777777778,-0.1903342013888889],[-0.006371527777777778,-0.1903342013888889],[-0.006371527777777778,-0.1903342013888889],[-0.006371527777777778,-0.1903342013888889],[-0.006371527777777778,-0.1903342013888889],[-0.006371527777777778,-0.1903342013888889],[-0.006371527777777778,-0.1903342013888889],[-0.006371527777777778,-0.1903342013888889],[-0.006371527777777778,-0.1903342013888889],[-0.006371527777777778,-0.1903342013888889],[-0.006371527777777778,-0.1903342013888889],[-0.006371527777777778,-0.1903342013888889],[-0.006371527777777778,-0.1903342013888889],[-0.006371527777777778,-0.1903342013888889],[-0.006371527777777778,-0.1903342013888889],[-0.006371527777777778,-0.1903342013888889],[-0.006371527777777778,-0.1903342013888889],[-0.006371527777777778,-0.1903342013888889],[-0.006371527777777778,-0.1903342013888889],[-0.006371527777777778,-0.1903342013888889],[-0.006371527777777778,-0.1903342013888889],[-0.006371527777777778,-0.1903342013888889],[-0.006371527777777778,-0.1903342013888889],[-0.006371527777777778,-0.1903342013888889],[-0.006371527777777778,-0.1903342013888889],[-0.006371527777777778,-0.1903342013888889],[-0.006371527777777778,-0.1903342013888889],[-0.006371527777777778,-0.1903342013888889],[-0.006371527777777778,-0.1903342013888889],[-0.006371527777777778,-0.1903342013888889],[-0.006371527777777778,-0.1903342013888889],[-0.006866319444444445,-0.19008680555555554],[-0.006866319444444445,-0.19008680555555554],[-0.006866319444444445,-0.19008680555555554],[-0.006866319444444445,-0.18983072916666666],[-0.006866319444444445,-0.18983072916666666],[-0.007174479166666667,-0.1895703125],[-0.007174479166666667,-0.1895703125],[-0.007478298611111111,-0.18930121527777777],[-0.007478298611111111,-0.1890234375],[-0.007786458333333334,-0.18871961805555557],[-0.0083984375,-0.1884157986111111],[-0.008702256944444445,-0.18780381944444444],[-0.009314236111111112,-0.18719184027777777],[-0.009926215277777779,-0.1865798611111111],[-0.010598958333333333,-0.18554253472222224],[-0.011636284722222221,-0.18377604166666667],[-0.0123046875,-0.18274305555555556],[-0.013454861111111112,-0.18075086805555557],[-0.015269097222222222,-0.17754774305555557],[-0.017204861111111112,-0.17368489583333332],[-0.019249131944444445,-0.1690625],[-0.021844618055555556,-0.1649609375],[-0.023897569444444444,-0.1603168402777778],[-0.026493055555555554,-0.15621527777777777],[-0.028428819444444444,-0.15235243055555556],[-0.030594618055555557,-0.14694444444444443],[-0.03276041666666667,-0.1420703125],[-0.03523003472222222,-0.1355078125],[-0.03740017361111111,-0.13009114583333334],[-0.039079861111111114,-0.1237890625],[-0.04087239583333333,-0.11661024305555556],[-0.04256076388888889,-0.11028645833333334],[-0.044240451388888886,-0.10401041666666666],[-0.04526909722222222,-0.09936631944444445],[-0.04621961805555556,-0.09557725694444444],[-0.04718315972222222,-0.09173611111111112],[-0.048081597222222223,-0.08858072916666666],[-0.04893229166666667,-0.08411458333333334],[-0.04941840277777778,-0.08025607638888889],[-0.050377604166666666,-0.0764453125],[-0.05086371527777778,-0.07325086805555556],[-0.051284722222222225,-0.07006076388888889],[-0.05182725694444444,-0.06541666666666666],[-0.05182725694444444,-0.0615625],[-0.05231336805555555,-0.058359375],[-0.05231336805555555,-0.05517361111111111],[-0.05231336805555555,-0.05263020833333333],[-0.05231336805555555,-0.05008680555555556],[-0.05231336805555555,-0.046892361111111114],[-0.05231336805555555,-0.04369357638888889],[-0.05141493055555556,-0.04049913194444445],[-0.05057291666666667,-0.03795572916666667],[-0.049791666666666665,-0.03595486111111111],[-0.04943142361111111,-0.03449652777777778],[-0.049127604166666665,-0.033880208333333335],[-0.049127604166666665,-0.03326822916666667],[-0.04882378472222222,-0.03265625],[-0.04882378472222222,-0.032039930555555554],[-0.04882378472222222,-0.031002604166666666],[-0.04882378472222222,-0.029965277777777778],[-0.04882378472222222,-0.029348958333333335],[-0.048463541666666665,-0.0280078125],[-0.048463541666666665,-0.026970486111111112],[-0.048463541666666665,-0.026354166666666668],[-0.048463541666666665,-0.02573784722222222],[-0.048463541666666665,-0.025121527777777777],[-0.048463541666666665,-0.024505208333333334],[-0.048463541666666665,-0.024227430555555554],[-0.048463541666666665,-0.023949652777777778],[-0.048463541666666665,-0.023949652777777778],[-0.048463541666666665,-0.023949652777777778],[-0.048463541666666665,-0.023949652777777778],[-0.048463541666666665,-0.023949652777777778],[-0.048463541666666665,-0.023949652777777778]],[[0.001349826388888889,-0.19483940972222222],[0.001349826388888889,-0.19483940972222222],[0.001349826388888889,-0.19483940972222222],[0.001349826388888889,-0.19483940972222222],[0.001349826388888889,-0.19483940972222222],[0.001349826388888889,-0.19483940972222222],[0.001349826388888889,-0.19483940972222222],[0.001349826388888889,-0.19483940972222222],[0.001349826388888889,-0.19483940972222222],[0.001349826388888889,-0.19483940972222222],[0.001349826388888889,-0.19483940972222222],[0.001349826388888889,-0.19483940972222222],[0.001349826388888889,-0.19483940972222222],[0.001349826388888889,-0.19483940972222222],[0.001349826388888889,-0.19483940972222222],[0.001349826388888889,-0.19483940972222222],[0.001349826388888889,-0.19483940972222222],[0.001349826388888889,-0.19483940972222222],[0.001349826388888889,-0.19483940972222222],[0.001349826388888889,-0.19483940972222222],[0.001349826388888889,-0.19483940972222222],[0.001349826388888889,-0.19483940972222222],[0.0018923611111111112,-0.19483940972222222],[0.002495659722222222,-0.19483940972222222],[0.0030989583333333333,-0.19483940972222222],[0.003372395833333333,-0.19483940972222222],[0.004279513888888889,-0.19483940972222222],[0.005308159722222222,-0.19483940972222222],[0.0067578125,-0.19483940972222222],[0.009292534722222223,-0.19483940972222222],[0.013125,-0.19627604166666668],[0.017725694444444443,-0.19729166666666667],[0.024027777777777776,-0.19842881944444443],[0.030338541666666666,-0.19956597222222222],[0.03573784722222222,-0.20010416666666667],[0.04115451388888889,-0.2006423611111111],[0.04743923611111111,-0.20124131944444446],[0.054639756944444444,-0.20124131944444446],[0.06280815972222223,-0.20124131944444446],[0.07319878472222222,-0.20124131944444446],[0.08350694444444444,-0.20124131944444446],[0.09376302083333334,-0.20124131944444446],[0.10515190972222223,-0.20124131944444446],[0.11766059027777778,-0.20124131944444446],[0.12911458333333334,-0.20124131944444446],[0.13883680555555555,-0.20124131944444446],[0.1516232638888889,-0.20057725694444445],[0.166640625,-0.19924913194444444],[0.17394965277777777,-0.19858940972222222],[0.183203125,-0.19792534722222221],[0.19142795138888888,-0.1973220486111111],[0.19864149305555556,-0.19671875],[0.20495659722222223,-0.1961154513888889],[0.20879340277777778,-0.19562934027777779],[0.2134201388888889,-0.19508680555555555],[0.21726996527777778,-0.19460069444444444],[0.22046440972222223,-0.19460069444444444],[0.2229904513888889,-0.19460069444444444],[0.22618489583333334,-0.19460069444444444],[0.2293793402777778,-0.19411458333333334],[0.2319140625,-0.19411458333333334],[0.23509982638888888,-0.1936328125],[0.23828993055555556,-0.1931467013888889],[0.24080729166666667,-0.1931467013888889],[0.24334201388888888,-0.19272135416666666],[0.2458767361111111,-0.19272135416666666],[0.24786892361111112,-0.19235677083333333],[0.25004340277777776,-0.19235677083333333],[0.25149305555555557,-0.1919921875],[0.2529427083333333,-0.1919921875],[0.25439236111111113,-0.1919921875],[0.2569184027777778,-0.1919921875],[0.26077256944444444,-0.1910199652777778],[0.2639670138888889,-0.1910199652777778],[0.2671614583333333,-0.19053385416666666],[0.26969184027777776,-0.19010850694444445],[0.27114149305555557,-0.19010850694444445],[0.2721657986111111,-0.19010850694444445],[0.2727734375,-0.19010850694444445],[0.27338107638888887,-0.19010850694444445],[0.27368489583333333,-0.19010850694444445],[0.27395833333333336,-0.19010850694444445],[0.27423177083333333,-0.19010850694444445],[0.2745052083333333,-0.19010850694444445],[0.2750824652777778,-0.19010850694444445],[0.2756857638888889,-0.19010850694444445],[0.2776779513888889,-0.18968315972222222],[0.28021267361111113,-0.18883246527777778],[0.2834071180555556,-0.18792100694444444],[0.2859418402777778,-0.1870703125],[0.2886501736111111,-0.18628038194444443],[0.28967881944444446,-0.18628038194444443],[0.29028645833333333,-0.18628038194444443],[0.2905902777777778,-0.18628038194444443],[0.2905902777777778,-0.18628038194444443],[0.2905902777777778,-0.18628038194444443],[0.2905902777777778,-0.18628038194444443],[0.2905902777777778,-0.18628038194444443],[0.2905902777777778,-0.18628038194444443],[0.2905902777777778,-0.18628038194444443],[0.2905902777777778,-0.18628038194444443],[0.2905902777777778,-0.18628038194444443],[0.2905902777777778,-0.18628038194444443],[0.2905902777777778,-0.18628038194444443],[0.2905902777777778,-0.18628038194444443],[0.2905902777777778,-0.18628038194444443],[0.2905902777777778,-0.18628038194444443],[0.2905902777777778,-0.18628038194444443],[0.2905902777777778,-0.18628038194444443],[0.2905902777777778,-0.18628038194444443],[0.2905902777777778,-0.18628038194444443],[0.2905902777777778,-0.18628038194444443],[0.2905902777777778,-0.18628038194444443],[0.2905902777777778,-0.18628038194444443],[0.2905902777777778,-0.18628038194444443],[0.2905902777777778,-0.18628038194444443],[0.29034288194444446,-0.18628038194444443],[0.29034288194444446,-0.18628038194444443],[0.29034288194444446,-0.18628038194444443],[0.29034288194444446,-0.18628038194444443],[0.29034288194444446,-0.18628038194444443],[0.29034288194444446,-0.18628038194444443],[0.29034288194444446,-0.18628038194444443],[0.29034288194444446,-0.18628038194444443],[0.29034288194444446,-0.18628038194444443],[0.29034288194444446,-0.18628038194444443],[0.29034288194444446,-0.18628038194444443],[0.29034288194444446,-0.18628038194444443],[0.29034288194444446,-0.18628038194444443],[0.29034288194444446,-0.18628038194444443],[0.29034288194444446,-0.18628038194444443],[0.29034288194444446,-0.18628038194444443],[0.29034288194444446,-0.18628038194444443],[0.29034288194444446,-0.18628038194444443],[0.29034288194444446,-0.18628038194444443],[0.29034288194444446,-0.18628038194444443],[0.29034288194444446,-0.18628038194444443],[0.29034288194444446,-0.18628038194444443],[0.29034288194444446,-0.18628038194444443],[0.29034288194444446,-0.18628038194444443],[0.29034288194444446,-0.18628038194444443],[0.29034288194444446,-0.18628038194444443],[0.29034288194444446,-0.18628038194444443],[0.29034288194444446,-0.18628038194444443],[0.29034288194444446,-0.18628038194444443],[0.29034288194444446,-0.18628038194444443],[0.29034288194444446,-0.18628038194444443],[0.29034288194444446,-0.18628038194444443],[0.29034288194444446,-0.18628038194444443],[0.29034288194444446,-0.18628038194444443],[0.29034288194444446,-0.18628038194444443]]]",2,"[193,151]",,,,,,,,,,,,,,weightroom.jpg,space,9.166355,0,7,7,94,1,treehouse.jpg,waitingroom3.jpg,staircase6.jpg,trainStation3.jpg,,
Image_List_4,,,,,,,,,,,,,,,,44601,2020-11-23_14h06.32.598,analogCatScenes,2020.1.3,MacIntel,60,"[1440,900]","[[[0.004600694444444445,-0.20250868055555554],[0.004600694444444445,-0.20250868055555554],[0.004600694444444445,-0.20250868055555554],[0.004600694444444445,-0.20250868055555554],[0.004600694444444445,-0.20250868055555554],[0.004600694444444445,-0.20250868055555554],[0.004600694444444445,-0.20250868055555554],[0.004600694444444445,-0.20250868055555554],[0.004600694444444445,-0.20250868055555554],[0.004600694444444445,-0.20250868055555554],[0.004600694444444445,-0.20250868055555554],[0.004600694444444445,-0.20250868055555554],[0.004600694444444445,-0.20250868055555554],[0.004600694444444445,-0.20250868055555554],[0.004600694444444445,-0.20250868055555554],[0.004600694444444445,-0.20250868055555554],[0.004600694444444445,-0.20250868055555554],[0.003081597222222222,-0.20250868055555554],[0.0020442708333333333,-0.2018359375],[-0.0013975694444444443,-0.19936197916666668],[-0.006336805555555556,-0.19598524305555556],[-0.015967881944444446,-0.1904123263888889],[-0.027981770833333332,-0.18361979166666667],[-0.04455295138888889,-0.17490885416666666],[-0.059661458333333334,-0.16651041666666666],[-0.07479166666666667,-0.15726128472222223],[-0.0912282986111111,-0.14690104166666668],[-0.10627170138888889,-0.13687065972222223],[-0.12134982638888889,-0.12765625],[-0.13516059027777777,-0.11954427083333333],[-0.14645399305555556,-0.11203125],[-0.15654947916666667,-0.10553819444444444],[-0.16664496527777778,-0.09832465277777777],[-0.17781684027777778,-0.09045138888888889],[-0.18479166666666666,-0.08539496527777778],[-0.19051215277777778,-0.08135850694444445],[-0.19461371527777777,-0.07876302083333334],[-0.19871527777777778,-0.07616753472222222],[-0.20281684027777777,-0.07357204861111111],[-0.2069184027777778,-0.0709765625],[-0.2115625,-0.06838107638888889],[-0.2156597222222222,-0.06578993055555556],[-0.21950520833333334,-0.06386284722222223],[-0.22359375,-0.06127604166666667],[-0.226796875,-0.05946180555555555],[-0.23,-0.05764756944444444],[-0.23200086805555556,-0.05643663194444445],[-0.2334592013888889,-0.05570746527777778],[-0.23449652777777777,-0.05503472222222222],[-0.23511284722222223,-0.05441840277777778],[-0.23542100694444446,-0.054110243055555556],[-0.23572916666666666,-0.053802083333333334],[-0.23600694444444445,-0.053524305555555554],[-0.23600694444444445,-0.053246527777777775],[-0.23600694444444445,-0.053246527777777775]],[[0.0008723958333333333,-0.19856336805555555],[0.0008723958333333333,-0.19856336805555555],[0.0008723958333333333,-0.19856336805555555],[0.0008723958333333333,-0.19856336805555555],[0.0008723958333333333,-0.19856336805555555],[0.0008723958333333333,-0.19856336805555555],[0.0008723958333333333,-0.19856336805555555],[0.0008723958333333333,-0.19856336805555555],[0.0008723958333333333,-0.19856336805555555],[0.0008723958333333333,-0.19856336805555555],[0.0008723958333333333,-0.19856336805555555],[0.0008723958333333333,-0.19856336805555555],[0.0008723958333333333,-0.19856336805555555],[0.0008723958333333333,-0.19856336805555555],[0.0008723958333333333,-0.19856336805555555],[0.0008723958333333333,-0.19856336805555555],[0.001115451388888889,-0.19856336805555555],[0.004921875,-0.19856336805555555],[0.013120659722222223,-0.19664496527777778],[0.03095052083333333,-0.18846788194444444],[0.048953993055555554,-0.17945746527777778],[0.06695746527777778,-0.1695486111111111],[0.0865234375,-0.15838107638888888],[0.10765190972222222,-0.1478125],[0.12721788194444444,-0.13760416666666667],[0.14522135416666668,-0.1276953125],[0.1611935763888889,-0.12008680555555555],[0.17704861111111111,-0.112578125],[0.1921484375,-0.1041796875],[0.20595052083333334,-0.09606770833333333],[0.2210720486111111,-0.08681857638888889],[0.23535590277777776,-0.07588975694444444],[0.2509418402777778,-0.06460069444444444],[0.26576822916666665,-0.052408854166666664],[0.2792144097222222,-0.041480034722222225],[0.28893663194444447,-0.03403645833333333],[0.29996961805555555,-0.024913194444444446],[0.3078428819444444,-0.01965277777777778],[0.31209635416666665,-0.015911458333333333],[0.3169487847222222,-0.012013888888888888],[0.3196614583333333,-0.009717881944444444],[0.32177083333333334,-0.007599826388888889],[0.3232204861111111,-0.006141493055555555],[0.3246701388888889,-0.005412326388888889],[0.3252777777777778,-0.004796006944444445],[0.3258810763888889,-0.004796006944444445],[0.3261848958333333,-0.004796006944444445],[0.32645833333333335,-0.004796006944444445],[0.32645833333333335,-0.004796006944444445],[0.32645833333333335,-0.004796006944444445],[0.32645833333333335,-0.004796006944444445],[0.32620225694444444,-0.004796006944444445]]]",2,"[55,52]",,,,,,,,,,,,,,cemetery.jpg,space,5.81499,0,8,8,22,1,bowlingalley5.jpg,church6.jpg,cargo5.jpg,bistrooutdoor6.jpg,,
Image_List_4,,,,,,,,,,,,,,,,44601,2020-11-23_14h06.32.598,analogCatScenes,2020.1.3,MacIntel,60,"[1440,900]","[[[-0.005260416666666667,-0.21196180555555555],[-0.005260416666666667,-0.21196180555555555],[-0.005260416666666667,-0.21196180555555555],[-0.005260416666666667,-0.21196180555555555],[-0.005260416666666667,-0.21196180555555555],[-0.005260416666666667,-0.21196180555555555],[-0.005260416666666667,-0.21196180555555555],[-0.005260416666666667,-0.21196180555555555],[-0.005260416666666667,-0.21196180555555555],[-0.005260416666666667,-0.21196180555555555],[-0.005260416666666667,-0.21196180555555555],[-0.005260416666666667,-0.21196180555555555],[-0.005260416666666667,-0.21196180555555555],[-0.005260416666666667,-0.21196180555555555],[-0.005260416666666667,-0.21196180555555555],[-0.005260416666666667,-0.2104470486111111],[-0.005260416666666667,-0.20412326388888888],[-0.0071875,-0.19588107638888888],[-0.008394097222222223,-0.18958767361111112],[-0.010980902777777777,-0.18134548611111112],[-0.013142361111111112,-0.17595052083333335],[-0.014392361111111111,-0.16783420138888888],[-0.015407986111111112,-0.1632595486111111],[-0.015950520833333332,-0.1578515625],[-0.016553819444444444,-0.15158854166666666],[-0.01769965277777778,-0.1396484375],[-0.01769965277777778,-0.1302690972222222],[-0.01769965277777778,-0.11631944444444445],[-0.01769965277777778,-0.09970920138888889],[-0.016866319444444444,-0.08294704861111112],[-0.013628472222222222,-0.06751302083333334],[-0.009852430555555555,-0.054735243055555556],[-0.0051736111111111115,-0.040681423611111114],[0.0032291666666666666,-0.01203125],[0.010368923611111112,0.005564236111111111],[0.01937065972222222,0.023697916666666666],[0.026575520833333335,0.033250868055555556],[0.036184895833333335,0.04286458333333333],[0.04638888888888889,0.04941840277777778],[0.05407986111111111,0.05255208333333333],[0.058055555555555555,0.0540625],[0.06125,0.05454861111111111],[0.0632421875,0.054973958333333336],[0.06469184027777777,0.054973958333333336],[0.06560329861111111,0.054973958333333336],[0.06620659722222222,0.054973958333333336],[0.06680989583333333,0.054973958333333336],[0.06879774305555555,0.054973958333333336],[0.07343315972222222,0.054973958333333336],[0.0780685763888889,0.054973958333333336],[0.08461371527777778,0.054973958333333336],[0.09500434027777778,0.054973958333333336],[0.10321614583333333,0.05431423611111111],[0.11048177083333334,0.053663194444444444],[0.11871527777777778,0.053064236111111114],[0.12592881944444445,0.05246527777777778],[0.13056423611111112,0.05246527777777778],[0.13375434027777777,0.05246527777777778],[0.13520399305555555,0.05210503472222222],[0.13581163194444446,0.05180121527777778],[0.13641927083333333,0.051497395833333334],[0.13641927083333333,0.051497395833333334],[0.13641927083333333,0.05123263888888889],[0.13641927083333333,0.05123263888888889],[0.13641927083333333,0.05123263888888889],[0.13641927083333333,0.05123263888888889],[0.13641927083333333,0.05123263888888889],[0.13641927083333333,0.05123263888888889],[0.13391059027777777,0.05294704861111111]],[[-0.009613715277777778,-0.20879340277777778],[-0.009613715277777778,-0.20879340277777778],[-0.009613715277777778,-0.20879340277777778],[-0.009613715277777778,-0.20879340277777778],[-0.009613715277777778,-0.20879340277777778],[-0.009613715277777778,-0.20879340277777778],[-0.009613715277777778,-0.20854600694444445],[-0.009613715277777778,-0.20461371527777777],[-0.009613715277777778,-0.19734809027777778],[-0.009613715277777778,-0.1901736111111111],[-0.009613715277777778,-0.1829513888888889],[-0.009613715277777778,-0.17575086805555556],[-0.009613715277777778,-0.16852864583333332],[-0.009613715277777778,-0.15926649305555557],[-0.010338541666666666,-0.14891927083333334],[-0.011527777777777777,-0.1407204861111111],[-0.014058159722222222,-0.1324782986111111],[-0.016106770833333332,-0.12207899305555556],[-0.020008680555555554,-0.108046875],[-0.023546006944444444,-0.09744791666666666],[-0.027035590277777778,-0.0870486111111111],[-0.031002604166666666,-0.07778645833333334],[-0.035694444444444445,-0.06840711805555555],[-0.03948350694444445,-0.06016493055555556],[-0.04393663194444444,-0.05258680555555555],[-0.04743055555555555,-0.04686631944444444],[-0.05691840277777778,-0.032578125],[-0.05950954861111111,-0.028693576388888888],[-0.06595052083333333,-0.01868923611111111],[-0.0790451388888889,0.0017404513888888888],[-0.08370659722222222,0.01033420138888889],[-0.0899609375,0.019348958333333333],[-0.09741319444444445,0.02908420138888889],[-0.1053515625,0.03845486111111111],[-0.1146875,0.04934895833333333],[-0.12154079861111111,0.05698350694444444],[-0.12803385416666666,0.06476996527777777],[-0.1346484375,0.07138454861111111],[-0.13953125,0.07518229166666666],[-0.14438802083333332,0.07841579861111111],[-0.1497873263888889,0.08111545138888888],[-0.15443142361111112,0.0837109375],[-0.15829427083333333,0.08516493055555556],[-0.16149739583333333,0.08607638888888888],[-0.16404079861111112,0.08607638888888888],[-0.16658420138888888,0.08607638888888888],[-0.16858506944444446,0.08644097222222222],[-0.17058159722222221,0.08644097222222222],[-0.17161458333333332,0.08644097222222222],[-0.17223090277777778,0.08644097222222222],[-0.17250868055555554,0.08644097222222222],[-0.17250868055555554,0.08644097222222222],[-0.17250868055555554,0.08644097222222222]]]",2,"[69,53]",,,,,,,,,,,,,,hallway2.jpg,space,4.66424,0,9,9,50,1,frontLawn4.jpg,grocerystore6.jpg,forestpath6.jpg,fireplace4.jpg,,
Image_List_4,,,,,,,,,,,,,,,,44601,2020-11-23_14h06.32.598,analogCatScenes,2020.1.3,MacIntel,60,"[1440,900]","[[[0.0034852430555555557,-0.2011328125],[0.0034852430555555557,-0.2011328125],[0.0034852430555555557,-0.2011328125],[0.0034852430555555557,-0.2011328125],[0.0034852430555555557,-0.2011328125],[0.0034852430555555557,-0.2011328125],[0.0034852430555555557,-0.2011328125],[0.0034852430555555557,-0.2011328125],[0.0034852430555555557,-0.2011328125],[0.0034852430555555557,-0.2011328125],[0.0034852430555555557,-0.2011328125],[0.0034852430555555557,-0.2011328125],[0.0034852430555555557,-0.2011328125],[0.0034852430555555557,-0.2011328125],[0.0034852430555555557,-0.2011328125],[0.0034852430555555557,-0.2011328125],[0.0034852430555555557,-0.2011328125],[0.0034852430555555557,-0.1982248263888889],[0.0048046875,-0.18902777777777777],[0.010594618055555555,-0.1729470486111111],[0.0151171875,-0.16104166666666667],[0.01853732638888889,-0.15130208333333334],[0.024778645833333335,-0.13712673611111112],[0.02814236111111111,-0.12942708333333333],[0.030963541666666667,-0.12352430555555556],[0.034926215277777777,-0.11414496527777777],[0.038871527777777776,-0.10569444444444444],[0.04175347222222222,-0.099375],[0.04649739583333334,-0.08963541666666666],[0.05190104166666667,-0.07845920138888889],[0.0539453125,-0.07381510416666667],[0.05802951388888889,-0.06485677083333333],[0.06271267361111112,-0.055477430555555554],[0.06787760416666666,-0.04598090277777778],[0.07015190972222222,-0.03968315972222222],[0.07483506944444444,-0.031024305555555555],[0.07627604166666667,-0.027174479166666668],[0.07957899305555556,-0.02085503472222222],[0.08149305555555555,-0.017013888888888887],[0.08281684027777778,-0.013810763888888888],[0.08365885416666667,-0.011267361111111112],[0.08462239583333334,-0.009926215277777779],[0.08492621527777777,-0.009309895833333333],[0.08492621527777777,-0.00869357638888889],[0.08522569444444444,-0.0080859375],[0.08522569444444444,-0.007808159722222222],[0.08522569444444444,-0.007808159722222222],[0.08522569444444444,-0.007547743055555556],[0.08522569444444444,-0.007547743055555556],[0.08522569444444444,-0.007547743055555556],[0.08522569444444444,-0.007547743055555556],[0.08522569444444444,-0.007547743055555556],[0.08522569444444444,-0.007547743055555556],[0.08522569444444444,-0.007547743055555556],[0.08522569444444444,-0.007547743055555556],[0.08522569444444444,-0.007547743055555556],[0.08522569444444444,-0.007547743055555556],[0.08522569444444444,-0.007547743055555556],[0.08522569444444444,-0.007547743055555556],[0.08522569444444444,-0.007547743055555556],[0.08522569444444444,-0.007547743055555556],[0.08522569444444444,-0.007547743055555556],[0.08522569444444444,-0.007547743055555556],[0.08522569444444444,-0.007547743055555556],[0.08522569444444444,-0.007547743055555556],[0.08522569444444444,-0.007547743055555556],[0.08522569444444444,-0.007547743055555556],[0.08522569444444444,-0.007547743055555556],[0.08522569444444444,-0.007547743055555556],[0.08522569444444444,-0.007547743055555556],[0.08522569444444444,-0.007048611111111111],[0.08522569444444444,-0.006462673611111111],[0.08522569444444444,-0.004461805555555556],[0.085703125,-0.001267361111111111],[0.08720486111111111,0.002712673611111111],[0.08924913194444445,0.007356770833333333],[0.09104166666666667,0.010538194444444444],[0.09187934027777778,0.013064236111111112],[0.09259982638888889,0.014518229166666667],[0.09332465277777778,0.01609809027777778],[0.09410590277777778,0.018090277777777778],[0.09482204861111111,0.019539930555555557],[0.0954861111111111,0.021844618055555556],[0.0954861111111111,0.022881944444444444],[0.09578993055555556,0.023498263888888888],[0.09578993055555556,0.02380642361111111],[0.09578993055555556,0.02408420138888889],[0.09578993055555556,0.02408420138888889],[0.09578993055555556,0.02408420138888889],[0.0948046875,0.02408420138888889],[0.09334635416666667,0.02408420138888889],[0.09134548611111111,0.024509548611111112],[0.08880208333333334,0.025360243055555554],[0.08337673611111111,0.027530381944444446],[0.07795138888888889,0.030785590277777778],[0.07002170138888889,0.03673611111111111],[0.061059027777777775,0.042955729166666665],[0.05437934027777778,0.047890625],[0.04416666666666667,0.05510416666666667],[0.03838975694444444,0.05853732638888889],[0.030811631944444445,0.06299045138888888],[0.024487847222222223,0.06582465277777778],[0.0181640625,0.06865885416666667],[0.010065104166666667,0.07135850694444444],[0.0054210069444444444,0.07341145833333333],[0.0007769097222222222,0.074921875],[-0.0030772569444444445,0.07637152777777778],[-0.007721354166666666,0.07740017361111111],[-0.011566840277777778,0.07836805555555555],[-0.0154296875,0.07934027777777777],[-0.0186328125,0.07982638888888889],[-0.021176215277777778,0.08109809027777778],[-0.0231640625,0.08188368055555556],[-0.025164930555555555,0.08267361111111111],[-0.026202256944444443,0.08298177083333333],[-0.026931423611111113,0.08328993055555556],[-0.027547743055555556,0.08359809027777777],[-0.027547743055555556,0.08359809027777777],[-0.027547743055555556,0.0838671875],[-0.027547743055555556,0.084453125]],[[0.005047743055555555,-0.19688368055555555],[0.005047743055555555,-0.19688368055555555],[0.005047743055555555,-0.19688368055555555],[0.005047743055555555,-0.19688368055555555],[0.005047743055555555,-0.19688368055555555],[0.005047743055555555,-0.19688368055555555],[0.005047743055555555,-0.19688368055555555],[0.005047743055555555,-0.19688368055555555],[0.001328125,-0.19688368055555555],[-0.0069140625,-0.19688368055555555],[-0.01857204861111111,-0.19387586805555557],[-0.0313671875,-0.19086805555555555],[-0.04534288194444445,-0.18542534722222223],[-0.059518229166666665,-0.1800173611111111],[-0.07357204861111111,-0.1745486111111111],[-0.08762586805555556,-0.16907986111111112],[-0.10299045138888889,-0.1626171875],[-0.11842447916666667,-0.1569704861111111],[-0.13445746527777777,-0.14844184027777776],[-0.15401909722222223,-0.13728298611111112],[-0.17203125,-0.12647569444444445],[-0.1821875,-0.1198828125],[-0.19852430555555556,-0.11123263888888889],[-0.20550347222222223,-0.10737847222222222],[-0.21667534722222223,-0.10137152777777778],[-0.22533420138888888,-0.0966796875],[-0.23163194444444443,-0.09439670138888889],[-0.24192708333333332,-0.09021701388888889],[-0.25166666666666665,-0.08733072916666666],[-0.2562673611111111,-0.08529513888888889],[-0.26164496527777775,-0.08367621527777777],[-0.26555555555555554,-0.08240885416666667],[-0.2658637152777778,-0.08240885416666667]]]",2,"[120,33]",,,,,,,,,,,,,,staircase7.jpg,space,5.16472,0,10,10,89,1,ruralroad7.jpg,track5.jpg,ShowJumping7.jpg,sculpturegarden3.jpg,,
Image_List_4,,,,,,,,,,,,,,,,44601,2020-11-23_14h06.32.598,analogCatScenes,2020.1.3,MacIntel,60,"[1440,900]","[[[-0.00008680555555555556,-0.19946614583333333],[-0.00008680555555555556,-0.19946614583333333],[-0.00008680555555555556,-0.19946614583333333],[-0.00008680555555555556,-0.19946614583333333],[-0.00008680555555555556,-0.19946614583333333],[-0.00008680555555555556,-0.19946614583333333],[-0.00008680555555555556,-0.19946614583333333],[-0.0038368055555555555,-0.19946614583333333],[-0.015303819444444445,-0.19946614583333333],[-0.03491319444444444,-0.19946614583333333],[-0.059240451388888886,-0.19946614583333333],[-0.08548611111111111,-0.19946614583333333],[-0.12829427083333333,-0.19549479166666667],[-0.1412282986111111,-0.19250868055555556],[-0.1671527777777778,-0.18473958333333335],[-0.1854470486111111,-0.17867621527777777],[-0.199609375,-0.17399739583333335],[-0.2099435763888889,-0.1705251736111111],[-0.21860243055555556,-0.16583333333333333],[-0.22492621527777779,-0.16294270833333332],[-0.2321484375,-0.15993055555555555],[-0.23677951388888888,-0.15788194444444445],[-0.24063368055555556,-0.15595052083333333],[-0.24449652777777778,-0.15449652777777778],[-0.24703993055555556,-0.1532248263888889],[-0.24903211805555556,-0.15165364583333332],[-0.25049045138888887,-0.1501953125],[-0.2515842013888889,-0.14873697916666667]],[[0.0013194444444444445,-0.19641493055555556],[0.0013194444444444445,-0.19641493055555556],[0.0013194444444444445,-0.19641493055555556],[0.0013194444444444445,-0.19641493055555556],[0.0013194444444444445,-0.19641493055555556],[0.0013194444444444445,-0.19641493055555556],[0.0013194444444444445,-0.19641493055555556],[0.0013194444444444445,-0.19641493055555556],[0.0013194444444444445,-0.19641493055555556],[0.0013194444444444445,-0.19641493055555556],[0.002287326388888889,-0.19641493055555556],[0.006141493055555555,-0.19641493055555556],[0.018910590277777778,-0.19575086805555555],[0.03163628472222222,-0.19126736111111112],[0.0579296875,-0.17967447916666668],[0.07899739583333333,-0.16823350694444444],[0.10985677083333334,-0.15105902777777777],[0.14350260416666666,-0.13062934027777778],[0.18456163194444444,-0.10530815972222222],[0.22653211805555556,-0.07685763888888889],[0.26848958333333334,-0.04842013888888889],[0.30377170138888887,-0.02195746527777778],[0.3253298611111111,-0.005798611111111111]]]",2,"[28,23]",,,,,,,,,,,,,,liquorstore2.jpg,space,4.097805,0,11,11,67,1,library_aisle3.jpg,park7.jpg,laundromat4.jpg,hospitalroom2.jpg,,
Image_List_4,,,,,,,,,,,,,,,,44601,2020-11-23_14h06.32.598,analogCatScenes,2020.1.3,MacIntel,60,"[1440,900]","[[[0.002170138888888889,-0.19767361111111112],[0.002170138888888889,-0.19767361111111112],[0.002170138888888889,-0.19767361111111112],[0.002170138888888889,-0.19767361111111112],[0.002170138888888889,-0.19767361111111112],[0.002170138888888889,-0.19767361111111112],[0.002170138888888889,-0.19767361111111112],[0.002170138888888889,-0.19767361111111112],[0.002170138888888889,-0.19767361111111112],[0.002170138888888889,-0.19767361111111112],[0.002170138888888889,-0.19767361111111112],[0.002170138888888889,-0.19767361111111112],[-0.000008680555555555556,-0.19767361111111112],[-0.005412326388888889,-0.19767361111111112],[-0.014674479166666667,-0.19767361111111112],[-0.027430555555555555,-0.19467447916666666],[-0.042734375,-0.19140625],[-0.060946180555555556,-0.18710069444444444],[-0.07694878472222222,-0.17948784722222222],[-0.09302951388888889,-0.17105034722222223],[-0.1054123263888889,-0.16330729166666666],[-0.11263020833333333,-0.15807291666666667],[-0.1221875,-0.15031684027777778],[-0.1361892361111111,-0.13865885416666668],[-0.14375868055555555,-0.13043836805555556],[-0.15057291666666667,-0.1215625],[-0.15704427083333333,-0.11150173611111111],[-0.1628168402777778,-0.10140625],[-0.16856336805555555,-0.09135416666666667],[-0.17432725694444445,-0.08055121527777778],[-0.17934895833333334,-0.06907118055555556],[-0.18241319444444445,-0.06174479166666667],[-0.18707465277777777,-0.05315104166666667],[-0.1912890625,-0.04653211805555556],[-0.19752604166666668,-0.0375390625],[-0.20234375,-0.0315234375],[-0.20777777777777778,-0.026631944444444444],[-0.21720920138888888,-0.019301215277777777],[-0.2221484375,-0.01592447916666667],[-0.2323263888888889,-0.009396701388888888],[-0.2369704861111111,-0.0068012152777777776],[-0.2432595486111111,-0.0039800347222222225],[-0.2486501736111111,-0.0018229166666666667],[-0.25329427083333333,-0.0007942708333333334],[-0.25793836805555553,-0.0002517361111111111],[-0.26114149305555556,0.000234375],[-0.26561631944444447,0.0006597222222222222],[-0.2676171875,0.0006597222222222222],[-0.2686458333333333,0.0010199652777777778],[-0.26895399305555556,0.0010199652777777778],[-0.26895399305555556,0.0010199652777777778]],[[0.0007204861111111111,-0.1908767361111111],[0.0007204861111111111,-0.1908767361111111],[0.0007204861111111111,-0.1908767361111111],[0.0007204861111111111,-0.1908767361111111],[0.0007204861111111111,-0.1908767361111111],[0.0007204861111111111,-0.1908767361111111],[0.0007204861111111111,-0.1908767361111111],[0.0007204861111111111,-0.1908767361111111],[0.0007204861111111111,-0.1908767361111111],[0.0007204861111111111,-0.1908767361111111],[0.0007204861111111111,-0.1908767361111111],[0.0007204861111111111,-0.1908767361111111],[0.0007204861111111111,-0.1908767361111111],[0.0007204861111111111,-0.1908767361111111],[0.00234375,-0.1882074652777778],[0.008637152777777778,-0.1825043402777778],[0.01738715277777778,-0.17374565972222222],[0.029908854166666665,-0.16203125],[0.04322482638888889,-0.15121527777777777],[0.058888888888888886,-0.1398654513888889],[0.07401041666666666,-0.13061631944444443],[0.0894357638888889,-0.12412760416666667],[0.10345052083333334,-0.11866753472222222],[0.11726128472222222,-0.11405815972222222],[0.13124131944444445,-0.11017361111111111],[0.14387586805555555,-0.10648003472222223],[0.1636284722222222,-0.10192274305555556],[0.176171875,-0.09897569444444444],[0.18764756944444444,-0.09609809027777778],[0.19907552083333332,-0.09251302083333333],[0.20562934027777777,-0.08956163194444444],[0.2176953125,-0.08355034722222222],[0.22562065972222223,-0.07825520833333334],[0.23354600694444444,-0.07230034722222223],[0.24147135416666668,-0.06568576388888889],[0.24975694444444443,-0.058051215277777776],[0.25396267361111113,-0.052222222222222225],[0.2588888888888889,-0.04554253472222222],[0.26147569444444446,-0.04144097222222222],[0.2627994791666667,-0.03878472222222222],[0.2640017361111111,-0.036783854166666664],[0.2646657986111111,-0.03574652777777778],[0.2649696180555556,-0.03501736111111111],[0.2649696180555556,-0.03470920138888889],[0.2649696180555556,-0.034440104166666666]]]",2,"[51,45]",,,,,,,,,,,,,,cave4.jpg,space,5.364865,0,12,12,20,1,boardwalk6.jpg,cave.jpg,campsite3.jpg,basketballcourt7.jpg,,
Image_List_4,,,,,,,,,,,,,,,,44601,2020-11-23_14h06.32.598,analogCatScenes,2020.1.3,MacIntel,60,"[1440,900]","[[[-0.005928819444444444,-0.1986154513888889],[-0.005928819444444444,-0.1986154513888889],[-0.005928819444444444,-0.1986154513888889],[-0.005928819444444444,-0.1986154513888889],[-0.005928819444444444,-0.1986154513888889],[-0.005928819444444444,-0.1986154513888889],[-0.005928819444444444,-0.1986154513888889],[-0.005928819444444444,-0.1986154513888889],[-0.005928819444444444,-0.1986154513888889],[-0.005928819444444444,-0.1986154513888889],[-0.005928819444444444,-0.1986154513888889],[-0.005928819444444444,-0.1986154513888889],[-0.005928819444444444,-0.19836805555555556],[-0.005928819444444444,-0.19377604166666668],[-0.005928819444444444,-0.18660590277777778],[-0.005928819444444444,-0.1775],[-0.005928819444444444,-0.16980034722222223],[-0.006592881944444445,-0.15233072916666668],[-0.008810763888888889,-0.13955729166666667],[-0.01091579861111111,-0.12789930555555556],[-0.0130859375,-0.11636284722222222],[-0.01453125,-0.10434461805555556],[-0.015980902777777778,-0.09280815972222223],[-0.016705729166666666,-0.08006944444444444],[-0.019713541666666667,-0.0552734375],[-0.0215625,-0.033328993055555554],[-0.023528645833333334,-0.008819444444444444],[-0.026414930555555556,0.01423611111111111],[-0.02822048611111111,0.03404513888888889],[-0.030729166666666665,0.050768229166666665],[-0.033255208333333335,0.059231770833333336],[-0.03509548611111111,0.06738715277777778],[-0.036779513888888886,0.07290798611111111],[-0.038172743055555555,0.07610677083333334],[-0.03853298611111111,0.0775564236111111],[-0.03895833333333333,0.07955729166666667],[-0.03895833333333333,0.0805859375],[-0.03895833333333333,0.08119791666666666],[-0.03923611111111111,0.08147569444444444],[-0.03923611111111111,0.08147569444444444],[-0.039496527777777776,0.08147569444444444],[-0.039774305555555556,0.08147569444444444]],[[0.002573784722222222,-0.19061631944444443],[0.002573784722222222,-0.19061631944444443],[0.002573784722222222,-0.19061631944444443],[0.002573784722222222,-0.19061631944444443],[0.002573784722222222,-0.19061631944444443],[0.002573784722222222,-0.19061631944444443],[0.002573784722222222,-0.19061631944444443],[0.002573784722222222,-0.19061631944444443],[0.002573784722222222,-0.19061631944444443],[0.002573784722222222,-0.19061631944444443],[0.002573784722222222,-0.19061631944444443],[0.004084201388888889,-0.19061631944444443],[0.011419270833333333,-0.19061631944444443],[0.026549479166666667,-0.19061631944444443],[0.04943142361111111,-0.19061631944444443],[0.07401475694444444,-0.18764322916666668],[0.10054253472222222,-0.18559461805555555],[0.1253298611111111,-0.18168836805555555],[0.14843315972222224,-0.1778515625],[0.17159722222222223,-0.1749045138888889],[0.19139756944444444,-0.17220052083333334],[0.20682291666666666,-0.16973524305555557],[0.219609375,-0.16744791666666667],[0.22934027777777777,-0.16612413194444445],[0.2396484375,-0.16474826388888889],[0.24678819444444444,-0.1635546875],[0.2514019097222222,-0.16253472222222223],[0.2539279513888889,-0.16168836805555556],[0.25495225694444446,-0.16065538194444445],[0.25628038194444447,-0.1600434027777778],[0.25688368055555555,-0.1600434027777778],[0.25688368055555555,-0.1600434027777778],[0.25688368055555555,-0.15977430555555555],[0.25688368055555555,-0.15918836805555556],[0.2558463541666667,-0.15815104166666666],[0.25384548611111113,-0.15699652777777778]]]",2,"[42,36]",,,,,,,,,,,,,,metroInside1.jpg,space,4.231005,0,13,13,69,1,liquorstore8.jpg,parkinglot2.jpg,livingroom.jpg,icecream2.jpg,,
Image_List_4,,,,,,,,,,,,,,,,44601,2020-11-23_14h06.32.598,analogCatScenes,2020.1.3,MacIntel,60,"[1440,900]","[[[0.0037890625,-0.1989626736111111],[0.0037890625,-0.1989626736111111],[0.0037890625,-0.1989626736111111],[0.0037890625,-0.1989626736111111],[0.0037890625,-0.1989626736111111],[0.0037890625,-0.1989626736111111],[0.0037890625,-0.1989626736111111],[0.0037890625,-0.1989626736111111],[0.0037890625,-0.1989626736111111],[0.0037890625,-0.1989626736111111],[0.0037890625,-0.1989626736111111],[0.0037890625,-0.1989626736111111],[0.0037890625,-0.1960329861111111],[0.008832465277777778,-0.18449652777777778],[0.019192708333333332,-0.16804253472222222],[0.02783420138888889,-0.1554296875],[0.04164930555555556,-0.13467447916666667],[0.053411458333333335,-0.11750434027777777],[0.06462673611111111,-0.1028342013888889],[0.07797309027777778,-0.08767795138888888],[0.09057725694444445,-0.07146267361111111],[0.10438368055555555,-0.05493489583333333],[0.11926649305555556,-0.03908420138888889],[0.13463107638888888,-0.021792534722222222],[0.15095486111111112,-0.004500868055555556],[0.17447916666666666,0.019036458333333332],[0.18936197916666667,0.03488715277777778],[0.20243489583333332,0.04880642361111111],[0.21331163194444444,0.059691840277777776],[0.21980034722222222,0.0656467013888889],[0.22706597222222222,0.07292100694444445],[0.23247395833333334,0.07833767361111112],[0.240078125,0.08516927083333334],[0.2445269097222222,0.08902777777777778],[0.2488498263888889,0.09281684027777778],[0.2515625,0.09511284722222223],[0.2530121527777778,0.09620659722222222],[0.25361979166666665,0.09651475694444445],[0.2539236111111111,0.09651475694444445],[0.2539236111111111,0.09651475694444445],[0.2539236111111111,0.09677951388888889],[0.2529166666666667,0.09705729166666667]],[[-0.008025173611111111,-0.20178819444444446],[-0.008025173611111111,-0.20178819444444446],[-0.008025173611111111,-0.20178819444444446],[-0.008025173611111111,-0.20178819444444446],[-0.008025173611111111,-0.20178819444444446],[-0.008025173611111111,-0.20178819444444446],[-0.008025173611111111,-0.20178819444444446],[-0.008025173611111111,-0.20178819444444446],[-0.00877170138888889,-0.20178819444444446],[-0.013098958333333334,-0.19854166666666667],[-0.019097222222222224,-0.19361979166666668],[-0.02623263888888889,-0.18776041666666668],[-0.04107638888888889,-0.1753342013888889],[-0.05657986111111111,-0.16409722222222223],[-0.0909375,-0.13812065972222223],[-0.11565538194444444,-0.11821614583333333],[-0.13944010416666666,-0.09767361111111111],[-0.1652126736111111,-0.07069878472222223],[-0.1976345486111111,-0.04203559027777778],[-0.22215277777777778,-0.021844618055555556],[-0.2496701388888889,-0.00009548611111111112],[-0.26165798611111113,0.009444444444444445],[-0.2723524305555556,0.018637152777777777],[-0.2802864583333333,0.02525173611111111],[-0.2846137152777778,0.029578993055555555],[-0.28802517361111113,0.03203125],[-0.2896050347222222,0.033185763888888886]]]",2,"[42,27]",,,,,,,,,,,,,,basketballcourt3.jpg,space,3.713755,0,14,14,10,1,backstage2.jpg,barbershop3.jpg,ballroom4.jpg,ATM4.jpg,,
