image_list,key_resp_intructions.keys,key_resp_intructions.rt,key_resp_intructions_3.keys,key_resp_intructions_3.rt,PracticeComplete_2.keys,PracticeComplete_2.rt,PracticeComplete_3.keys,PracticeComplete_3.rt,demo_trials.thisRepN,demo_trials.thisTrialN,demo_trials.thisN,demo_trials.thisIndex,demo_trials.ran,demo_images,path_images,participant,date,expName,psychopyVersion,OS,frameRate,windowSize,practice_complete.keys,practice_complete.rt,boxes_checked,PracticeComplete.keys,PracticeComplete.rt,practice_trials.thisRepN,practice_trials.thisTrialN,practice_trials.thisN,practice_trials.thisIndex,practice_trials.ran,practice_images,feedback_images,key_resp_intructions_2.keys,key_resp_intructions_2.rt,Image_List_2,trial_complete.keys,trial_complete.rt,trial_mouse.x,trial_mouse.y,trial_mouse.leftButton,trial_mouse.midButton,trial_mouse.rightButton,trial_mouse.time,trial_mouse.clicked_name,trials.thisRepN,trials.thisTrialN,trials.thisN,trials.thisIndex,trials.ran,Image_List_1,Image_List_3,Image_List_4,Image_List_5,key_resp.keys,key_resp.rt
Image_List_2,space,25.48431,space,4.59511,space,6.51552,space,8.135175,0,0,0,1,1,ahead_left.jpg,ahead_left_path.jpg,44613,2020-11-24_17h22.07.158,lingCatScenes,2020.1.3,MacIntel,60,,,,,,,,,,,,,,,,,,,,,,,,,,,,,,,,,,,,
Image_List_2,,,,,space,4.646785,space,2.283665,0,1,1,2,1,ahead_right.jpg,ahead_right_path.jpg,44613,2020-11-24_17h22.07.158,lingCatScenes,2020.1.3,MacIntel,60,,,,,,,,,,,,,,,,,,,,,,,,,,,,,,,,,,,,
Image_List_2,,,,,space,2.99424,space,2.57336,0,2,2,3,1,ahead_right_left.jpg,ahead_right_left_path.jpg,44613,2020-11-24_17h22.07.158,lingCatScenes,2020.1.3,MacIntel,60,,,,,,,,,,,,,,,,,,,,,,,,,,,,,,,,,,,,
Image_List_2,,,,,space,3.27516,space,1.731135,0,3,3,5,1,right.jpg,right_path.jpg,44613,2020-11-24_17h22.07.158,lingCatScenes,2020.1.3,MacIntel,60,,,,,,,,,,,,,,,,,,,,,,,,,,,,,,,,,,,,
Image_List_2,,,,,space,1.60992,space,18.94076,0,4,4,4,1,left.jpg,left_path.jpg,44613,2020-11-24_17h22.07.158,lingCatScenes,2020.1.3,MacIntel,60,,,,,,,,,,,,,,,,,,,,,,,,,,,,,,,,,,,,
Image_List_2,,,,,space,1.49634,space,0.88049,0,5,5,6,1,right_left.jpg,right_left_path.jpg,44613,2020-11-24_17h22.07.158,lingCatScenes,2020.1.3,MacIntel,60,,,,,,,,,,,,,,,,,,,,,,,,,,,,,,,,,,,,
Image_List_2,,,,,space,0.4594,space,0.344,0,6,6,0,1,ahead.jpg,ahead_path.jpg,44613,2020-11-24_17h22.07.158,lingCatScenes,2020.1.3,MacIntel,60,,,,,,,,,,,,,,,,,,,,,,,,,,,,,,,,,,,,
Image_List_2,,,,,,,,,,,,,,,,44613,2020-11-24_17h22.07.158,lingCatScenes,2020.1.3,MacIntel,60,"[1440,900]",space,0.30605,[],space,0.436365,0,0,0,0,1,ahead_2.jpg,ahead_2_path.jpg,,,,,,,,,,,,,,,,,,,,,,,
Image_List_2,,,,,,,,,,,,,,,,44613,2020-11-24_17h22.07.158,lingCatScenes,2020.1.3,MacIntel,60,"[1440,900]",space,0.328015,[],space,0.34461,0,1,1,3,1,ahead_right_left_2.jpg,ahead_right_left_2_path.jpg,,,,,,,,,,,,,,,,,,,,,,,
Image_List_2,,,,,,,,,,,,,,,,44613,2020-11-24_17h22.07.158,lingCatScenes,2020.1.3,MacIntel,60,"[1440,900]",space,0.407465,[],space,0.24079,0,2,2,4,1,left_2.jpg,left_2_path.jpg,,,,,,,,,,,,,,,,,,,,,,,
Image_List_2,,,,,,,,,,,,,,,,44613,2020-11-24_17h22.07.158,lingCatScenes,2020.1.3,MacIntel,60,"[1440,900]",space,15.445835,"[""slight_left_box"",""slight_right_box""]",space,2.53149,0,3,3,6,1,right_left_2.jpg,right_left_2_path.jpg,,,,,,,,,,,,,,,,,,,,,,,
Image_List_2,,,,,,,,,,,,,,,,44613,2020-11-24_17h22.07.158,lingCatScenes,2020.1.3,MacIntel,60,"[1440,900]",space,3.95481,"[""ahead_box""]",space,2.066925,0,4,4,1,1,ahead_left_2.jpg,ahead_left_2_path.jpg,,,,,,,,,,,,,,,,,,,,,,,
Image_List_2,,,,,,,,,,,,,,,,44613,2020-11-24_17h22.07.158,lingCatScenes,2020.1.3,MacIntel,60,"[1440,900]",space,4.056145,"[""right_box""]",space,0.758635,0,5,5,5,1,right_2.jpg,right_2_path.jpg,,,,,,,,,,,,,,,,,,,,,,,
Image_List_2,,,,,,,,,,,,,,,,44613,2020-11-24_17h22.07.158,lingCatScenes,2020.1.3,MacIntel,60,"[1440,900]",space,4.60317,"[""ahead_box"",""sharp_right_box""]",space,0.877165,0,6,6,2,1,ahead_right_2.jpg,ahead_right_2_path.jpg,,,,,,,,,,,,,,,,,,,,,,,
Image_List_2,,,,,,,,,,,,,,,,44613,2020-11-24_17h22.07.158,lingCatScenes,2020.1.3,MacIntel,60,"[1440,900]",,,"[""trial_ahead_box""]",,,,,,,,,,space,5.696125,cemetery6.jpg,space,8.36573,[0.004292534722222222],[-0.28033854166666666],[1],[0],[0],[6.650674999982584],"[""trial_ahead_box""]",0,0,0,21,1,botanicalGarden6.jpg,campusquad3.jpg,cave5.jpg,beach1.jpeg,,
Image_List_2,,,,,,,,,,,,,,,,44613,2020-11-24_17h22.07.158,lingCatScenes,2020.1.3,MacIntel,60,"[1440,900]",,,"[""trial_ahead_box""]",,,,,,,,,,,,playroom6.jpg,space,4.013195,[0.015555555555555555],[-0.315234375],[1],[0],[0],[2.345694999967236],"[""trial_ahead_box""]",0,1,1,77,1,parkinggarage2.jpg,pasture9.jpg,park8.jpg,mallindoor6.jpg,,
Image_List_2,,,,,,,,,,,,,,,,44613,2020-11-24_17h22.07.158,lingCatScenes,2020.1.3,MacIntel,60,"[1440,900]",,,"[""trial_left_box"",""trial_right_box""]",,,,,,,,,,,,banquetHall2.jpg,space,3.233565,"[-0.38137586805555557,0.40765625]","[-0.30288628472222223,-0.31302083333333336]","[1,1]","[0,0]","[0,0]","[1.9294699999736622,2.8963799999910407]","[""trial_left_box"",""trial_right_box""]",0,2,2,6,1,ATM1.jpg,auto_showroom5.jpg,baggageClaim1.jpg,apartmentBuilding3.jpg,,
Image_List_2,,,,,,,,,,,,,,,,44613,2020-11-24_17h22.07.158,lingCatScenes,2020.1.3,MacIntel,60,"[1440,900]",,,"[""trial_right_box""]",,,,,,,,,,,,hardwarestore1.jpg,space,2.267445,[0.4009982638888889],[-0.3115190972222222],[1],[0],[0],[1.9135450000176206],"[""trial_right_box""]",0,3,3,52,1,gasstation7.jpg,frontFoyer6.jpg,highway.jpg,forestpath2.jpg,,
Image_List_2,,,,,,,,,,,,,,,,44613,2020-11-24_17h22.07.158,lingCatScenes,2020.1.3,MacIntel,60,"[1440,900]",,,"[""trial_slight_left_box""]",,,,,,,,,,,,minigolf.jpg,space,3.657925,[-0.19325520833333334],[-0.3070876736111111],[1],[0],[0],[2.94662000000244],"[""trial_slight_left_box""]",0,4,4,62,1,hotellobby2.jpg,horsebarn8.jpg,lab3.jpg,hayfield7.jpg,,
Image_List_2,,,,,,,,,,,,,,,,44613,2020-11-24_17h22.07.158,lingCatScenes,2020.1.3,MacIntel,60,"[1440,900]",,,[],,,,,,,,,,,,newsstand7.jpg,space,3.44914,[0.6300607638888889],[-0.30725694444444446],[1],[0],[0],[3.0795149999903515],[],0,5,5,65,1,igloo5.jpg,laundromat2.jpeg,labClass7.jpg,homeoffice8.jpg,,
Image_List_2,,,,,,,,,,,,,,,,44613,2020-11-24_17h22.07.158,lingCatScenes,2020.1.3,MacIntel,60,"[1440,900]",,,"[""trial_ahead_box""]",,,,,,,,,,,,breakroom5.jpg,space,5.802,[0.017465277777777777],[-0.29395399305555553],[1],[0],[0],[5.3646150000276975],"[""trial_ahead_box""]",0,6,6,14,1,ballroom1.jpg,bistrooutdoor5.jpg,botanicalGarden5.jpg,ballroom3.jpg,,
Image_List_2,,,,,,,,,,,,,,,,44613,2020-11-24_17h22.07.158,lingCatScenes,2020.1.3,MacIntel,60,"[1440,900]",,,"[""trial_slight_left_box"",""trial_sharp_right_box""]",,,,,,,,,,,,casino1.jpg,space,5.947435,"[-0.19144965277777778,0.6178428819444445,0.6064756944444445]","[-0.29280381944444445,-0.33272569444444444,-0.29332465277777775]","[1,1,1]","[0,0,0]","[0,0,0]","[3.1649150000303052,4.897990000026766,5.46388500003377]","[""trial_slight_left_box"",""trial_sharp_right_box""]",0,7,7,18,1,bleachers5.jpg,brewery4.jpg,castle2.jpg,basement6.jpg,,
Image_List_2,,,,,,,,,,,,,,,,44613,2020-11-24_17h22.07.158,lingCatScenes,2020.1.3,MacIntel,60,"[1440,900]",,,"[""trial_sharp_left_box"",""trial_left_box"",""trial_slight_left_box"",""trial_ahead_box"",""trial_slight_right_box"",""trial_right_box"",""trial_sharp_right_box""]",,,,,,,,,,,,playground6.jpg,space,10.1307,"[-0.5746223958333333,-0.6067491319444445,-0.36256510416666665,-0.4123307291666667,-0.16157118055555555,-0.215703125,0.0007855902777777777,0.20814670138888888,0.4501736111111111,0.3858506944444444,0.5961631944444444]","[-0.28760850694444445,-0.3056857638888889,-0.2913324652777778,-0.2930598958333333,-0.2940364583333333,-0.29553385416666667,-0.29506510416666665,-0.28063802083333333,-0.29640625,-0.28953993055555555,-0.28539930555555554]","[1,1,1,1,1,1,1,1,1,1,1]","[0,0,0,0,0,0,0,0,0,0,0]","[0,0,0,0,0,0,0,0,0,0,0]","[2.611674999992829,3.32839999999851,3.978830000036396,4.462525000039022,5.245010000013281,5.744839999999385,6.478850000014063,7.261854999989737,7.928355000040028,8.445464999997057,9.361845000006724]","[""trial_sharp_left_box"",""trial_left_box"",""trial_slight_left_box"",""trial_ahead_box"",""trial_slight_right_box"",""trial_right_box"",""trial_sharp_right_box""]",0,8,8,75,1,pantry5.jpg,operatingroom4.jpg,park.jpg,lockerroom.jpg,,
Image_List_2,,,,,,,,,,,,,,,,44613,2020-11-24_17h22.07.158,lingCatScenes,2020.1.3,MacIntel,60,"[1440,900]",,,"[""trial_right_box"",""trial_sharp_right_box"",""trial_slight_right_box""]",,,,,,,,,,,,conference3.jpg,space,8.13111,"[0.40987847222222223,0.5867751736111111,0.2222265625]","[-0.3171527777777778,-0.3065321180555556,-0.29400607638888887]","[1,1,1]","[0,0,0]","[0,0,0]","[4.9642649999586865,6.2634199999738485,7.846870000008494]","[""trial_right_box"",""trial_sharp_right_box"",""trial_slight_right_box""]",0,9,9,25,1,campsite7.jpg,church3.jpg,checkoutcounter2.jpg,botanicalGarden4.jpg,,
Image_List_2,,,,,,,,,,,,,,,,44613,2020-11-24_17h22.07.158,lingCatScenes,2020.1.3,MacIntel,60,"[1440,900]",,,"[""trial_ahead_box""]",,,,,,,,,,,,parkinglot2.jpg,space,1.613965,[-0.014713541666666666],[-0.29147569444444443],[1],[0],[0],[1.1962599999969825],"[""trial_ahead_box""]",0,10,10,69,1,liquorstore8.jpg,livingroom.jpg,metroInside1.jpg,icecream2.jpg,,
Image_List_2,,,,,,,,,,,,,,,,44613,2020-11-24_17h22.07.158,lingCatScenes,2020.1.3,MacIntel,60,"[1440,900]",,,"[""trial_ahead_box"",""trial_slight_right_box"",""trial_right_box"",""trial_sharp_right_box""]",,,,,,,,,,,,volleyballcourt.jpg,space,5.177555,"[-0.02763454861111111,0.137578125,-0.0126953125,0.1845095486111111,0.39436197916666665,0.6037413194444444]","[-0.29541232638888887,-0.2981770833333333,-0.30376736111111113,-0.3076215277777778,-0.3047048611111111,-0.3024001736111111]","[1,1,1,1,1,1]","[0,0,0,0,0,0]","[0,0,0,0,0,0]","[1.1943150000297464,1.8778199999942444,2.9442150000249967,3.5272649999824353,4.2276050000218675,4.8786500000278465]","[""trial_ahead_box"",""trial_slight_right_box"",""trial_right_box"",""trial_sharp_right_box""]",0,11,11,92,1,staircase.jpg,skatepark7.jpg,tvstudio2.jpg,soccerfield2.jpg,,
Image_List_2,,,,,,,,,,,,,,,,44613,2020-11-24_17h22.07.158,lingCatScenes,2020.1.3,MacIntel,60,"[1440,900]",,,"[""trial_ahead_box""]",,,,,,,,,,,,bambooforest.jpg,space,1.94988,[-0.0018359375],[-0.3192404513888889],[1],[0],[0],[1.2306899999966845],"[""trial_ahead_box""]",0,12,12,5,1,artStudio3.jpg,auto_showroom4.jpg,attic4.jpg,amusement3.jpg,,
Image_List_2,,,,,,,,,,,,,,,,44613,2020-11-24_17h22.07.158,lingCatScenes,2020.1.3,MacIntel,60,"[1440,900]",,,"[""trial_slight_left_box""]",,,,,,,,,,,,farm3.jpg,space,3.264905,[-0.2186328125],[-0.30578993055555553],[1],[0],[0],[2.5643849999760278],"[""trial_slight_left_box""]",0,13,13,41,1,dugout4.jpg,drymountains3.jpg,fabricstore1.jpg,dentist2.jpg,,
Image_List_2,,,,,,,,,,,,,,,,44613,2020-11-24_17h22.07.158,lingCatScenes,2020.1.3,MacIntel,60,"[1440,900]",,,"[""trial_sharp_left_box"",""trial_left_box"",""trial_slight_left_box"",""trial_ahead_box"",""trial_slight_right_box"",""trial_right_box"",""trial_sharp_right_box""]",,,,,,,,,,,,stripmall.jpg,space,6.948975,"[-0.5899739583333333,-0.4111284722222222,-0.18318576388888888,0.025924479166666667,-0.0030555555555555557,0.185,0.39891927083333334,0.6161328125]","[-0.2809418402777778,-0.3055859375,-0.3138671875,-0.30911024305555557,-0.29028645833333333,-0.2908203125,-0.3075347222222222,-0.30515625]","[1,1,1,1,1,1,1,1]","[0,0,0,0,0,0,0,0]","[0,0,0,0,0,0,0,0]","[2.19627000001492,2.881524999975227,3.5472650000010617,4.129544999974314,4.713050000020303,5.329714999999851,5.997280000010505,6.64658000000054]","[""trial_sharp_left_box"",""trial_left_box"",""trial_slight_left_box"",""trial_ahead_box"",""trial_slight_right_box"",""trial_right_box"",""trial_sharp_right_box""]",0,14,14,86,1,restaurant14.jpg,ruralroad3.jpg,sandDunes_desert_outdoor8.jpg,rooftop4.jpg,,
Image_List_2,,,,,,,,,,,,,,,,44613,2020-11-24_17h22.07.158,lingCatScenes,2020.1.3,MacIntel,60,"[1440,900]",,,"[""trial_slight_left_box"",""trial_left_box""]",,,,,,,,,,,,eyeglassstore9.jpg,space,2.47709,"[-0.1922092013888889,-0.38665364583333334]","[-0.3118446180555556,-0.2967751736111111]","[1,1]","[0,0]","[0,0]","[1.5619150000275113,2.1461850000196137]","[""trial_slight_left_box"",""trial_left_box""]",0,15,15,39,1,driveway6.jpg,drycleaners6.jpg,drymountains5.jpg,cliff5.jpg,,
Image_List_2,,,,,,,,,,,,,,,,44613,2020-11-24_17h22.07.158,lingCatScenes,2020.1.3,MacIntel,60,"[1440,900]",,,"[""trial_slight_right_box"",""trial_right_box""]",,,,,,,,,,,,waitingroom3.jpg,space,3.49344,"[0.17073350694444445,0.22316840277777777,0.38860243055555554]","[-0.3098263888888889,-0.3082595486111111,-0.30362413194444443]","[1,1,1]","[0,0,0]","[0,0,0]","[1.2804699999978766,1.9475099999690428,2.6134199999505654]","[""trial_slight_right_box"",""trial_right_box""]",0,16,16,94,1,treehouse.jpg,staircase6.jpg,weightroom.jpg,trainStation3.jpg,,
Image_List_2,,,,,,,,,,,,,,,,44613,2020-11-24_17h22.07.158,lingCatScenes,2020.1.3,MacIntel,60,"[1440,900]",,,"[""trial_right_box"",""trial_ahead_box""]",,,,,,,,,,,,gasstation8.jpg,space,39.584235,"[0.41240885416666667,0.012517361111111111]","[-0.3058767361111111,-0.3125390625]","[1,1]","[0,0]","[0,0]","[36.20840000000317,39.05788500001654]","[""trial_right_box"",""trial_ahead_box""]",0,17,17,47,1,frontDoor.jpg,firestation4.jpg,fountain7.jpg,elevatorOutside2.jpg,,
Image_List_2,,,,,,,,,,,,,,,,44613,2020-11-24_17h22.07.158,lingCatScenes,2020.1.3,MacIntel,60,"[1440,900]",,,"[""trial_right_box""]",,,,,,,,,,,,hut3.jpg,space,2.60404,[0.40368489583333333],[-0.3146571180555556],[1],[0],[0],[1.978449999995064],"[""trial_right_box""]",0,18,18,56,1,grocerystore5.jpg,golfcourse10.jpg,hut1.jpg,gasstation2.jpg,,
Image_List_2,,,,,,,,,,,,,,,,44613,2020-11-24_17h22.07.158,lingCatScenes,2020.1.3,MacIntel,60,"[1440,900]",,,"[""trial_right_box""]",,,,,,,,,,,,bedroom6.jpg,space,5.03596,[0.40053819444444444],[-0.3064626736111111],[1],[0],[0],[3.916670000005979],"[""trial_right_box""]",0,19,19,12,1,baggageClaim4.jpg,bambooforest5.jpg,bleachers7.jpg,backyard5.jpg,,
Image_List_2,,,,,,,,,,,,,,,,44613,2020-11-24_17h22.07.158,lingCatScenes,2020.1.3,MacIntel,60,"[1440,900]",,,"[""trial_sharp_left_box"",""trial_left_box"",""trial_slight_left_box"",""trial_ahead_box"",""trial_slight_right_box"",""trial_right_box"",""trial_sharp_right_box""]",,,,,,,,,,,,sandDunes_desert_outdoor9.jpg,space,8.04647,"[-0.599296875,-0.37559461805555555,-0.20370225694444444,-0.003576388888888889,0.23401475694444446,0.2044357638888889,0.4313454861111111,0.41432725694444444,0.5823350694444445]","[-0.2853602430555556,-0.3076953125,-0.2984114583333333,-0.32116319444444447,-0.30539496527777776,-0.2947873263888889,-0.2798046875,-0.28327256944444446,-0.2909765625]","[1,1,1,1,1,1,1,1,1]","[0,0,0,0,0,0,0,0,0]","[0,0,0,0,0,0,0,0,0]","[1.9805749999941327,2.6965049999998882,3.563689999980852,4.463204999978188,5.146720000018831,5.680164999968838,6.329889999993611,6.796465000021271,7.4296399999875575]","[""trial_sharp_left_box"",""trial_left_box"",""trial_slight_left_box"",""trial_ahead_box"",""trial_slight_right_box"",""trial_right_box"",""trial_sharp_right_box""]",0,20,20,82,1,publicrestroom2.jpg,promenadeDeck3.jpg,readingroom4.jpg,postoffice4.jpg,,
Image_List_2,,,,,,,,,,,,,,,,44613,2020-11-24_17h22.07.158,lingCatScenes,2020.1.3,MacIntel,60,"[1440,900]",,,"[""trial_ahead_box"",""trial_right_box""]",,,,,,,,,,,,hotelRoom3.jpg,space,4.342975,"[0.17480902777777776,0.012413194444444444,0.40999131944444445]","[-0.3151388888888889,-0.30289930555555555,-0.2972005208333333]","[1,1,1]","[0,0,0]","[0,0,0]","[1.4294450000161305,3.028394999972079,4.012525000027381]","[""trial_ahead_box"",""trial_right_box""]",0,21,21,55,1,greenmountains.jpg,gazebo5.jpg,hotelRoom7.jpg,frontLawn2.jpg,,
Image_List_2,,,,,,,,,,,,,,,,44613,2020-11-24_17h22.07.158,lingCatScenes,2020.1.3,MacIntel,60,"[1440,900]",,,"[""trial_ahead_box"",""trial_slight_right_box"",""trial_right_box""]",,,,,,,,,,,,playroom4.jpg,space,4.113825,"[0.027217881944444446,0.009869791666666667,0.18483506944444444,0.41663194444444446]","[-0.2634939236111111,-0.29140190972222224,-0.30203559027777777,-0.29303385416666666]","[1,1,1,1]","[0,0,0,0]","[0,0,0,0]","[1.5966950000147335,2.1463950000470504,2.778805000009015,3.73041000001831]","[""trial_ahead_box"",""trial_slight_right_box"",""trial_right_box""]",0,22,22,76,1,parkinggarage.jpg,parkinggarage3.jpg,park2.jpg,lookout4.jpg,,
Image_List_2,,,,,,,,,,,,,,,,44613,2020-11-24_17h22.07.158,lingCatScenes,2020.1.3,MacIntel,60,"[1440,900]",,,"[""trial_ahead_box"",""trial_slight_right_box"",""trial_right_box"",""trial_sharp_right_box""]",,,,,,,,,,,,playground10.jpg,space,4.546125,"[0.007209201388888889,0.2168923611111111,0.41413194444444446,0.591015625]","[-0.27694010416666665,-0.29678819444444443,-0.29313368055555555,-0.29799479166666665]","[1,1,1,1]","[0,0,0,0]","[0,0,0,0]","[1.6309550000005402,2.529065000009723,3.496500000008382,4.145820000034291]","[""trial_ahead_box"",""trial_slight_right_box"",""trial_right_box"",""trial_sharp_right_box""]",0,23,23,74,1,newsstand2.jpg,observatory4.jpeg,operatingroom1.jpg,lightingstore2.jpg,,
Image_List_2,,,,,,,,,,,,,,,,44613,2020-11-24_17h22.07.158,lingCatScenes,2020.1.3,MacIntel,60,"[1440,900]",,,"[""trial_sharp_left_box"",""trial_left_box"",""trial_slight_left_box"",""trial_ahead_box"",""trial_slight_right_box"",""trial_right_box"",""trial_sharp_right_box""]",,,,,,,,,,,,parkinglot.jpg,space,8.29239,"[-0.6121831597222223,-0.39728732638888886,-0.19470052083333333,0.0122265625,0.21621527777777777,0.3977517361111111,0.5989583333333334]","[-0.2994791666666667,-0.2959114583333333,-0.31237413194444447,-0.3179079861111111,-0.2953515625,-0.3036284722222222,-0.29641927083333336]","[1,1,1,1,1,1,1]","[0,0,0,0,0,0,0]","[0,0,0,0,0,0,0]","[1.9629399999976158,2.6796000000322238,3.3626599999843165,4.096124999981839,5.179234999988694,5.980284999997821,6.812080000003334]","[""trial_sharp_left_box"",""trial_left_box"",""trial_slight_left_box"",""trial_ahead_box"",""trial_slight_right_box"",""trial_right_box"",""trial_sharp_right_box""]",0,24,24,68,1,liquorstore7.jpg,lightingstore4.jpg,lockerroom2.jpg,hospitalroom3.jpg,,
Image_List_2,,,,,,,,,,,,,,,,44613,2020-11-24_17h22.07.158,lingCatScenes,2020.1.3,MacIntel,60,"[1440,900]",,,"[""trial_ahead_box""]",,,,,,,,,,,,dock3.jpg,space,3.129105,[-0.0057074652777777775],[-0.32070746527777777],[1],[0],[0],[1.778519999992568],"[""trial_ahead_box""]",0,25,25,35,1,deck5.jpg,cubicle7.jpg,dining_car6.jpg,carmechanic2.jpg,,
Image_List_2,,,,,,,,,,,,,,,,44613,2020-11-24_17h22.07.158,lingCatScenes,2020.1.3,MacIntel,60,"[1440,900]",,,"[""trial_ahead_box""]",,,,,,,,,,,,track5.jpg,space,3.6493,[0.02228298611111111],[-0.2870703125],[1],[0],[0],[3.080309999990277],"[""trial_ahead_box""]",0,26,26,89,1,ruralroad7.jpg,ShowJumping7.jpg,staircase7.jpg,sculpturegarden3.jpg,,
Image_List_2,,,,,,,,,,,,,,,,44613,2020-11-24_17h22.07.158,lingCatScenes,2020.1.3,MacIntel,60,"[1440,900]",,,"[""trial_ahead_box""]",,,,,,,,,,,,lightingstore3.jpg,space,2.179285,[0.013355034722222223],[-0.2912890625],[1],[0],[0],[1.564089999999851],"[""trial_ahead_box""]",0,27,27,60,1,hometheater2.jpg,homegarage.jpg,kindergarten_classroom6.jpg,hallway.jpg,,
Image_List_2,,,,,,,,,,,,,,,,44613,2020-11-24_17h22.07.158,lingCatScenes,2020.1.3,MacIntel,60,"[1440,900]",,,"[""trial_right_box""]",,,,,,,,,,,,hallway5.jpg,space,3.09913,[0.4120269097222222],[-0.3080598958333333],[1],[0],[0],[1.8449750000145286],"[""trial_right_box""]",0,28,28,51,1,gasstation6.jpg,frontDoor5.jpg,hayfield4.jpg,firestation5.jpg,,
Image_List_2,,,,,,,,,,,,,,,,44613,2020-11-24_17h22.07.158,lingCatScenes,2020.1.3,MacIntel,60,"[1440,900]",,,"[""trial_ahead_box""]",,,,,,,,,,,,pavilion.jpg,space,6.58448,"[-0.0031901041666666666,0.21750868055555556]","[-0.283046875,-0.2697265625]","[1,1]","[0,0]","[0,0]","[1.3812950000283308,1.947020000021439]","[""trial_ahead_box""]",0,29,29,70,1,lockerroom4.jpg,lockerroom3.jpg,minigolf8.jpg,igloo.jpg,,
Image_List_2,,,,,,,,,,,,,,,,44613,2020-11-24_17h22.07.158,lingCatScenes,2020.1.3,MacIntel,60,"[1440,900]",,,"[""trial_slight_left_box"",""trial_sharp_left_box""]",,,,,,,,,,,,forestpath10.jpg,space,6.844065,"[-0.19842881944444443,-0.5850520833333334]","[-0.29143663194444447,-0.2985546875]","[1,1]","[0,0]","[0,0]","[2.5446349999983795,6.494709999999031]","[""trial_slight_left_box"",""trial_sharp_left_box""]",0,30,30,43,1,exerciseequipment5.jpg,dugout2.jpg,foodcourt.jpg,diningroom3.jpg,,
Image_List_2,,,,,,,,,,,,,,,,44613,2020-11-24_17h22.07.158,lingCatScenes,2020.1.3,MacIntel,60,"[1440,900]",,,"[""trial_right_box""]",,,,,,,,,,,,poolhall2.jpeg,space,2.11609,[0.394140625],[-0.3169574652777778],[1],[0],[0],[1.6301050000474788],"[""trial_right_box""]",0,31,31,79,1,pasture.jpg,playground9.jpg,pier2.jpg,observatory2.jpg,,
Image_List_2,,,,,,,,,,,,,,,,44613,2020-11-24_17h22.07.158,lingCatScenes,2020.1.3,MacIntel,60,"[1440,900]",,,"[""trial_sharp_right_box""]",,,,,,,,,,,,racecarcourse2.jpg,space,4.762135,[0.5953515625],[-0.30866753472222225],[1],[0],[0],[4.462475000007544],"[""trial_sharp_right_box""]",0,32,32,80,1,pavilion2.jpg,porch.jpg,poolhall5.jpg,parkinggarage4.jpg,,
Image_List_2,,,,,,,,,,,,,,,,44613,2020-11-24_17h22.07.158,lingCatScenes,2020.1.3,MacIntel,60,"[1440,900]",,,"[""trial_right_box""]",,,,,,,,,,,,trainStation5.jpg,space,2.679105,[0.42102430555555553],[-0.2881944444444444],[1],[0],[0],[2.0976600000285544],"[""trial_right_box""]",0,33,33,91,1,shoestore2.jpg,skatepark5.jpg,ticket_counter6.jpg,sidewalk3.jpg,,
Image_List_2,,,,,,,,,,,,,,,,44613,2020-11-24_17h22.07.158,lingCatScenes,2020.1.3,MacIntel,60,"[1440,900]",,,"[""trial_ahead_box""]",,,,,,,,,,,,warehouse2.jpg,space,3.66662,[-0.010030381944444444],[-0.31590711805555555],[1],[0],[0],[1.1973500000312924],"[""trial_ahead_box""]",0,34,34,95,1,waitingroom2.jpg,stripmall6.jpg,weightroom4.jpg,tvstudio3.jpg,,
Image_List_2,,,,,,,,,,,,,,,,44613,2020-11-24_17h22.07.158,lingCatScenes,2020.1.3,MacIntel,60,"[1440,900]",,,"[""trial_slight_left_box"",""trial_left_box""]",,,,,,,,,,,,office3.jpg,space,4.081,"[-0.21937934027777778,-0.4013671875]","[-0.29541232638888887,-0.29899739583333335]","[1,1]","[0,0]","[0,0]","[2.1786550000542775,3.011980000010226]","[""trial_slight_left_box"",""trial_left_box""]",0,35,35,66,1,library_aisle10.jpg,laundromat3.jpg,liquorstore.jpg,horsebarn9.jpg,,
Image_List_2,,,,,,,,,,,,,,,,44613,2020-11-24_17h22.07.158,lingCatScenes,2020.1.3,MacIntel,60,"[1440,900]",,,"[""trial_ahead_box"",""trial_slight_right_box"",""trial_right_box""]",,,,,,,,,,,,banquetHall6.jpg,space,3.729105,"[0.0028819444444444444,0.21483072916666668,0.4302170138888889,0.4070703125]","[-0.3084027777777778,-0.29443576388888887,-0.29592447916666664,-0.2940842013888889]","[1,1,1,1]","[0,0,0,0]","[0,0,0,0]","[1.1480599999777041,1.7968000000109896,2.4472050000331365,3.1810200000181794]","[""trial_ahead_box"",""trial_slight_right_box"",""trial_right_box""]",0,36,36,8,1,attic3.jpg,balconyIN.jpg,bar.jpg,applestore4.jpg,,
Image_List_2,,,,,,,,,,,,,,,,44613,2020-11-24_17h22.07.158,lingCatScenes,2020.1.3,MacIntel,60,"[1440,900]",,,"[""trial_ahead_box"",""trial_slight_right_box"",""trial_right_box""]",,,,,,,,,,,,church6.jpg,space,4.667175,"[0.025967881944444444,0.0159765625,0.19462239583333332,0.395546875]","[-0.30365017361111113,-0.293828125,-0.30072048611111113,-0.31375434027777777]","[1,1,1,1]","[0,0,0,0]","[0,0,0,0]","[1.8289599999552593,2.445789999968838,3.0954649999621324,3.978914999985136]","[""trial_ahead_box"",""trial_slight_right_box"",""trial_right_box""]",0,37,37,22,1,bowlingalley5.jpg,cargo5.jpg,cemetery.jpg,bistrooutdoor6.jpg,,
Image_List_2,,,,,,,,,,,,,,,,44613,2020-11-24_17h22.07.158,lingCatScenes,2020.1.3,MacIntel,60,"[1440,900]",,,"[""trial_sharp_right_box"",""trial_sharp_left_box""]",,,,,,,,,,,,greenhouse5.jpg,space,7.86623,"[0.6038541666666667,-0.5663845486111111,-0.6056510416666666]","[-0.29451822916666665,-0.3159548611111111,-0.27514756944444446]","[1,1,1]","[0,0,0]","[0,0,0]","[5.213815000024624,6.662335000000894,7.229475000000093]","[""trial_sharp_right_box"",""trial_sharp_left_box""]",0,38,38,49,1,frontDoor3.jpg,flowershop3.jpg,greenhouse.jpg,farm2.jpg,,
Image_List_2,,,,,,,,,,,,,,,,44613,2020-11-24_17h22.07.158,lingCatScenes,2020.1.3,MacIntel,60,"[1440,900]",,,"[""trial_sharp_left_box"",""trial_sharp_right_box""]",,,,,,,,,,,,newsstand5.jpg,space,5.325725,"[-0.5928125,0.6353732638888889,0.6172309027777778]","[-0.297109375,-0.3188888888888889,-0.29714409722222224]","[1,1,1]","[0,0,0]","[0,0,0]","[3.312789999996312,4.496114999987185,5.029689999995753]","[""trial_sharp_left_box"",""trial_sharp_right_box""]",0,39,39,64,1,igloo2.jpg,jewelrystore8.jpg,lab5.jpg,homegarage2.jpg,,
Image_List_2,,,,,,,,,,,,,,,,44613,2020-11-24_17h22.07.158,lingCatScenes,2020.1.3,MacIntel,60,"[1440,900]",,,"[""trial_sharp_right_box""]",,,,,,,,,,,,baggageClaim2.jpg,space,4.64761,"[0.20242621527777777,0.20553385416666667,0.6112717013888889]","[-0.3039366319444444,-0.3111545138888889,-0.2901736111111111]","[1,1,1]","[0,0,0]","[0,0,0]","[1.7114200000069104,3.3629450000007637,4.145659999980126]","[""trial_slight_right_box"",""trial_slight_right_box"",""trial_sharp_right_box""]",0,40,40,4,1,artStudio1.jpg,auto_showroom1.jpg,appleorchard3.jpg,alley4.jpg,,
Image_List_2,,,,,,,,,,,,,,,,44613,2020-11-24_17h22.07.158,lingCatScenes,2020.1.3,MacIntel,60,"[1440,900]",,,"[""trial_left_box""]",,,,,,,,,,,,diner12.jpg,space,2.53301,[-0.38430989583333336],[-0.2916753472222222],[1],[0],[0],[1.763295000011567],"[""trial_left_box""]",0,41,41,32,1,dancestudio6.jpg,constructionSite2.jpg,dentist4.jpg,cabin4.jpg,,
Image_List_2,,,,,,,,,,,,,,,,44613,2020-11-24_17h22.07.158,lingCatScenes,2020.1.3,MacIntel,60,"[1440,900]",,,"[""trial_ahead_box""]",,,,,,,,,,,,wineVineyard8.jpg,space,1.87755,[-0.01578125],[-0.3070095486111111],[1],[0],[0],[1.3295800000196323],"[""trial_ahead_box""]",0,42,42,98,1,weightroom5.jpg,warehouse3.jpg,winebarrel4.jpg,winebarrel2.jpg,,
Image_List_2,,,,,,,,,,,,,,,,44613,2020-11-24_17h22.07.158,lingCatScenes,2020.1.3,MacIntel,60,"[1440,900]",,,"[""trial_left_box""]",,,,,,,,,,,,horsebarn11.jpg,space,2.47887,"[-0.43932725694444447,-0.40328993055555556]","[-0.320859375,-0.3083984375]","[1,1]","[0,0]","[0,0]","[1.6455600000335835,2.196005000034347]","[""trial_left_box""]",0,43,43,54,1,greenhouse2.jpg,gazebo2.jpg,homegarage4.jpg,frontFoyer.jpg,,
Image_List_2,,,,,,,,,,,,,,,,44613,2020-11-24_17h22.07.158,lingCatScenes,2020.1.3,MacIntel,60,"[1440,900]",,,"[""trial_left_box""]",,,,,,,,,,,,casino3.jpg,space,4.83023,[-0.39383246527777777],[-0.2948003472222222],[1],[0],[0],[4.4614000000292435],"[""trial_left_box""]",0,44,44,19,1,boardwalk2.jpg,cafeteria1.jpg,castle4.jpg,basketballcourt.jpg,,
Image_List_2,,,,,,,,,,,,,,,,44613,2020-11-24_17h22.07.158,lingCatScenes,2020.1.3,MacIntel,60,"[1440,900]",,,"[""trial_ahead_box"",""trial_slight_right_box""]",,,,,,,,,,,,elevatorOutside4.jpg,space,2.628525,"[-0.007122395833333333,0.20154947916666666]","[-0.31067274305555553,-0.3028559027777778]","[1,1]","[0,0]","[0,0]","[1.4128749999799766,2.3300649999873713]","[""trial_ahead_box"",""trial_slight_right_box""]",0,45,45,38,1,dining_car2.jpg,dock1.jpg,driveway8.jpg,classroom1.jpg,,
Image_List_2,,,,,,,,,,,,,,,,44613,2020-11-24_17h22.07.158,lingCatScenes,2020.1.3,MacIntel,60,"[1440,900]",,,"[""trial_ahead_box"",""trial_slight_right_box"",""trial_right_box"",""trial_sharp_right_box"",""trial_slight_left_box"",""trial_left_box"",""trial_sharp_left_box""]",,,,,,,,,,,,dancestudio5.jpg,space,8.04605,"[-0.029427083333333333,-0.007508680555555556,0.22057725694444444,0.39545572916666666,0.5448871527777778,0.6190494791666666,-0.17848958333333334,-0.40444444444444444,-0.5603211805555556,-0.5901909722222223]","[-0.3033723958333333,-0.31038194444444445,-0.294140625,-0.2964236111111111,-0.3006640625,-0.3050564236111111,-0.3072960069444444,-0.3047960069444444,-0.2918706597222222,-0.2918706597222222]","[1,1,1,1,1,1,1,1,1,1]","[0,0,0,0,0,0,0,0,0,0]","[0,0,0,0,0,0,0,0,0,0]","[1.4453150000190362,2.0619650000007823,3.0123500000336207,3.661500000045635,4.279495000024326,4.761679999995977,5.595585000002757,6.229165000026114,6.82856500003254,7.3114000000059605]","[""trial_ahead_box"",""trial_slight_right_box"",""trial_right_box"",""trial_sharp_right_box"",""trial_slight_left_box"",""trial_left_box"",""trial_sharp_left_box""]",0,46,46,28,1,churchInside1.jpg,citystreet10.jpg,clothingstore5.jpg,bridalboutique2.jpg,,
Image_List_2,,,,,,,,,,,,,,,,44613,2020-11-24_17h22.07.158,lingCatScenes,2020.1.3,MacIntel,60,"[1440,900]",,,"[""trial_ahead_box""]",,,,,,,,,,,,cave.jpg,space,3.12936,[-0.014704861111111111],[-0.3059939236111111],[1],[0],[0],[2.445869999995921],"[""trial_ahead_box""]",0,47,47,20,1,boardwalk6.jpg,campsite3.jpg,cave4.jpg,basketballcourt7.jpg,,
Image_List_2,,,,,,,,,,,,,,,,44613,2020-11-24_17h22.07.158,lingCatScenes,2020.1.3,MacIntel,60,"[1440,900]",,,"[""trial_ahead_box"",""trial_slight_left_box"",""trial_slight_right_box""]",,,,,,,,,,,,frontFoyer4.jpg,space,4.06242,"[-0.014704861111111111,-0.17951822916666665,0.19934027777777777]","[-0.3059939236111111,-0.31178819444444444,-0.3034852430555556]","[1,1,1]","[0,0,0]","[0,0,0]","[1.962679999996908,2.6959849999984726,3.714224999945145]","[""trial_ahead_box"",""trial_slight_left_box"",""trial_slight_right_box""]",0,48,48,44,1,firestation2.jpg,elevatorOutside1.jpg,foodcourt6.jpg,dock2.jpg,,
Image_List_2,,,,,,,,,,,,,,,,44613,2020-11-24_17h22.07.158,lingCatScenes,2020.1.3,MacIntel,60,"[1440,900]",,,"[""trial_ahead_box"",""trial_slight_right_box""]",,,,,,,,,,,,yogastudio4.jpg,space,2.4127,"[0.005603298611111111,0.18532552083333334]","[-0.2876605902777778,-0.2795095486111111]","[1,1]","[0,0]","[0,0]","[1.295719999994617,1.9957949999952689]","[""trial_ahead_box"",""trial_slight_right_box""]",0,49,49,99,1,wineVineyard9.jpg,windmill2.jpg,wrestlingring7.jpg,yogastudio1.jpg,,
Image_List_2,,,,,,,,,,,,,,,,44613,2020-11-24_17h22.07.158,lingCatScenes,2020.1.3,MacIntel,60,"[1440,900]",,,"[""trial_left_box"",""trial_ahead_box""]",,,,,,,,,,,,attic1.jpg,space,5.46156,"[-0.3761067708333333,-0.015989583333333335]","[-0.29296006944444447,-0.29933159722222225]","[1,1]","[0,0]","[0,0]","[3.143849999993108,4.478359999950044]","[""trial_left_box"",""trial_ahead_box""]",0,50,50,3,1,apartmentBuilding2.jpg,aquarium1.jpg,appleorchard2.jpg,alley3.jpg,,
Image_List_2,,,,,,,,,,,,,,,,44613,2020-11-24_17h22.07.158,lingCatScenes,2020.1.3,MacIntel,60,"[1440,900]",,,"[""trial_ahead_box""]",,,,,,,,,,,,cornfield4.jpg,space,2.281065,[0.007252604166666667],[-0.3198003472222222],[1],[0],[0],[1.4296249999897555],"[""trial_ahead_box""]",0,51,51,26,1,campusquad2.jpg,church4.jpg,churchInside3.jpg,botanicalGarden7.jpg,,
Image_List_2,,,,,,,,,,,,,,,,44613,2020-11-24_17h22.07.158,lingCatScenes,2020.1.3,MacIntel,60,"[1440,900]",,,"[""trial_left_box"",""trial_slight_left_box"",""trial_ahead_box""]",,,,,,,,,,,,sculpturegarden1.jpg,space,7.525565,"[-0.3922309027777778,-0.21376302083333334,-0.012426215277777777]","[-0.29856770833333335,-0.2794140625,-0.3084939236111111]","[1,1,1]","[0,0,0]","[0,0,0]","[2.2953449999913573,5.061555000022054,7.161390000022948]","[""trial_left_box"",""trial_slight_left_box"",""trial_ahead_box""]",0,52,52,83,1,readingroom1.jpg,promenadeDeck6.jpg,restaurant8.jpg,readingroom2.jpg,,
Image_List_2,,,,,,,,,,,,,,,,44613,2020-11-24_17h22.07.158,lingCatScenes,2020.1.3,MacIntel,60,"[1440,900]",,,"[""trial_ahead_box""]",,,,,,,,,,,,park7.jpg,space,3.325245,[-0.012426215277777777],[-0.3084939236111111],[1],[0],[0],[3.0116699999780394],"[""trial_ahead_box""]",0,53,53,67,1,library_aisle3.jpg,laundromat4.jpg,liquorstore2.jpg,hospitalroom2.jpg,,
Image_List_2,,,,,,,,,,,,,,,,44613,2020-11-24_17h22.07.158,lingCatScenes,2020.1.3,MacIntel,60,"[1440,900]",,,"[""trial_right_box"",""trial_left_box""]",,,,,,,,,,,,diningroom5.jpg,space,3.7088,"[0.36671875,0.3784895833333333,-0.39739583333333334]","[-0.30948350694444443,-0.3188845486111111,-0.3228255208333333]","[1,1,1]","[0,0,0]","[0,0,0]","[1.3277949999901466,1.8957250000094064,3.0613199999788776]","[""trial_right_box"",""trial_left_box""]",0,54,54,34,1,deck4.jpg,courthouse4.jpg,diner11.jpg,campusquad1.jpg,,
Image_List_2,,,,,,,,,,,,,,,,44613,2020-11-24_17h22.07.158,lingCatScenes,2020.1.3,MacIntel,60,"[1440,900]",,,"[""trial_left_box""]",,,,,,,,,,,,museum6.jpg,space,2.646005,[-0.38484375],[-0.3066796875],[1],[0],[0],[1.1127400000113994],"[""trial_left_box""]",0,55,55,63,1,hut2.jpg,hotelRoom2.jpg,lab4.jpg,highway2.jpg,,
Image_List_2,,,,,,,,,,,,,,,,44613,2020-11-24_17h22.07.158,lingCatScenes,2020.1.3,MacIntel,60,"[1440,900]",,,"[""trial_left_box"",""trial_ahead_box"",""trial_right_box""]",,,,,,,,,,,,pavilion5.jpg,space,5.21413,"[-0.3853081597222222,0.01521701388888889,0.38686631944444444]","[-0.31004340277777775,-0.3111762152777778,-0.3108854166666667]","[1,1,1]","[0,0,0]","[0,0,0]","[1.8284449999919161,3.6436849999590777,4.944409999996424]","[""trial_left_box"",""trial_ahead_box"",""trial_right_box""]",0,56,56,71,1,metroInside2.jpg,metroInside3.jpg,museum3.jpg,jewelrystore.jpg,,
Image_List_2,,,,,,,,,,,,,,,,44613,2020-11-24_17h22.07.158,lingCatScenes,2020.1.3,MacIntel,60,"[1440,900]",,,"[""trial_ahead_box""]",,,,,,,,,,,,homeoffice.jpg,space,3.126915,"[0.002595486111111111,0.42693142361111114]","[-0.3028428819444444,-0.30791666666666667]","[1,1]","[0,0]","[0,0]","[1.447504999989178,2.6139149999944493]","[""trial_ahead_box""]",0,57,57,53,1,gazebo3.jpg,frontLawn3.jpg,homegarage3.jpg,fountain.jpg,,
Image_List_2,,,,,,,,,,,,,,,,44613,2020-11-24_17h22.07.158,lingCatScenes,2020.1.3,MacIntel,60,"[1440,900]",,,"[""trial_ahead_box""]",,,,,,,,,,,,cliff3.jpg,space,3.098805,[0.009756944444444445],[-0.30158854166666665],[1],[0],[0],[1.9470350000192411],"[""trial_ahead_box""]",0,58,58,24,1,campsite.jpg,cave6.jpg,cemetery5.jpg,boardwalk.jpg,,
Image_List_2,,,,,,,,,,,,,,,,44613,2020-11-24_17h22.07.158,lingCatScenes,2020.1.3,MacIntel,60,"[1440,900]",,,"[""trial_ahead_box"",""trial_right_box""]",,,,,,,,,,,,barbershop3.jpg,space,3.730325,"[0.0054991319444444445,0.4085243055555556]","[-0.3053689236111111,-0.3118576388888889]","[1,1]","[0,0]","[0,0]","[1.863649999955669,3.4137249999912456]","[""trial_ahead_box"",""trial_right_box""]",0,59,59,10,1,backstage2.jpg,ballroom4.jpg,basketballcourt3.jpg,ATM4.jpg,,
Image_List_2,,,,,,,,,,,,,,,,44613,2020-11-24_17h22.07.158,lingCatScenes,2020.1.3,MacIntel,60,"[1440,900]",,,"[""trial_ahead_box"",""trial_slight_right_box"",""trial_slight_left_box"",""trial_left_box"",""trial_sharp_left_box"",""trial_sharp_right_box"",""trial_right_box""]",,,,,,,,,,,,golfcourse6.jpg,space,10.37914,"[0.013615451388888889,0.17223524305555554,0.20340277777777777,0.4036111111111111,-0.1974782986111111,-0.3984157986111111,-0.6097526041666667,0.6067361111111111,0.42486545138888887]","[-0.3126128472222222,-0.2846223958333333,-0.30563368055555556,-0.3283550347222222,-0.2968359375,-0.2952604166666667,-0.3008940972222222,-0.2994835069444444,-0.3003342013888889]","[1,1,1,1,1,1,1,1,1]","[0,0,0,0,0,0,0,0,0]","[0,0,0,0,0,0,0,0,0]","[1.5457100000348873,3.812000000034459,4.329910000029486,5.0451950000133365,5.879684999992605,6.546299999987241,7.395375000021886,8.613450000004377,9.312290000030771]","[""trial_ahead_box"",""trial_slight_right_box"",""trial_slight_left_box"",""trial_left_box"",""trial_sharp_left_box"",""trial_sharp_right_box"",""trial_right_box""]",0,60,60,48,1,frontDoor2.jpg,fittingroom5.jpg,golfcourse7.jpg,fabricstore2.jpg,,
Image_List_2,,,,,,,,,,,,,,,,44613,2020-11-24_17h22.07.158,lingCatScenes,2020.1.3,MacIntel,60,"[1440,900]",,,"[""trial_right_box"",""trial_sharp_left_box""]",,,,,,,,,,,,driveway4.jpg,space,18.578515,"[0.3989756944444444,-0.6187369791666667]","[-0.3003298611111111,-0.3073090277777778]","[1,1]","[0,0]","[0,0]","[15.812715000007302,16.89596499997424]","[""trial_right_box"",""trial_sharp_left_box""]",0,61,61,37,1,dining_car.jpg,dinosaur4.jpg,driveway7.jpg,citystreet9.jpg,,
Image_List_2,,,,,,,,,,,,,,,,44613,2020-11-24_17h22.07.158,lingCatScenes,2020.1.3,MacIntel,60,"[1440,900]",,,"[""trial_ahead_box""]",,,,,,,,,,,,farm1.jpg,space,2.141965,[-0.0019184027777777778],[-0.3055859375],[1],[0],[0],[1.2135000000125729],"[""trial_ahead_box""]",0,62,62,40,1,drycleaners4.jpg,drymountains.jpg,dugout1.jpg,clothingstore3.jpg,,
Image_List_2,,,,,,,,,,,,,,,,44613,2020-11-24_17h22.07.158,lingCatScenes,2020.1.3,MacIntel,60,"[1440,900]",,,"[""trial_right_box"",""trial_slight_left_box""]",,,,,,,,,,,,lab1.jpg,space,6.209925,"[0.4101388888888889,-0.18311631944444445]","[-0.3020833333333333,-0.28708333333333336]","[1,1]","[0,0]","[0,0]","[3.3458250000257976,5.846030000015162]","[""trial_right_box"",""trial_slight_left_box""]",0,63,63,58,1,highway7.jpg,hedgemaze1.jpg,igloo4.jpg,grocerystore2.jpg,,
Image_List_2,,,,,,,,,,,,,,,,44613,2020-11-24_17h22.07.158,lingCatScenes,2020.1.3,MacIntel,60,"[1440,900]",,,"[""trial_slight_right_box"",""trial_right_box""]",,,,,,,,,,,,alley2.jpg,space,3.94792,"[0.17458333333333334,0.1879296875,0.3969010416666667]","[-0.29440538194444443,-0.29880208333333336,-0.2873350694444444]","[1,1,1]","[0,0,0]","[0,0,0]","[1.5288900000159629,2.5787099999724887,3.5285099999746308]","[""trial_slight_right_box"",""trial_right_box""]",0,64,64,0,1,airplanecabin1.jpg,appleorchard4.jpg,airplanecabin5.jpg,airplanecabin3.jpg,,
Image_List_2,,,,,,,,,,,,,,,,44613,2020-11-24_17h22.07.158,lingCatScenes,2020.1.3,MacIntel,60,"[1440,900]",,,"[""trial_ahead_box""]",,,,,,,,,,,,desertvegetation6.jpg,space,1.51568,[0.005368923611111111],[-0.2821180555555556],[1],[0],[0],[1.2309949999907985],"[""trial_ahead_box""]",0,65,65,31,1,cubicle4.jpg,conference4.jpg,courtroom2.jpg,cabin3.jpg,,
Image_List_2,,,,,,,,,,,,,,,,44613,2020-11-24_17h22.07.158,lingCatScenes,2020.1.3,MacIntel,60,"[1440,900]",,,"[""trial_ahead_box"",""trial_slight_right_box""]",,,,,,,,,,,,deck2.jpg,space,1.74308,"[0.005368923611111111,0.19003472222222223]","[-0.2821180555555556,-0.2924001736111111]","[1,1]","[0,0]","[0,0]","[0.76408499997342,1.447329999995418]","[""trial_ahead_box"",""trial_slight_right_box""]",0,66,66,29,1,cornfield2.jpg,cliff2.jpg,constructionSite4.jpg,bridalboutique3.jpg,,
Image_List_2,,,,,,,,,,,,,,,,44613,2020-11-24_17h22.07.158,lingCatScenes,2020.1.3,MacIntel,60,"[1440,900]",,,"[""trial_ahead_box""]",,,,,,,,,,,,apartmentBuilding1.jpg,space,1.464205,[-0.005186631944444444],[-0.29803819444444446],[1],[0],[0],[1.1293099999893457],"[""trial_ahead_box""]",0,67,67,1,1,airportTerminal4.jpg,applestore1.jpg,airportTerminal3.jpg,airportTerminal2.jpg,,
Image_List_2,,,,,,,,,,,,,,,,44613,2020-11-24_17h22.07.158,lingCatScenes,2020.1.3,MacIntel,60,"[1440,900]",,,"[""trial_left_box"",""trial_right_box""]",,,,,,,,,,,,bowlingalley3.jpg,space,3.211345,"[-0.38047309027777776,0.3815017361111111]","[-0.3134895833333333,-0.3074088541666667]","[1,1]","[0,0]","[0,0]","[1.4304399999673478,2.96441999997478]","[""trial_left_box"",""trial_right_box""]",0,68,68,13,1,balconyIN2.jpg,beach2.jpg,boardwalk4.jpg,backyard6.jpg,,
Image_List_2,,,,,,,,,,,,,,,,44613,2020-11-24_17h22.07.158,lingCatScenes,2020.1.3,MacIntel,60,"[1440,900]",,,"[""trial_ahead_box""]",,,,,,,,,,,,church8.jpg,space,2.25922,[-0.014791666666666667],[-0.3029861111111111],[1],[0],[0],[1.36154000001261],"[""trial_ahead_box""]",0,69,69,23,1,bus_shelter.jpg,carmechanic4.jpeg,cemetery3.jpg,bleachers6.jpg,,
Image_List_2,,,,,,,,,,,,,,,,44613,2020-11-24_17h22.07.158,lingCatScenes,2020.1.3,MacIntel,60,"[1440,900]",,,"[""trial_ahead_box"",""trial_right_box""]",,,,,,,,,,,,sidewalk2.jpg,space,2.99254,"[0.012526041666666666,0.38235677083333336]","[-0.2991753472222222,-0.2866623263888889]","[1,1]","[0,0]","[0,0]","[1.3285199999809265,2.595504999975674]","[""trial_ahead_box"",""trial_right_box""]",0,70,70,84,1,readingroom5.jpg,restaurant13.jpg,sandDunes_desert_outdoor.jpg,rooftop2.jpg,,
Image_List_2,,,,,,,,,,,,,,,,44613,2020-11-24_17h22.07.158,lingCatScenes,2020.1.3,MacIntel,60,"[1440,900]",,,"[""trial_left_box"",""trial_right_box""]",,,,,,,,,,,,bar2.jpg,space,9.159815,"[-0.3906206597222222,0.5874175347222222,0.6240538194444445,0.42424913194444447]","[-0.29979600694444447,-0.3015277777777778,-0.30542100694444446,-0.30170572916666666]","[1,1,1,1]","[0,0,0,0]","[0,0,0,0]","[6.377995000046212,7.394460000039544,8.111399999994319,8.778240000014193]","[""trial_left_box"",""trial_sharp_right_box"",""trial_sharp_right_box"",""trial_right_box""]",0,71,71,9,1,auto_showroom3.jpg,ballroom2.jpg,basement5.jpg,arcade2.jpg,,
Image_List_2,,,,,,,,,,,,,,,,44613,2020-11-24_17h22.07.158,lingCatScenes,2020.1.3,MacIntel,60,"[1440,900]",,,"[""trial_right_box"",""trial_sharp_left_box""]",,,,,,,,,,,,track.jpg,space,8.664215,"[0.4202126736111111,-0.5753211805555556,-0.5873784722222222]","[-0.2978515625,-0.32706163194444443,-0.30020833333333335]","[1,1,1]","[0,0,0]","[0,0,0]","[6.331179999979213,7.481205000018235,8.097644999972545]","[""trial_right_box"",""trial_sharp_left_box""]",0,72,72,88,1,rooftop1.jpg,sculpturegarden4.jpg,soccerfield.jpg,sandbox.jpg,,
Image_List_2,,,,,,,,,,,,,,,,44613,2020-11-24_17h22.07.158,lingCatScenes,2020.1.3,MacIntel,60,"[1440,900]",,,"[""trial_left_box""]",,,,,,,,,,,,cafeteria6.jpg,space,1.66152,[-0.3814453125],[-0.315078125],[1],[0],[0],[1.3617349999840371],"[""trial_left_box""]",0,73,73,16,1,basement.jpg,breakroom2.jpg,campusquad4.jpg,barbershop2.jpg,,
Image_List_2,,,,,,,,,,,,,,,,44613,2020-11-24_17h22.07.158,lingCatScenes,2020.1.3,MacIntel,60,"[1440,900]",,,"[""trial_left_box""]",,,,,,,,,,,,ruralroad5.jpg,space,2.19822,[-0.4004817708333333],[-0.29989149305555557],[1],[0],[0],[1.8290300000226125],"[""trial_left_box""]",0,74,74,81,1,promenadeDeck.jpg,promenadeDeck2.jpg,rainforest5.jpg,pasture8.jpg,,
Image_List_2,,,,,,,,,,,,,,,,44613,2020-11-24_17h22.07.158,lingCatScenes,2020.1.3,MacIntel,60,"[1440,900]",,,"[""trial_left_box"",""trial_right_box""]",,,,,,,,,,,,grocerystore6.jpg,space,3.70982,"[-0.3884548611111111,0.3957204861111111]","[-0.2980078125,-0.2825217013888889]","[1,1]","[0,0]","[0,0]","[2.3463900000206195,3.313414999982342]","[""trial_left_box"",""trial_right_box""]",0,75,75,50,1,frontLawn4.jpg,forestpath6.jpg,hallway2.jpg,fireplace4.jpg,,
Image_List_2,,,,,,,,,,,,,,,,44613,2020-11-24_17h22.07.158,lingCatScenes,2020.1.3,MacIntel,60,"[1440,900]",,,"[""trial_left_box""]",,,,,,,,,,,,wineVineyard2.jpg,space,1.80807,[-0.4079817708333333],[-0.30226128472222225],[1],[0],[0],[1.4626749999588355],"[""trial_left_box""]",0,76,76,97,1,warehouseoutside4.jpg,waitingroom4.jpg,winebarrel3.jpg,warehouseoutside3.jpg,,
Image_List_2,,,,,,,,,,,,,,,,44613,2020-11-24_17h22.07.158,lingCatScenes,2020.1.3,MacIntel,60,"[1440,900]",,,"[""trial_ahead_box""]",,,,,,,,,,,,frontLawn5.jpg,space,3.46755,"[-0.20059027777777777,-0.21497829861111112,-0.0110546875]","[-0.3048263888888889,-0.3105121527777778,-0.30428819444444444]","[1,1,1]","[0,0,0]","[0,0,0]","[1.4455200000084005,2.3629150000051595,3.030045000021346]","[""trial_slight_left_box"",""trial_slight_left_box"",""trial_ahead_box""]",0,77,77,46,1,flowershop.jpg,farmersmarket4.jpg,fountain4.jpg,dormroom6.jpg,,
Image_List_2,,,,,,,,,,,,,,,,44613,2020-11-24_17h22.07.158,lingCatScenes,2020.1.3,MacIntel,60,"[1440,900]",,,"[""trial_ahead_box"",""trial_right_box"",""trial_left_box""]",,,,,,,,,,,,arcade1.jpg,space,4.992535,"[-0.0110546875,0.41726128472222224,-0.4100564236111111]","[-0.30428819444444444,-0.29421875,-0.3239800347222222]","[1,1,1]","[0,0,0]","[0,0,0]","[0.81294999999227,3.5812349999905564,4.662534999952186]","[""trial_ahead_box"",""trial_right_box"",""trial_left_box""]",0,78,78,2,1,alley1.jpg,applestore6.jpg,apartmentBuilding4.jpg,airportTerminal6.jpg,,
Image_List_2,,,,,,,,,,,,,,,,44613,2020-11-24_17h22.07.158,lingCatScenes,2020.1.3,MacIntel,60,"[1440,900]",,,"[""trial_left_box""]",,,,,,,,,,,,desertvegetation3.jpg,space,3.8782,[-0.3939973958333333],[-0.3038324652777778],[1],[0],[0],[3.228174999996554],"[""trial_left_box""]",0,79,79,30,1,courthouse1.jpg,clothingstore2.jpg,copyroom2.jpg,bus_shelter3.jpg,,
Image_List_2,,,,,,,,,,,,,,,,44613,2020-11-24_17h22.07.158,lingCatScenes,2020.1.3,MacIntel,60,"[1440,900]",,,"[""trial_ahead_box""]",,,,,,,,,,,,pharmacy4.jpg,space,3.013065,[0.004748263888888889],[-0.3077560763888889],[1],[0],[0],[2.314254999975674],"[""trial_ahead_box""]",0,80,80,72,1,museum5.jpg,musicStore1.jpg,museum4.jpg,kindergarten_classroom.jpg,,
Image_List_2,,,,,,,,,,,,,,,,44613,2020-11-24_17h22.07.158,lingCatScenes,2020.1.3,MacIntel,60,"[1440,900]",,,"[""trial_right_box""]",,,,,,,,,,,,warehouseoutside1.jpg,space,2.73044,[0.40414930555555556],[-0.3087239583333333],[1],[0],[0],[1.9798849999788217],"[""trial_right_box""]",0,81,81,96,1,warehouse4.jpg,tenniscourt3.jpg,windmill1.jpg,warehouse1.jpg,,
Image_List_2,,,,,,,,,,,,,,,,44613,2020-11-24_17h22.07.158,lingCatScenes,2020.1.3,MacIntel,60,"[1440,900]",,,"[""trial_slight_right_box"",""trial_ahead_box""]",,,,,,,,,,,,poolhall1.jpg,space,3.10028,"[0.2070876736111111,0.024735243055555557]","[-0.2896701388888889,-0.29921006944444445]","[1,1]","[0,0]","[0,0]","[1.8479049999732524,2.513970000029076]","[""trial_slight_right_box"",""trial_ahead_box""]",0,82,82,78,1,parkinglot3.jpg,pier5.jpg,pavilion3.jpg,observatory1.jpg,,
Image_List_2,,,,,,,,,,,,,,,,44613,2020-11-24_17h22.07.158,lingCatScenes,2020.1.3,MacIntel,60,"[1440,900]",,,"[""trial_ahead_box"",""trial_right_box"",""trial_left_box""]",,,,,,,,,,,,theater2.jpg,space,4.529105,"[0.0004166666666666667,0.16555555555555557,0.4205295138888889,-0.3826171875]","[-0.2888064236111111,-0.30070746527777775,-0.2955815972222222,-0.2987065972222222]","[1,1,1,1]","[0,0,0,0]","[0,0,0,0]","[1.329970000020694,2.162639999995008,2.9293399999733083,4.229315000004135]","[""trial_ahead_box"",""trial_right_box"",""trial_left_box""]",0,83,83,87,1,restaurantkitchen2.jpg,savanna.jpg,sculpturegarden2.jpg,RVinside2.jpg,,
Image_List_2,,,,,,,,,,,,,,,,44613,2020-11-24_17h22.07.158,lingCatScenes,2020.1.3,MacIntel,60,"[1440,900]",,,"[""trial_left_box"",""trial_ahead_box""]",,,,,,,,,,,,jail1.jpg,space,3.75868,"[-0.4105685763888889,0.012335069444444444]","[-0.3056987847222222,-0.2967751736111111]","[1,1]","[0,0]","[0,0]","[1.529370000003837,3.446539999975357]","[""trial_left_box"",""trial_ahead_box""]",0,84,84,57,1,hayfield5.jpg,hallway4.jpg,hut5.jpg,gazebo.jpg,,
Image_List_2,,,,,,,,,,,,,,,,44613,2020-11-24_17h22.07.158,lingCatScenes,2020.1.3,MacIntel,60,"[1440,900]",,,"[""trial_ahead_box"",""trial_slight_right_box"",""trial_right_box"",""trial_sharp_right_box"",""trial_slight_left_box"",""trial_left_box"",""trial_sharp_left_box""]",,,,,,,,,,,,campsite6.jpg,space,7.065805,"[0.012335069444444444,0.20020833333333332,0.4053862847222222,0.5649739583333333,0.5880902777777778,-0.18586371527777779,-0.40032118055555554,-0.5987456597222223]","[-0.2967751736111111,-0.2946484375,-0.3024609375,-0.31577256944444443,-0.31252604166666664,-0.30921875,-0.28203993055555554,-0.2982769097222222]","[1,1,1,1,1,1,1,1]","[0,0,0,0,0,0,0,0]","[0,0,0,0,0,0,0,0]","[1.0484050000086427,2.515030000009574,3.2483699999866076,3.8154949999880046,4.31494999997085,5.198585000005551,5.9648099999758415,6.597765000013169]","[""trial_ahead_box"",""trial_slight_right_box"",""trial_right_box"",""trial_sharp_right_box"",""trial_slight_left_box"",""trial_left_box"",""trial_sharp_left_box""]",0,85,85,17,1,bikerack1.jpg,breakroom4.jpg,carmechanic.jpg,baseball6.jpg,,
Image_List_2,,,,,,,,,,,,,,,,44613,2020-11-24_17h22.07.158,lingCatScenes,2020.1.3,MacIntel,60,"[1440,900]",,,"[""trial_ahead_box""]",,,,,,,,,,,,metroInside4.jpg,space,2.09658,[0.005685763888888889],[-0.31785590277777775],[1],[0],[0],[1.3297850000089966],"[""trial_ahead_box""]",0,86,86,61,1,HorseRaceTrack.jpg,homegarden6.jpg,kindergarten_classroom7.jpg,hayfield6.jpg,,
Image_List_2,,,,,,,,,,,,,,,,44613,2020-11-24_17h22.07.158,lingCatScenes,2020.1.3,MacIntel,60,"[1440,900]",,,"[""trial_sharp_left_box"",""trial_sharp_right_box""]",,,,,,,,,,,,courtroom3.jpg,space,3.702015,"[-0.5987890625,0.6047178819444444]","[-0.28913628472222225,-0.3057421875]","[1,1]","[0,0]","[0,0]","[2.179835000017192,3.39658000000054]","[""trial_sharp_left_box"",""trial_sharp_right_box""]",0,87,87,27,1,castle3.jpg,churchInside4.jpg,closet.jpg,brewery2.jpg,,
Image_List_2,,,,,,,,,,,,,,,,44613,2020-11-24_17h22.07.158,lingCatScenes,2020.1.3,MacIntel,60,"[1440,900]",,,"[""trial_ahead_box"",""trial_slight_right_box""]",,,,,,,,,,,,photographer_studio2.jpg,space,4.843695,"[-0.0030078125,0.21121961805555556]","[-0.2994748263888889,-0.30259114583333335]","[1,1]","[0,0]","[0,0]","[2.9633349999785423,3.829250000009779]","[""trial_ahead_box"",""trial_slight_right_box""]",0,88,88,73,1,musicStore3.jpg,nursery.jpg,nursery4.jpg,library_aisle9.jpg,,
Image_List_2,,,,,,,,,,,,,,,,44613,2020-11-24_17h22.07.158,lingCatScenes,2020.1.3,MacIntel,60,"[1440,900]",,,"[""trial_ahead_box"",""trial_right_box""]",,,,,,,,,,,,basketballcourt4.jpg,space,2.844845,"[-0.03543402777777778,0.0073046875,0.40271701388888886]","[-0.29214409722222223,-0.3075954861111111,-0.30754774305555554]","[1,1,1]","[0,0,0]","[0,0,0]","[1.0459599999594502,1.5631799999973737,2.4793099999660626]","[""trial_ahead_box"",""trial_right_box""]",0,89,89,11,1,backyard2.jpg,bambooforest3.jpg,baywindow5.jpg,backyard1.jpg,,
Image_List_2,,,,,,,,,,,,,,,,44613,2020-11-24_17h22.07.158,lingCatScenes,2020.1.3,MacIntel,60,"[1440,900]",,,"[""trial_right_box"",""trial_left_box""]",,,,,,,,,,,,diningroom1.jpg,space,3.51292,"[0.4267925347222222,0.38657552083333335,-0.40258680555555554]","[-0.3055815972222222,-0.2873046875,-0.2870963541666667]","[1,1,1]","[0,0,0]","[0,0,0]","[1.6474299999536015,2.1809899999643676,3.181479999970179]","[""trial_right_box"",""trial_left_box""]",0,90,90,33,1,deck1.jpg,courthouse2.jpg,diner10.jpg,cabinIndoors5.jpg,,
Image_List_2,,,,,,,,,,,,,,,,44613,2020-11-24_17h22.07.158,lingCatScenes,2020.1.3,MacIntel,60,"[1440,900]",,,"[""trial_ahead_box"",""trial_left_box"",""trial_right_box""]",,,,,,,,,,,,firestation3.jpg,space,4.24322,"[0.0025520833333333333,-0.3904036458333333,0.39263020833333334]","[-0.30040798611111114,-0.3050086805555556,-0.29441840277777775]","[1,1,1]","[0,0,0]","[0,0,0]","[1.5963050000136718,2.5631699999794364,3.763425000011921]","[""trial_ahead_box"",""trial_left_box"",""trial_right_box""]",0,91,91,42,1,exerciseequipment3.jpg,drymountains6.jpg,farm4.jpg,desertvegetation2.jpg,,
Image_List_2,,,,,,,,,,,,,,,,44613,2020-11-24_17h22.07.158,lingCatScenes,2020.1.3,MacIntel,60,"[1440,900]",,,"[""trial_ahead_box"",""trial_right_box"",""trial_left_box""]",,,,,,,,,,,,dormroom9.jpg,space,4.742255,"[0.0025911458333333333,0.4073350694444444,-0.38957899305555554]","[-0.3042751736111111,-0.2996050347222222,-0.31766927083333335]","[1,1,1]","[0,0,0]","[0,0,0]","[1.6625350000103936,3.2126700000371784,4.245645000017248]","[""trial_ahead_box"",""trial_right_box"",""trial_left_box""]",0,92,92,36,1,diner14.jpg,dining_car3.jpg,doctor1.jpg,checkoutcounter9.jpg,,
Image_List_2,,,,,,,,,,,,,,,,44613,2020-11-24_17h22.07.158,lingCatScenes,2020.1.3,MacIntel,60,"[1440,900]",,,"[""trial_ahead_box"",""trial_right_box"",""trial_left_box""]",,,,,,,,,,,,frontFoyer7.jpg,space,3.89611,"[-0.005551215277777778,0.4390060763888889,0.40975260416666665,-0.3876041666666667]","[-0.30702256944444445,-0.31680555555555556,-0.29095486111111113,-0.3063671875]","[1,1,1,1]","[0,0,0,0]","[0,0,0,0]","[1.6283299999777228,2.27844499994535,2.7609599999850616,3.577469999960158]","[""trial_ahead_box"",""trial_right_box"",""trial_left_box""]",0,93,93,45,1,fittingroom2.jpg,factory1.jpg,forestpath4.jpg,dock4.jpg,,
Image_List_2,,,,,,,,,,,,,,,,44613,2020-11-24_17h22.07.158,lingCatScenes,2020.1.3,MacIntel,60,"[1440,900]",,,[],,,,,,,,,,,,sidewalk5.jpg,space,1.967775,"[-0.0309765625,0.025221354166666668]","[-0.31583333333333335,-0.30170572916666666]","[1,1]","[0,0]","[0,0]","[1.147930000035558,1.6308100000023842]",[],0,94,94,85,1,recordingstudio4.jpg,ruralroad2.jpg,sandDunes_desert_outdoor3.jpg,rooftop3.jpg,,
Image_List_2,,,,,,,,,,,,,,,,44613,2020-11-24_17h22.07.158,lingCatScenes,2020.1.3,MacIntel,60,"[1440,900]",,,"[""trial_ahead_box""]",,,,,,,,,,,,library_aisle8.jpg,space,5.212615,[0.012552083333333333],[-0.27936631944444446],[1],[0],[0],[3.978640000044834],"[""trial_ahead_box""]",0,95,95,59,1,homegarden7.jpg,highway4.jpg,kindergarten_classroom5.jpg,grocerystore3.jpg,,
Image_List_2,,,,,,,,,,,,,,,,44613,2020-11-24_17h22.07.158,lingCatScenes,2020.1.3,MacIntel,60,"[1440,900]",,,"[""trial_right_box""]",,,,,,,,,,,,cafeteria5.jpg,space,2.948965,[0.4102473958333333],[-0.29750868055555557],[1],[0],[0],[1.5816350000095554],"[""trial_right_box""]",0,96,96,15,1,bambooforest4.jpg,bleachers8.jpg,cabinIndoors.jpg,bar8.jpg,,
Image_List_2,,,,,,,,,,,,,,,,44613,2020-11-24_17h22.07.158,lingCatScenes,2020.1.3,MacIntel,60,"[1440,900]",,,"[""trial_ahead_box"",""trial_left_box"",""trial_right_box""]",,,,,,,,,,,,volleyballcourt4.jpg,space,3.882105,"[-0.0007942708333333334,-0.3858637152777778,0.41792534722222224]","[-0.30244791666666665,-0.3056987847222222,-0.2919704861111111]","[1,1,1]","[0,0,0]","[0,0,0]","[1.761705000011716,2.6607899999944493,3.627364999963902]","[""trial_ahead_box"",""trial_left_box"",""trial_right_box""]",0,97,97,93,1,tollbooth8.jpg,staircase4.jpg,warehouseoutside2.jpg,tenniscourt.jpg,,
Image_List_2,,,,,,,,,,,,,,,,44613,2020-11-24_17h22.07.158,lingCatScenes,2020.1.3,MacIntel,60,"[1440,900]",,,"[""trial_ahead_box""]",,,,,,,,,,,,trainStation1.jpg,space,1.461465,[0.01392361111111111],[-0.2935026041666667],[1],[0],[0],[1.1802799999713898],"[""trial_ahead_box""]",0,98,98,90,1,savanna5.jpg,sidewalk1.jpg,stripmall3.jpg,shoestore4.jpg,,
Image_List_2,,,,,,,,,,,,,,,,44613,2020-11-24_17h22.07.158,lingCatScenes,2020.1.3,MacIntel,60,"[1440,900]",,,"[""trial_left_box""]",,,,,,,,,,,,banquetHall4.jpg,space,2.48025,[-0.4045182291666667],[-0.29733072916666664],[1],[0],[0],[1.8275349999894388],"[""trial_left_box""]",0,99,99,7,1,attic2.jpg,backstage1.jpg,baggageClaim3.jpg,applestore2.jpg,,
Image_List_2,,,,,,,,,,,,,,,,44613,2020-11-24_17h22.07.158,lingCatScenes,2020.1.3,MacIntel,60,,,,,,,,,,,,,,,,,,,,,,,,,,,,,,,,,,,space,28.7092
