image_list,key_resp_intructions.keys,key_resp_intructions.rt,key_resp_intructions_3.keys,key_resp_intructions_3.rt,PracticeComplete_2.keys,PracticeComplete_2.rt,PracticeComplete_3.keys,PracticeComplete_3.rt,demo_trials.thisRepN,demo_trials.thisTrialN,demo_trials.thisN,demo_trials.thisIndex,demo_trials.ran,demo_images,path_images,participant,date,expName,psychopyVersion,OS,frameRate,windowSize,drawing,numDrawings,drawingSizes,practice_complete.keys,practice_complete.rt,PracticeComplete.keys,PracticeComplete.rt,practice_trials.thisRepN,practice_trials.thisTrialN,practice_trials.thisN,practice_trials.thisIndex,practice_trials.ran,practice_images,feedback_images,key_resp_intructions_2.keys,key_resp_intructions_2.rt,Image_List_5,trial_complete.keys,trial_complete.rt,trials.thisRepN,trials.thisTrialN,trials.thisN,trials.thisIndex,trials.ran,Image_List_1,Image_List_2,Image_List_3,Image_List_4,key_resp.keys,key_resp.rt
Image_List_5,space,11.0568,space,3.1287,space,3.2258,space,1.0838,0,0,0,0,1,ahead.jpg,ahead_path.jpg,46621,2022-01-30_18h22.49.704,analogCatScenes,2020.1.3,MacIntel,60,,,,,,,,,,,,,,,,,,,,,,,,,,,,,,,
Image_List_5,,,,,space,1.0393,space,0.6098,0,1,1,2,1,ahead_right.jpg,ahead_right_path.jpg,46621,2022-01-30_18h22.49.704,analogCatScenes,2020.1.3,MacIntel,60,,,,,,,,,,,,,,,,,,,,,,,,,,,,,,,
Image_List_5,,,,,space,0.4668,space,0.7166,0,2,2,1,1,ahead_left.jpg,ahead_left_path.jpg,46621,2022-01-30_18h22.49.704,analogCatScenes,2020.1.3,MacIntel,60,,,,,,,,,,,,,,,,,,,,,,,,,,,,,,,
Image_List_5,,,,,space,1.0095,space,0.9428,0,3,3,4,1,left.jpg,left_path.jpg,46621,2022-01-30_18h22.49.704,analogCatScenes,2020.1.3,MacIntel,60,,,,,,,,,,,,,,,,,,,,,,,,,,,,,,,
Image_List_5,,,,,space,0.5151,space,0.4927,0,4,4,6,1,right_left.jpg,right_left_path.jpg,46621,2022-01-30_18h22.49.704,analogCatScenes,2020.1.3,MacIntel,60,,,,,,,,,,,,,,,,,,,,,,,,,,,,,,,
Image_List_5,,,,,space,0.4181,space,0.8985,0,5,5,3,1,ahead_right_left.jpg,ahead_right_left_path.jpg,46621,2022-01-30_18h22.49.704,analogCatScenes,2020.1.3,MacIntel,60,,,,,,,,,,,,,,,,,,,,,,,,,,,,,,,
Image_List_5,,,,,space,0.2993,space,0.5861,0,6,6,5,1,right.jpg,right_path.jpg,46621,2022-01-30_18h22.49.704,analogCatScenes,2020.1.3,MacIntel,60,,,,,,,,,,,,,,,,,,,,,,,,,,,,,,,
Image_List_5,,,,,,,,,,,,,,,,46621,2022-01-30_18h22.49.704,analogCatScenes,2020.1.3,MacIntel,60,"[1440,900]",[],0,[],space,0.4645,space,0.349,0,0,0,0,1,ahead_2.jpg,ahead_2_path.jpg,,,,,,,,,,,,,,,,
Image_List_5,,,,,,,,,,,,,,,,46621,2022-01-30_18h22.49.704,analogCatScenes,2020.1.3,MacIntel,60,"[1440,900]",[],0,[],space,9.962,space,1.0984,0,1,1,4,1,left_2.jpg,left_2_path.jpg,,,,,,,,,,,,,,,,
Image_List_5,,,,,,,,,,,,,,,,46621,2022-01-30_18h22.49.704,analogCatScenes,2020.1.3,MacIntel,60,"[1440,900]",[],0,[],space,0.4495,space,0.2029,0,2,2,6,1,right_left_2.jpg,right_left_2_path.jpg,,,,,,,,,,,,,,,,
Image_List_5,,,,,,,,,,,,,,,,46621,2022-01-30_18h22.49.704,analogCatScenes,2020.1.3,MacIntel,60,"[1440,900]",[],0,[],space,0.223,space,0.7663,0,3,3,1,1,ahead_left_2.jpg,ahead_left_2_path.jpg,,,,,,,,,,,,,,,,
Image_List_5,,,,,,,,,,,,,,,,46621,2022-01-30_18h22.49.704,analogCatScenes,2020.1.3,MacIntel,60,"[1440,900]",[],0,[],space,0.2068,space,0.1739,0,4,4,2,1,ahead_right_2.jpg,ahead_right_2_path.jpg,,,,,,,,,,,,,,,,
Image_List_5,,,,,,,,,,,,,,,,46621,2022-01-30_18h22.49.704,analogCatScenes,2020.1.3,MacIntel,60,"[1440,900]",[],0,[],space,0.1658,space,0.2842,0,5,5,5,1,right_2.jpg,right_2_path.jpg,,,,,,,,,,,,,,,,
Image_List_5,,,,,,,,,,,,,,,,46621,2022-01-30_18h22.49.704,analogCatScenes,2020.1.3,MacIntel,60,"[1440,900]",[],0,[],space,0.8903,space,0.3786,0,6,6,3,1,ahead_right_left_2.jpg,ahead_right_left_2_path.jpg,,,,,,,,,,,,,,,,
Image_List_5,,,,,,,,,,,,,,,,46621,2022-01-30_18h22.49.704,analogCatScenes,2020.1.3,MacIntel,60,"[1440,900]","[[[0.004292534722222222,-0.19198350694444444],[0.004292534722222222,-0.19198350694444444],[0.004292534722222222,-0.19198350694444444],[0.004292534722222222,-0.19198350694444444],[0.004292534722222222,-0.19198350694444444],[0.004292534722222222,-0.19198350694444444],[0.004292534722222222,-0.19198350694444444],[0.004292534722222222,-0.19198350694444444],[0.004292534722222222,-0.19198350694444444],[0.004292534722222222,-0.19198350694444444],[0.004292534722222222,-0.19198350694444444],[0.004292534722222222,-0.19198350694444444],[0.004292534722222222,-0.19198350694444444],[0.004292534722222222,-0.19198350694444444],[0.004292534722222222,-0.19198350694444444],[0.004292534722222222,-0.19198350694444444],[0.004292534722222222,-0.19198350694444444],[0.004292534722222222,-0.19198350694444444],[0.004292534722222222,-0.19198350694444444],[0.004292534722222222,-0.19198350694444444],[0.004292534722222222,-0.19198350694444444],[0.004292534722222222,-0.19198350694444444],[0.004292534722222222,-0.19198350694444444],[0.004292534722222222,-0.19198350694444444],[0.004292534722222222,-0.19198350694444444],[0.004292534722222222,-0.19198350694444444],[0.004292534722222222,-0.19198350694444444],[0.004292534722222222,-0.19198350694444444],[0.004292534722222222,-0.19198350694444444],[0.004292534722222222,-0.19198350694444444],[0.004292534722222222,-0.19198350694444444],[0.004292534722222222,-0.19198350694444444],[0.004292534722222222,-0.19198350694444444],[0.004292534722222222,-0.19198350694444444],[0.004292534722222222,-0.19198350694444444],[0.004292534722222222,-0.19198350694444444],[0.004292534722222222,-0.19198350694444444],[0.004292534722222222,-0.19198350694444444],[0.004292534722222222,-0.19198350694444444],[0.004292534722222222,-0.19198350694444444],[0.004292534722222222,-0.19198350694444444],[0.004292534722222222,-0.19198350694444444],[0.004292534722222222,-0.19198350694444444],[0.004292534722222222,-0.19198350694444444],[0.004292534722222222,-0.19198350694444444],[0.004292534722222222,-0.19198350694444444],[0.004292534722222222,-0.19198350694444444],[0.004292534722222222,-0.19198350694444444],[0.004292534722222222,-0.19198350694444444],[0.004292534722222222,-0.19198350694444444],[0.004292534722222222,-0.19198350694444444],[0.004292534722222222,-0.19198350694444444],[0.004292534722222222,-0.19198350694444444],[0.004292534722222222,-0.19198350694444444],[0.004292534722222222,-0.19198350694444444],[0.004292534722222222,-0.19198350694444444],[0.004292534722222222,-0.19198350694444444],[0.004292534722222222,-0.19198350694444444],[0.004292534722222222,-0.19198350694444444],[0.004292534722222222,-0.19198350694444444],[0.004292534722222222,-0.19198350694444444],[0.004292534722222222,-0.19198350694444444],[0.004292534722222222,-0.19198350694444444],[0.004292534722222222,-0.19198350694444444],[0.004292534722222222,-0.19198350694444444],[0.004292534722222222,-0.19198350694444444],[0.004292534722222222,-0.19198350694444444],[0.004292534722222222,-0.19198350694444444],[0.004292534722222222,-0.19198350694444444],[0.004292534722222222,-0.19198350694444444],[0.004292534722222222,-0.19198350694444444],[0.004292534722222222,-0.19198350694444444],[0.004292534722222222,-0.19198350694444444],[0.004292534722222222,-0.19198350694444444],[0.004292534722222222,-0.19198350694444444],[0.004292534722222222,-0.19198350694444444],[0.004292534722222222,-0.19198350694444444],[0.004292534722222222,-0.19198350694444444],[0.0061892361111111115,-0.18930989583333332],[0.012795138888888889,-0.1840798611111111],[0.01630642361111111,-0.18156684027777778],[0.028259548611111112,-0.1712282986111111],[0.036258680555555554,-0.16428819444444445],[0.04241319444444445,-0.15925347222222222],[0.050868055555555555,-0.15125868055555555],[0.05521701388888889,-0.14776475694444444],[0.05961371527777778,-0.14424045138888889],[0.0632595486111111,-0.14180989583333334],[0.06539496527777777,-0.14001302083333333],[0.06747829861111111,-0.13896267361111111],[0.06914930555555555,-0.13763020833333334],[0.07232638888888888,-0.13526041666666666],[0.075078125,-0.1325],[0.08006944444444444,-0.12840711805555555],[0.085234375,-0.12417534722222222],[0.08913628472222222,-0.12026475694444444],[0.09367621527777778,-0.1161545138888889],[0.09779513888888888,-0.11158420138888889],[0.1010546875,-0.10831597222222222],[0.10458333333333333,-0.10397135416666667],[0.10647135416666667,-0.10131510416666667],[0.1072265625,-0.09979600694444445],[0.11152777777777778,-0.09372829861111111],[0.11396701388888889,-0.09049479166666667],[0.11690538194444444,-0.08632378472222223],[0.12040364583333334,-0.08194010416666667],[0.12524739583333333,-0.07608072916666667],[0.1287934027777778,-0.07118923611111111],[0.13341145833333334,-0.0650217013888889],[0.13692274305555555,-0.060559895833333335],[0.14202690972222223,-0.05388888888888889],[0.14553819444444444,-0.04950086805555556],[0.15178385416666668,-0.042217881944444445],[0.15576822916666666,-0.03816840277777778],[0.16096354166666665,-0.03296440972222222],[0.16781684027777777,-0.02666666666666667],[0.17299913194444444,-0.021948784722222222],[0.18122395833333332,-0.01642795138888889],[0.1897829861111111,-0.011046006944444445],[0.1964626736111111,-0.0076953125],[0.20251302083333333,-0.005368923611111111],[0.2113715277777778,-0.0017274305555555556],[0.21766927083333334,0.0011631944444444443],[0.22229600694444446,0.0028428819444444443],[0.22756076388888888,0.004605034722222222],[0.23223090277777778,0.006306423611111111],[0.236875,0.007994791666666667],[0.2409548611111111,0.010043402777777778],[0.2445138888888889,0.011627604166666666],[0.24762152777777777,0.013598090277777778],[0.24888454861111112,0.014869791666666667],[0.25014756944444444,0.0155078125],[0.2507465277777778,0.01642795138888889],[0.25103298611111113,0.017356770833333333],[0.2517230902777778,0.019440104166666666],[0.2535720486111111,0.023498263888888888],[0.2546701388888889,0.02605034722222222],[0.25536024305555555,0.028133680555555554],[0.2559592013888889,0.029053819444444445],[0.25624565972222224,0.029635416666666668],[0.25624565972222224,0.029908854166666665],[0.25624565972222224,0.029908854166666665],[0.25624565972222224,0.03017361111111111],[0.25624565972222224,0.03017361111111111],[0.25624565972222224,0.030442708333333332],[0.25624565972222224,0.030711805555555555],[0.25624565972222224,0.030711805555555555],[0.25624565972222224,0.0309765625],[0.2565190972222222,0.0309765625],[0.2565190972222222,0.0309765625],[0.2565190972222222,0.0309765625],[0.2565190972222222,0.0309765625],[0.2565190972222222,0.0309765625],[0.2565190972222222,0.0309765625],[0.2565190972222222,0.0309765625],[0.2565190972222222,0.0309765625],[0.2565190972222222,0.0309765625],[0.2565190972222222,0.0309765625],[0.2565190972222222,0.0309765625],[0.2565190972222222,0.0309765625],[0.2565190972222222,0.0309765625],[0.2565190972222222,0.0309765625],[0.2565190972222222,0.0309765625],[0.2565190972222222,0.0309765625],[0.2565190972222222,0.0309765625],[0.2565190972222222,0.0309765625],[0.2565190972222222,0.0309765625],[0.2565190972222222,0.0309765625],[0.2565190972222222,0.0309765625],[0.2565190972222222,0.0309765625],[0.2565190972222222,0.0309765625],[0.2565190972222222,0.0309765625],[0.2565190972222222,0.0309765625],[0.2565190972222222,0.0309765625],[0.2565190972222222,0.0309765625],[0.2565190972222222,0.0309765625],[0.2565190972222222,0.0309765625],[0.2565190972222222,0.0309765625],[0.2565190972222222,0.0309765625],[0.2565190972222222,0.0309765625],[0.2565190972222222,0.0309765625],[0.2565190972222222,0.0309765625],[0.2565190972222222,0.0309765625],[0.2565190972222222,0.0309765625],[0.2565190972222222,0.0309765625],[0.25677517361111113,0.0309765625],[0.2570486111111111,0.0309765625],[0.2576041666666667,0.0309765625],[0.25817708333333333,0.031263020833333335],[0.2584635416666667,0.03184027777777778],[0.25875,0.03212673611111111],[0.25903211805555554,0.03212673611111111],[0.25930555555555557,0.03240451388888889],[0.2595746527777778,0.03267795138888889],[0.26013020833333333,0.03296875],[0.26039930555555557,0.0332421875],[0.2609722222222222,0.033532986111111114],[0.26153645833333333,0.033819444444444444],[0.26210503472222224,0.03439670138888889],[0.2626736111111111,0.034683159722222225],[0.2632421875,0.03497395833333333],[0.26381510416666665,0.03526475694444445],[0.26381510416666665,0.03526475694444445],[0.2640798611111111,0.03526475694444445],[0.2640798611111111,0.03526475694444445],[0.2640798611111111,0.03552951388888889],[0.2640798611111111,0.03552951388888889],[0.2643402777777778,0.03552951388888889],[0.2643402777777778,0.03552951388888889],[0.2643402777777778,0.035794270833333336],[0.26460503472222224,0.035794270833333336],[0.26460503472222224,0.035794270833333336],[0.26460503472222224,0.03605902777777778],[0.2648871527777778,0.03634982638888889],[0.26516927083333336,0.036636284722222225],[0.2657378472222222,0.03721354166666667],[0.2663064236111111,0.0375],[0.26687934027777777,0.03808159722222222],[0.2674479166666667,0.038658854166666666],[0.2683637152777778,0.03958333333333333],[0.2696267361111111,0.04022135416666667],[0.27023003472222223,0.040859375],[0.2711501736111111,0.04147135416666667],[0.27200086805555557,0.042044270833333335],[0.2722699652777778,0.042044270833333335],[0.2722699652777778,0.042330729166666664],[0.2725520833333333,0.042330729166666664],[0.2725520833333333,0.042330729166666664],[0.2725520833333333,0.042330729166666664],[0.2725520833333333,0.042330729166666664],[0.2725520833333333,0.042330729166666664],[0.2725520833333333,0.042330729166666664],[0.2725520833333333,0.042330729166666664],[0.2725520833333333,0.042330729166666664],[0.2725520833333333,0.042330729166666664],[0.2725520833333333,0.04207465277777778],[0.27197482638888887,0.04207465277777778],[0.27139756944444443,0.04179253472222222]],[[0.005286458333333333,-0.199296875],[0.005286458333333333,-0.199296875],[0.005286458333333333,-0.199296875],[0.005286458333333333,-0.199296875],[0.005286458333333333,-0.199296875],[0.005286458333333333,-0.199296875],[0.005286458333333333,-0.199296875],[0.005286458333333333,-0.199296875],[0.005286458333333333,-0.199296875],[0.005286458333333333,-0.199296875],[0.005286458333333333,-0.199296875],[0.005286458333333333,-0.199296875],[0.005286458333333333,-0.199296875],[0.005286458333333333,-0.199296875],[0.005286458333333333,-0.199296875],[0.005286458333333333,-0.199296875],[0.005286458333333333,-0.199296875],[0.005286458333333333,-0.199296875],[0.005286458333333333,-0.199296875],[0.005286458333333333,-0.199296875],[0.005286458333333333,-0.199296875],[0.005286458333333333,-0.199296875],[0.005286458333333333,-0.199296875],[0.005286458333333333,-0.199296875],[0.005286458333333333,-0.199296875],[0.005286458333333333,-0.19904079861111112],[0.006766493055555556,-0.19685763888888888],[0.009635416666666667,-0.19315972222222222],[0.013315972222222222,-0.18720486111111112],[0.018146701388888888,-0.17809027777777778],[0.024466145833333335,-0.1671657986111111],[0.030989583333333334,-0.1552907986111111],[0.0372265625,-0.14452690972222224],[0.04114583333333333,-0.1377126736111111],[0.04516493055555556,-0.1306640625],[0.048355034722222225,-0.12522135416666666],[0.05462673611111111,-0.1159939236111111],[0.05898003472222222,-0.10970486111111111],[0.06350260416666667,-0.10265625],[0.06666232638888889,-0.09762586805555555],[0.07043836805555556,-0.09195746527777778],[0.07348958333333333,-0.08713975694444444],[0.07593315972222223,-0.08305555555555555],[0.07902777777777778,-0.07848090277777778],[0.08147135416666666,-0.07439670138888889],[0.08390625,-0.07032986111111111],[0.086875,-0.06609809027777777],[0.09006510416666667,-0.06060329861111111],[0.09384114583333333,-0.05493489583333333],[0.096484375,-0.05058159722222222],[0.09963541666666667,-0.045217013888888886],[0.10227430555555556,-0.039921875],[0.10391059027777778,-0.03581597222222222],[0.10548611111111111,-0.032243923611111114],[0.10663628472222222,-0.02720486111111111],[0.10739149305555555,-0.024171006944444445],[0.10814236111111111,-0.02115017361111111],[0.10814236111111111,-0.018606770833333335],[0.10851996527777778,-0.016046006944444444],[0.10851996527777778,-0.01302517361111111],[0.10851996527777778,-0.010026041666666667],[0.10851996527777778,-0.007478298611111111],[0.10851996527777778,-0.005386284722222222],[0.10851996527777778,-0.003715277777777778],[0.10883680555555555,-0.002790798611111111],[0.10912326388888889,-0.0018619791666666667],[0.10940972222222223,-0.0012847222222222223],[0.10998263888888889,-0.000703125],[0.11055121527777778,-0.00012586805555555555],[0.11083333333333334,0.00045138888888888887],[0.11111545138888888,0.0007421875],[0.11139756944444444,0.0010286458333333332],[0.111953125,0.0015928819444444445],[0.11252604166666667,0.0024652777777777776],[0.11344184027777778,0.0030729166666666665],[0.11437934027777778,0.0040234375],[0.11564670138888888,0.004982638888888889],[0.1165625,0.005907118055555555],[0.11782986111111111,0.006866319444444445],[0.1183984375,0.0074435763888888885],[0.11896701388888889,0.008020833333333333],[0.11953993055555556,0.008602430555555556],[0.12010850694444444,0.0091796875],[0.12010850694444444,0.009453125],[0.120390625,0.010030381944444444],[0.12067708333333334,0.010316840277777777],[0.12067708333333334,0.010607638888888889],[0.12094618055555556,0.011171875],[0.12151475694444444,0.012039930555555555],[0.12183159722222223,0.01267795138888889],[0.12243489583333333,0.013606770833333334],[0.12302517361111111,0.014809027777777779],[0.12330729166666667,0.015381944444444445],[0.12359375,0.015381944444444445],[0.12359375,0.015651041666666667],[0.12359375,0.015651041666666667],[0.12359375,0.015651041666666667],[0.12359375,0.015651041666666667],[0.12359375,0.015651041666666667],[0.12359375,0.015651041666666667],[0.12333333333333334,0.015651041666666667],[0.12306423611111111,0.015651041666666667],[0.12306423611111111,0.015651041666666667],[0.12306423611111111,0.015651041666666667],[0.12279947916666667,0.015651041666666667],[0.12223958333333333,0.015651041666666667]],[[-0.009001736111111111,-0.19628038194444444],[-0.009001736111111111,-0.19628038194444444],[-0.009001736111111111,-0.19628038194444444],[-0.009001736111111111,-0.19628038194444444],[-0.009001736111111111,-0.19628038194444444],[-0.009001736111111111,-0.19628038194444444],[-0.009001736111111111,-0.19628038194444444],[-0.009001736111111111,-0.19628038194444444],[-0.009001736111111111,-0.19628038194444444],[-0.009001736111111111,-0.19628038194444444],[-0.009001736111111111,-0.19628038194444444],[-0.009001736111111111,-0.19628038194444444],[-0.009001736111111111,-0.19628038194444444],[-0.009001736111111111,-0.19628038194444444],[-0.009001736111111111,-0.19628038194444444],[-0.009001736111111111,-0.19628038194444444],[-0.009001736111111111,-0.1960199652777778],[-0.009001736111111111,-0.1943359375],[-0.009001736111111111,-0.19134114583333334],[-0.009001736111111111,-0.18330295138888889],[-0.009001736111111111,-0.1737673611111111],[-0.008250868055555555,-0.1515277777777778],[-0.006853298611111111,-0.13118489583333334],[-0.005303819444444444,-0.11723524305555555],[-0.0010503472222222223,-0.08453559027777778],[0.0008550347222222222,-0.0704296875],[0.0019835069444444444,-0.05834635416666667],[0.0029861111111111113,-0.05023003472222222],[0.0029861111111111113,-0.045559895833333336],[0.0029861111111111113,-0.040989583333333336],[0.0029861111111111113,-0.03616319444444444],[0.0029861111111111113,-0.03090277777777778],[0.0029861111111111113,-0.024578993055555557],[0.0029861111111111113,-0.018090277777777778],[0.0035329861111111113,-0.00993923611111111],[0.004939236111111111,-0.003337673611111111],[0.006271701388888889,0.0019314236111111112],[0.0071484375,0.0072265625],[0.007903645833333334,0.010325520833333334],[0.00828125,0.012465277777777778],[0.00828125,0.014027777777777778],[0.008654513888888889,0.016171875],[0.009396701388888888,0.01916232638888889],[0.010911458333333334,0.022261284722222222],[0.012513020833333333,0.025399305555555557],[0.013897569444444445,0.02748263888888889],[0.014496527777777778,0.028407118055555555],[0.014782986111111111,0.028984375],[0.014782986111111111,0.028984375],[0.014782986111111111,0.028984375],[0.014518229166666667,0.028984375],[0.013940972222222223,0.028984375],[0.012664930555555556,0.028984375],[0.012087673611111112,0.028984375],[0.011510416666666667,0.028984375],[0.011236979166666666,0.028715277777777777],[0.010963541666666667,0.028715277777777777]],[[-0.0037630208333333335,-0.20246961805555555],[-0.0037630208333333335,-0.20246961805555555],[-0.0037630208333333335,-0.20246961805555555],[-0.0037630208333333335,-0.20246961805555555],[-0.0037630208333333335,-0.20246961805555555],[-0.0037630208333333335,-0.20246961805555555],[-0.0037630208333333335,-0.20246961805555555],[-0.0037630208333333335,-0.20246961805555555],[-0.0037630208333333335,-0.20246961805555555],[-0.0037630208333333335,-0.2022092013888889],[-0.0037630208333333335,-0.2009375],[-0.0037630208333333335,-0.19966145833333335],[-0.004908854166666666,-0.19614583333333332],[-0.008394097222222223,-0.19266059027777777],[-0.01342013888888889,-0.18854600694444446],[-0.022178819444444445,-0.18255208333333334],[-0.03226996527777778,-0.17526475694444443],[-0.042916666666666665,-0.16697916666666668],[-0.05448784722222222,-0.15846788194444444],[-0.06634548611111112,-0.1507248263888889],[-0.07628038194444445,-0.14489149305555554],[-0.08230902777777778,-0.14207899305555555],[-0.09684461805555555,-0.1372612847222222],[-0.10486545138888889,-0.13575520833333332],[-0.11370225694444444,-0.13471354166666666],[-0.12156684027777778,-0.1337282986111111],[-0.1303689236111111,-0.13216145833333334],[-0.13994357638888888,-0.12948784722222223],[-0.15008680555555556,-0.12628038194444444],[-0.1613888888888889,-0.12232204861111111],[-0.1725217013888889,-0.11842013888888889],[-0.1846267361111111,-0.1149609375],[-0.19561631944444444,-0.1122265625],[-0.20684027777777778,-0.10829427083333333],[-0.21786458333333333,-0.1025],[-0.2277126736111111,-0.0959375],[-0.23777777777777778,-0.08831597222222222],[-0.2434982638888889,-0.0840407986111111],[-0.24901909722222224,-0.07989149305555555],[-0.2546875,-0.07610677083333334],[-0.25878038194444447,-0.0736501736111111],[-0.26286892361111114,-0.0716015625],[-0.2681380208333333,-0.06836371527777778],[-0.2711762152777778,-0.06684461805555555],[-0.2733203125,-0.06504774305555555],[-0.275,-0.06371527777777777],[-0.276015625,-0.062035590277777775],[-0.27697048611111114,-0.06076388888888889],[-0.2776649305555556,-0.05869357638888889],[-0.27801649305555554,-0.0566015625],[-0.27836805555555555,-0.05451388888888889],[-0.27871961805555556,-0.052439236111111114],[-0.27979166666666666,-0.049891493055555555],[-0.2805251736111111,-0.04732638888888889],[-0.2819010416666667,-0.04526909722222222],[-0.2837413194444444,-0.04308159722222222],[-0.28557725694444447,-0.04090277777777778],[-0.28735243055555554,-0.03912760416666667],[-0.29016493055555553,-0.03666232638888889],[-0.29234375,-0.034830729166666664],[-0.29304253472222225,-0.03378472222222222],[-0.2959809027777778,-0.030499131944444445],[-0.29706163194444446,-0.027938368055555555],[-0.2984592013888889,-0.025846354166666665],[-0.29950086805555554,-0.023776041666666668],[-0.30016927083333333,-0.022096354166666665],[-0.30083767361111113,-0.020416666666666666],[-0.3011284722222222,-0.019787326388888887],[-0.30141493055555557,-0.019500868055555554],[-0.3019748263888889,-0.019500868055555554],[-0.3026128472222222,-0.02054253472222222],[-0.3029904513888889,-0.022039930555555556],[-0.3029904513888889,-0.022039930555555556],[-0.3029904513888889,-0.022039930555555556],[-0.3029904513888889,-0.022039930555555556],[-0.3029904513888889,-0.022039930555555556],[-0.3029904513888889,-0.022039930555555556],[-0.3029904513888889,-0.022039930555555556],[-0.3029904513888889,-0.022039930555555556],[-0.3029904513888889,-0.022039930555555556],[-0.3029904513888889,-0.022039930555555556],[-0.3029904513888889,-0.022039930555555556],[-0.3029904513888889,-0.022039930555555556],[-0.3029904513888889,-0.022039930555555556],[-0.3029904513888889,-0.022039930555555556],[-0.3029904513888889,-0.022039930555555556],[-0.3029904513888889,-0.022039930555555556],[-0.3029904513888889,-0.022039930555555556],[-0.3029904513888889,-0.022039930555555556],[-0.3029904513888889,-0.022039930555555556],[-0.3029904513888889,-0.022039930555555556],[-0.3029904513888889,-0.022039930555555556],[-0.3029904513888889,-0.022039930555555556]],[[-0.0048090277777777775,-0.2033984375],[-0.0048090277777777775,-0.2033984375],[-0.0048090277777777775,-0.2033984375],[-0.0048090277777777775,-0.2033984375],[-0.0048090277777777775,-0.2033984375],[-0.0048090277777777775,-0.2033984375],[-0.0048090277777777775,-0.2033984375],[-0.0048090277777777775,-0.2033984375],[-0.0048090277777777775,-0.2033984375],[-0.005329861111111111,-0.2033984375],[-0.007486979166666667,-0.2033984375],[-0.009574652777777777,-0.2033984375],[-0.01310763888888889,-0.2033984375],[-0.016145833333333335,-0.2033984375],[-0.019244791666666667,-0.2033984375],[-0.022816840277777778,-0.2033984375],[-0.02591579861111111,-0.20450086805555556],[-0.031762152777777775,-0.20539496527777779],[-0.03983072916666667,-0.2063888888888889],[-0.055855034722222224,-0.2083203125],[-0.06863715277777778,-0.20946180555555555],[-0.08571180555555556,-0.21011284722222223],[-0.101796875,-0.21011284722222223],[-0.1176953125,-0.21011284722222223],[-0.14076388888888888,-0.20700086805555556],[-0.15484809027777777,-0.20392361111111112],[-0.16295138888888888,-0.20190972222222223],[-0.17233940972222223,-0.2003515625],[-0.1812673611111111,-0.1993142361111111],[-0.18786458333333333,-0.1993142361111111],[-0.19436631944444444,-0.19885416666666667],[-0.2023090277777778,-0.19885416666666667],[-0.20964409722222221,-0.19885416666666667],[-0.21698350694444443,-0.19885416666666667],[-0.22176215277777778,-0.19885416666666667],[-0.2298784722222222,-0.19885416666666667],[-0.23645399305555556,-0.19885416666666667],[-0.24180555555555555,-0.19847222222222222],[-0.24774305555555556,-0.19847222222222222],[-0.2530381944444444,-0.19758680555555555],[-0.2576171875,-0.19675347222222223],[-0.2611892361111111,-0.1959592013888889],[-0.2657465277777778,-0.19481336805555555],[-0.2673871527777778,-0.19447916666666668],[-0.26905815972222225,-0.19415798611111112],[-0.2707204861111111,-0.19415798611111112],[-0.2727864583333333,-0.19415798611111112],[-0.2752864583333333,-0.19415798611111112],[-0.2778776041666667,-0.196015625],[-0.28043836805555555,-0.19711371527777777],[-0.28346354166666665,-0.19786458333333334],[-0.28552951388888886,-0.198203125],[-0.28855902777777775,-0.198203125],[-0.2911154513888889,-0.19782118055555556],[-0.29279513888888886,-0.19680555555555557],[-0.2940668402777778,-0.19648871527777778],[-0.2946484375,-0.19648871527777778],[-0.2949348958333333,-0.19648871527777778],[-0.29549913194444444,-0.19648871527777778],[-0.29704861111111114,-0.19680555555555557],[-0.2973394097222222,-0.1970920138888889],[-0.2986154513888889,-0.1970920138888889],[-0.3013237847222222,-0.1970920138888889],[-0.3034157986111111,-0.1970920138888889],[-0.3054644097222222,-0.1960720486111111],[-0.3075347222222222,-0.1946875],[-0.3092013888888889,-0.19370659722222222],[-0.31012586805555553,-0.19309895833333332]]]",5,"[238,106,57,93,68]",,,,,,,,,,,,space,3.045,soccerfield2.jpg,space,21.917,0,0,0,92,1,staircase.jpg,volleyballcourt.jpg,skatepark7.jpg,tvstudio2.jpg,,
Image_List_5,,,,,,,,,,,,,,,,46621,2022-01-30_18h22.49.704,analogCatScenes,2020.1.3,MacIntel,60,"[1440,900]","[[[-0.0003949652777777778,-0.19958333333333333],[-0.0003949652777777778,-0.19958333333333333],[-0.0003949652777777778,-0.19958333333333333],[-0.0003949652777777778,-0.19958333333333333],[-0.0003949652777777778,-0.19958333333333333],[-0.0003949652777777778,-0.19958333333333333],[-0.0003949652777777778,-0.19958333333333333],[-0.0003949652777777778,-0.19958333333333333],[-0.0003949652777777778,-0.19958333333333333],[-0.0003949652777777778,-0.19958333333333333],[-0.0003949652777777778,-0.19958333333333333],[-0.0003949652777777778,-0.19958333333333333],[-0.0003949652777777778,-0.19958333333333333],[-0.0003949652777777778,-0.19958333333333333],[-0.0003949652777777778,-0.19958333333333333],[-0.0003949652777777778,-0.19958333333333333],[-0.0003949652777777778,-0.19958333333333333],[-0.0003949652777777778,-0.19958333333333333],[-0.0003949652777777778,-0.19958333333333333],[-0.0003949652777777778,-0.19958333333333333],[-0.0003949652777777778,-0.19958333333333333],[-0.0003949652777777778,-0.19958333333333333],[0.0001171875,-0.19958333333333333],[0.0017838541666666667,-0.19958333333333333],[0.002699652777777778,-0.19958333333333333],[0.0036197916666666666,-0.19958333333333333],[0.004188368055555555,-0.19958333333333333],[0.004756944444444445,-0.19958333333333333],[0.005043402777777778,-0.19958333333333333],[0.0053125,-0.19958333333333333],[0.005577256944444445,-0.19958333333333333],[0.005846354166666666,-0.19958333333333333],[0.005846354166666666,-0.19958333333333333],[0.006111111111111111,-0.19958333333333333],[0.006375868055555556,-0.19958333333333333],[0.006375868055555556,-0.19958333333333333],[0.006636284722222222,-0.19958333333333333],[0.007191840277777778,-0.19958333333333333],[0.0088671875,-0.19891059027777777],[0.013559027777777777,-0.19720052083333334],[0.019457465277777777,-0.19538194444444446],[0.02899739583333333,-0.19219618055555557],[0.04205729166666667,-0.1874392361111111],[0.057421875,-0.1816579861111111],[0.07218315972222222,-0.1752387152777778],[0.08797309027777778,-0.16799479166666667],[0.10272135416666667,-0.1609592013888889],[0.1151779513888889,-0.15502170138888888],[0.12621961805555557,-0.14921440972222222],[0.13571180555555556,-0.14498697916666667],[0.14177951388888888,-0.1422439236111111],[0.14855902777777777,-0.13883680555555555],[0.15580729166666665,-0.13546440972222223],[0.1613454861111111,-0.1330685763888889],[0.1668185763888889,-0.12985243055555556],[0.17384114583333332,-0.12583333333333332],[0.18069010416666667,-0.12143663194444444],[0.19399739583333334,-0.11197482638888889],[0.20278645833333334,-0.10590711805555555],[0.21101996527777778,-0.09931857638888889],[0.21907118055555555,-0.092890625],[0.22599392361111112,-0.08754340277777778],[0.23253038194444445,-0.08200520833333333],[0.23694444444444446,-0.07805555555555556],[0.2421310763888889,-0.07380642361111112],[0.2459375,-0.07083333333333333],[0.2491970486111111,-0.06797309027777777],[0.2530642361111111,-0.0645095486111111],[0.2557465277777778,-0.062165798611111114],[0.2590104166666667,-0.05930121527777778],[0.2612847222222222,-0.05701822916666666],[0.2625390625,-0.055755208333333334],[0.2631423611111111,-0.05482638888888889],[0.2631423611111111,-0.054535590277777775],[0.2631423611111111,-0.05426215277777778],[0.2631423611111111,-0.05426215277777778],[0.2631423611111111,-0.05426215277777778],[0.2625868055555556,-0.05426215277777778],[0.2620095486111111,-0.05426215277777778],[0.26143229166666665,-0.05426215277777778],[0.26114149305555556,-0.05426215277777778],[0.26114149305555556,-0.05426215277777778],[0.26114149305555556,-0.05426215277777778],[0.26114149305555556,-0.05426215277777778],[0.26114149305555556,-0.05426215277777778],[0.26114149305555556,-0.05426215277777778]],[[-0.006319444444444444,-0.198203125],[-0.006319444444444444,-0.198203125],[-0.006319444444444444,-0.198203125],[-0.006319444444444444,-0.198203125],[-0.006319444444444444,-0.198203125],[-0.006319444444444444,-0.198203125],[-0.006319444444444444,-0.198203125],[-0.006319444444444444,-0.198203125],[-0.006319444444444444,-0.198203125],[-0.006319444444444444,-0.198203125],[-0.006319444444444444,-0.198203125],[-0.006840277777777778,-0.198203125],[-0.012795138888888889,-0.198203125],[-0.022473958333333332,-0.19600260416666668],[-0.03453125,-0.19426649305555554],[-0.046514756944444444,-0.19253038194444444],[-0.06509114583333334,-0.18967447916666666],[-0.08202690972222222,-0.1870659722222222],[-0.09606770833333333,-0.18574652777777778],[-0.11407552083333333,-0.18307725694444443],[-0.1300954861111111,-0.18051215277777777],[-0.14618055555555556,-0.1785980902777778],[-0.1597873263888889,-0.17563368055555556],[-0.1742144097222222,-0.16998697916666666],[-0.18807725694444444,-0.1637109375],[-0.20094184027777778,-0.15637152777777777],[-0.21588541666666666,-0.14677083333333332],[-0.22408420138888888,-0.14022569444444444],[-0.23274305555555555,-0.13426649305555555],[-0.2420746527777778,-0.12768663194444443],[-0.25143229166666664,-0.12162326388888889],[-0.2596267361111111,-0.11451822916666667],[-0.26687065972222224,-0.10777777777777778],[-0.2708767361111111,-0.1032986111111111],[-0.2749826388888889,-0.09828993055555556],[-0.2774348958333333,-0.09420138888888889],[-0.2790407986111111,-0.09016059027777777],[-0.28024305555555556,-0.08661024305555555],[-0.2810243055555556,-0.08308159722222222],[-0.2818185763888889,-0.0795095486111111],[-0.28327690972222225,-0.07694878472222222],[-0.2852690972222222,-0.07379340277777778],[-0.2876953125,-0.07055989583333333],[-0.2920703125,-0.06658854166666667],[-0.29311631944444444,-0.06588975694444445],[-0.2966753472222222,-0.06516927083333333],[-0.298359375,-0.06516927083333333],[-0.29962239583333333,-0.06516927083333333],[-0.29962239583333333,-0.06516927083333333],[-0.29962239583333333,-0.06516927083333333],[-0.29962239583333333,-0.06516927083333333],[-0.29962239583333333,-0.06516927083333333],[-0.29962239583333333,-0.06516927083333333]]]",2,"[86,53]",,,,,,,,,,,,,,bistrooutdoor6.jpg,space,20.8289,0,1,1,22,1,bowlingalley5.jpg,church6.jpg,cargo5.jpg,cemetery.jpg,,
Image_List_5,,,,,,,,,,,,,,,,46621,2022-01-30_18h22.49.704,analogCatScenes,2020.1.3,MacIntel,60,"[1440,900]","[[[0.00008680555555555556,-0.1939453125],[0.00008680555555555556,-0.1939453125],[0.00008680555555555556,-0.1939453125],[0.00008680555555555556,-0.1939453125],[0.00008680555555555556,-0.1939453125],[0.00008680555555555556,-0.1939453125],[0.00008680555555555556,-0.1939453125],[0.00008680555555555556,-0.1939453125],[0.00008680555555555556,-0.1939453125],[0.00008680555555555556,-0.1939453125],[0.00008680555555555556,-0.1939453125],[-0.0004296875,-0.1939453125],[-0.000703125,-0.1939453125],[-0.0012586805555555556,-0.1939453125],[-0.0015321180555555557,-0.1939453125],[-0.002443576388888889,-0.19364149305555556],[-0.004709201388888889,-0.19137586805555556],[-0.008563368055555555,-0.18796440972222223],[-0.014839409722222223,-0.18365885416666666],[-0.02263888888888889,-0.17846788194444443],[-0.030694444444444444,-0.17494357638888888],[-0.038663194444444444,-0.17244791666666667],[-0.04743055555555555,-0.16989149305555556],[-0.0638845486111111,-0.16587673611111112],[-0.08099392361111112,-0.16061197916666667],[-0.09666232638888889,-0.15430555555555556],[-0.11639756944444445,-0.14653645833333334],[-0.1321701388888889,-0.13865017361111112],[-0.14415364583333334,-0.13212239583333332],[-0.15375868055555555,-0.12533854166666666],[-0.1656467013888889,-0.11682291666666667],[-0.17163628472222223,-0.11083333333333334],[-0.1774609375,-0.10548177083333334],[-0.18206597222222223,-0.10087673611111111],[-0.1883159722222222,-0.09407552083333333],[-0.1931987847222222,-0.08878038194444444],[-0.19690972222222222,-0.08322048611111112],[-0.20050347222222223,-0.07874131944444444],[-0.2057204861111111,-0.07147135416666667],[-0.20930121527777779,-0.06700954861111111],[-0.2139236111111111,-0.06085069444444444],[-0.21766493055555555,-0.0551953125],[-0.22305121527777777,-0.047174479166666665],[-0.22694010416666666,-0.04084635416666667],[-0.22986979166666666,-0.037083333333333336],[-0.23298611111111112,-0.032213541666666665],[-0.23586371527777777,-0.028923611111111112],[-0.2386328125,-0.02615451388888889],[-0.2424045138888889,-0.023129340277777778],[-0.24555555555555555,-0.021141493055555554],[-0.2487109375,-0.019149305555555555],[-0.2522829861111111,-0.017569444444444443],[-0.2563237847222222,-0.016345486111111113],[-0.2604210069444444,-0.015933159722222222],[-0.26397569444444446,-0.015143229166666666],[-0.2675434027777778,-0.013971354166666667],[-0.2700564236111111,-0.013250868055555556],[-0.27307725694444446,-0.012495659722222222],[-0.2761111111111111,-0.011731770833333334],[-0.28023003472222224,-0.010477430555555556],[-0.2843359375,-0.008832465277777778],[-0.28901909722222224,-0.007131076388888889],[-0.2937065972222222,-0.006276041666666667],[-0.2977604166666667,-0.005464409722222222],[-0.3007986111111111,-0.005082465277777778],[-0.3038237847222222,-0.005082465277777778],[-0.30638020833333335,-0.005082465277777778],[-0.3094791666666667,-0.005082465277777778],[-0.3107508680555556,-0.004765625],[-0.31167534722222223,-0.0044444444444444444],[-0.31225260416666667,-0.004153645833333333],[-0.31254340277777776,-0.004153645833333333],[-0.31254340277777776,-0.004153645833333333],[-0.31254340277777776,-0.004153645833333333],[-0.31254340277777776,-0.004153645833333333],[-0.31254340277777776,-0.004153645833333333],[-0.31254340277777776,-0.004153645833333333],[-0.31254340277777776,-0.004153645833333333],[-0.31254340277777776,-0.004153645833333333],[-0.31254340277777776,-0.004153645833333333],[-0.31254340277777776,-0.004153645833333333],[-0.31254340277777776,-0.004153645833333333],[-0.31254340277777776,-0.004153645833333333],[-0.31254340277777776,-0.004153645833333333],[-0.31254340277777776,-0.004153645833333333],[-0.31254340277777776,-0.004153645833333333],[-0.31254340277777776,-0.004153645833333333],[-0.31254340277777776,-0.004153645833333333],[-0.31254340277777776,-0.004153645833333333]],[[-0.005143229166666667,-0.1996875],[-0.005143229166666667,-0.1996875],[-0.005143229166666667,-0.1996875],[-0.005143229166666667,-0.1996875],[-0.005143229166666667,-0.1996875],[-0.005143229166666667,-0.1996875],[-0.005143229166666667,-0.1996875],[-0.005143229166666667,-0.1996875],[-0.005143229166666667,-0.1996875],[-0.0064453125,-0.1996875],[-0.009926215277777779,-0.1996875],[-0.013572048611111111,-0.1996875],[-0.0234375,-0.1996875],[-0.03309027777777778,-0.1996875],[-0.0459765625,-0.1996875],[-0.060034722222222225,-0.1996875],[-0.07498697916666666,-0.19906684027777777],[-0.09250868055555556,-0.19741753472222223],[-0.10471788194444444,-0.19741753472222223],[-0.11692708333333333,-0.19741753472222223],[-0.12348090277777778,-0.19741753472222223],[-0.1435720486111111,-0.19741753472222223],[-0.16512586805555557,-0.19741753472222223],[-0.17798177083333333,-0.19741753472222223],[-0.1961935763888889,-0.1987326388888889],[-0.2121484375,-0.20128038194444445],[-0.2262326388888889,-0.20371961805555555],[-0.23637152777777778,-0.2063845486111111],[-0.2466796875,-0.2085503472222222],[-0.25788628472222225,-0.21078559027777777],[-0.2659635416666667,-0.2128515625],[-0.27554253472222223,-0.2145095486111111],[-0.2828515625,-0.2159765625],[-0.2913107638888889,-0.21644097222222222],[-0.29541232638888887,-0.21644097222222222],[-0.29692708333333334,-0.21644097222222222],[-0.3009592013888889,-0.21644097222222222],[-0.3026388888888889,-0.21644097222222222],[-0.30356336805555556,-0.21644097222222222],[-0.3041362847222222,-0.21644097222222222],[-0.3041362847222222,-0.21644097222222222],[-0.3041362847222222,-0.21644097222222222],[-0.3041362847222222,-0.21644097222222222],[-0.3041362847222222,-0.21618055555555554],[-0.3041362847222222,-0.21525607638888888],[-0.3035026041666667,-0.21391927083333334]]]",2,"[89,46]",,,,,,,,,,,,,,winebarrel2.jpg,space,6.1456,0,2,2,98,1,weightroom5.jpg,wineVineyard8.jpg,warehouse3.jpg,winebarrel4.jpg,,
Image_List_5,,,,,,,,,,,,,,,,46621,2022-01-30_18h22.49.704,analogCatScenes,2020.1.3,MacIntel,60,"[1440,900]","[[[-0.006827256944444445,-0.1999262152777778],[-0.006827256944444445,-0.1999262152777778],[-0.006827256944444445,-0.1999262152777778],[-0.006827256944444445,-0.1999262152777778],[-0.006827256944444445,-0.1999262152777778],[-0.006827256944444445,-0.1999262152777778],[-0.006827256944444445,-0.1999262152777778],[-0.006827256944444445,-0.1999262152777778],[-0.006827256944444445,-0.1999262152777778],[-0.006827256944444445,-0.1999262152777778],[-0.006827256944444445,-0.1999262152777778],[-0.006827256944444445,-0.1999262152777778],[-0.006827256944444445,-0.1999262152777778],[-0.006827256944444445,-0.1999262152777778],[-0.006827256944444445,-0.1999262152777778],[-0.006827256944444445,-0.1999262152777778],[-0.006827256944444445,-0.1999262152777778],[-0.006827256944444445,-0.1999262152777778],[-0.006827256944444445,-0.1999262152777778],[-0.006827256944444445,-0.1999262152777778],[-0.006827256944444445,-0.1999262152777778],[-0.006827256944444445,-0.1999262152777778],[-0.006827256944444445,-0.1999262152777778],[-0.006827256944444445,-0.1999262152777778],[-0.006827256944444445,-0.1996657986111111],[-0.007465277777777778,-0.19838975694444444],[-0.008138020833333334,-0.19670572916666668],[-0.010069444444444445,-0.19401475694444445],[-0.013055555555555556,-0.18976996527777779],[-0.017326388888888888,-0.1835373263888889],[-0.0218359375,-0.17652777777777778],[-0.03039496527777778,-0.16696180555555556],[-0.037404513888888886,-0.161953125],[-0.04126736111111111,-0.16002170138888888],[-0.053350694444444444,-0.15498697916666668],[-0.06296006944444445,-0.15071180555555555],[-0.07389322916666667,-0.14437934027777777],[-0.08737413194444445,-0.13702690972222223],[-0.100546875,-0.12887152777777777],[-0.11309895833333333,-0.12171006944444444],[-0.1278125,-0.11404513888888888],[-0.1436111111111111,-0.10548611111111111],[-0.15832899305555556,-0.0971484375],[-0.1721310763888889,-0.08962239583333333],[-0.18368055555555557,-0.08440538194444444],[-0.19401909722222221,-0.08114149305555556],[-0.2041189236111111,-0.0784765625],[-0.21373697916666667,-0.07579861111111111],[-0.22408420138888888,-0.07199652777777778],[-0.237734375,-0.06513888888888889],[-0.24657118055555555,-0.06148871527777778],[-0.2513454861111111,-0.0593359375],[-0.2567057291666667,-0.05668402777777778],[-0.2607248263888889,-0.05548611111111111],[-0.26483072916666667,-0.054661458333333336],[-0.27076822916666665,-0.05371961805555556],[-0.2759288194444444,-0.052855902777777776],[-0.28252604166666667,-0.050967881944444446],[-0.2878732638888889,-0.05008680555555556],[-0.29479600694444447,-0.048081597222222223],[-0.301953125,-0.04600694444444445],[-0.3077560763888889,-0.04422743055555556],[-0.31243489583333334,-0.04208767361111111],[-0.31559461805555555,-0.04009548611111111],[-0.3177907986111111,-0.0383203125],[-0.31915364583333333,-0.036987847222222224],[-0.3194444444444444,-0.03640625],[-0.3194444444444444,-0.03582465277777778],[-0.3194444444444444,-0.03582465277777778],[-0.3194444444444444,-0.03582465277777778],[-0.3194444444444444,-0.03582465277777778],[-0.3189105902777778,-0.03582465277777778],[-0.3189105902777778,-0.03582465277777778],[-0.3189105902777778,-0.03582465277777778],[-0.3189105902777778,-0.03582465277777778]],[[-0.004904513888888889,-0.20043836805555557],[-0.004904513888888889,-0.20043836805555557],[-0.004904513888888889,-0.20043836805555557],[-0.004904513888888889,-0.20043836805555557],[-0.004904513888888889,-0.20043836805555557],[-0.004904513888888889,-0.20043836805555557],[-0.004904513888888889,-0.20043836805555557],[-0.004904513888888889,-0.20043836805555557],[-0.004904513888888889,-0.20043836805555557],[-0.004904513888888889,-0.20043836805555557],[-0.004904513888888889,-0.20043836805555557],[-0.004904513888888889,-0.20043836805555557],[-0.004904513888888889,-0.20043836805555557],[-0.004405381944444444,-0.19510416666666666],[0.004509548611111111,-0.18106770833333333],[0.019131944444444444,-0.16194444444444445],[0.04318576388888889,-0.13705729166666666],[0.07099826388888889,-0.1144921875],[0.11796006944444444,-0.08256944444444445],[0.15133246527777777,-0.0636328125],[0.18094618055555556,-0.049227430555555556],[0.19889322916666666,-0.04178385416666667],[0.21698784722222222,-0.03508246527777778],[0.22614149305555556,-0.03286024305555556],[0.23555555555555555,-0.030785590277777778],[0.24288194444444444,-0.029809027777777778],[0.2482204861111111,-0.0293359375],[0.25288628472222224,-0.028893229166666666],[0.255859375,-0.028893229166666666],[0.25840277777777776,-0.028893229166666666],[0.2609592013888889,-0.028893229166666666],[0.2639626736111111,-0.028893229166666666],[0.26752604166666666,-0.028893229166666666],[0.2716232638888889,-0.028893229166666666],[0.2746354166666667,-0.028893229166666666],[0.27731770833333336,-0.028893229166666666],[0.277890625,-0.0291796875],[0.27817274305555556,-0.0291796875],[0.27817274305555556,-0.0291796875],[0.27817274305555556,-0.029440104166666668],[0.27817274305555556,-0.029440104166666668],[0.27817274305555556,-0.029440104166666668]]]",2,"[75,42]",,,,,,,,,,,,,,backyard1.jpg,space,4.9002,0,3,3,11,1,backyard2.jpg,basketballcourt4.jpg,bambooforest3.jpg,baywindow5.jpg,,
Image_List_5,,,,,,,,,,,,,,,,46621,2022-01-30_18h22.49.704,analogCatScenes,2020.1.3,MacIntel,60,"[1440,900]","[[[0.0002777777777777778,-0.19374131944444445],[0.0002777777777777778,-0.19374131944444445],[0.0002777777777777778,-0.19374131944444445],[0.0002777777777777778,-0.19374131944444445],[0.0002777777777777778,-0.19374131944444445],[0.0002777777777777778,-0.19374131944444445],[0.0002777777777777778,-0.19374131944444445],[0.0002777777777777778,-0.19374131944444445],[0.0002777777777777778,-0.19374131944444445],[0.0002777777777777778,-0.19374131944444445],[0.0002777777777777778,-0.19374131944444445],[0.0002777777777777778,-0.19374131944444445],[0.0002777777777777778,-0.19374131944444445],[0.0002777777777777778,-0.19374131944444445],[0.0002777777777777778,-0.19374131944444445],[0.0002777777777777778,-0.19374131944444445],[-0.0004991319444444444,-0.19374131944444445],[-0.006388888888888889,-0.19374131944444445],[-0.018723958333333332,-0.19374131944444445],[-0.0358203125,-0.19504774305555556],[-0.05318142361111111,-0.19504774305555556],[-0.07296875,-0.19504774305555556],[-0.09118055555555556,-0.19504774305555556],[-0.1071267361111111,-0.19121961805555557],[-0.12018663194444444,-0.18824652777777778],[-0.13121961805555554,-0.1860373263888889],[-0.1424782986111111,-0.1849045138888889],[-0.15378038194444443,-0.1849045138888889],[-0.16423177083333335,-0.18437065972222222],[-0.1741623263888889,-0.18388888888888888],[-0.1807769097222222,-0.18341579861111112],[-0.18737413194444444,-0.18341579861111112],[-0.19002170138888888,-0.18341579861111112],[-0.20163194444444443,-0.18341579861111112],[-0.2089670138888889,-0.18341579861111112],[-0.21630208333333334,-0.18391493055555555],[-0.22227864583333334,-0.1844097222222222],[-0.2311154513888889,-0.1844097222222222],[-0.23647135416666668,-0.18487847222222223],[-0.2436328125,-0.18487847222222223],[-0.25024739583333333,-0.18487847222222223],[-0.25903645833333333,-0.18487847222222223],[-0.26437934027777776,-0.18487847222222223],[-0.2701779513888889,-0.18487847222222223],[-0.2748784722222222,-0.18446614583333334],[-0.2795486111111111,-0.1840277777777778],[-0.28554253472222224,-0.1840277777777778],[-0.2930989583333333,-0.1840277777777778],[-0.2993880208333333,-0.18311197916666666],[-0.30467881944444447,-0.18090277777777777],[-0.3078168402777778,-0.18000434027777779],[-0.31475694444444446,-0.17612413194444446],[-0.31942274305555557,-0.17401909722222222],[-0.3229861111111111,-0.17243923611111112],[-0.3255208333333333,-0.1709939236111111],[-0.3276128472222222,-0.16959635416666666],[-0.32979166666666665,-0.16776475694444445],[-0.33106336805555553,-0.16649305555555555],[-0.33272569444444444,-0.16551215277777778],[-0.3344097222222222,-0.16516059027777777],[-0.33609375,-0.16448784722222223],[-0.3377560763888889,-0.16348090277777777],[-0.3395920138888889,-0.16129774305555555],[-0.34151041666666665,-0.15862413194444444],[-0.34346788194444444,-0.15357204861111112],[-0.3443185763888889,-0.14888888888888888],[-0.34532552083333334,-0.1448611111111111],[-0.34627604166666665,-0.13442708333333334],[-0.34627604166666665,-0.12559895833333334],[-0.34627604166666665,-0.11465277777777778],[-0.34627604166666665,-0.10719618055555556],[-0.34627604166666665,-0.09915798611111111],[-0.34627604166666665,-0.09386284722222223],[-0.34627604166666665,-0.09036458333333333],[-0.3459288194444444,-0.08868055555555555],[-0.34564236111111113,-0.0877560763888889],[-0.34564236111111113,-0.08717447916666667],[-0.34536024305555557,-0.0866015625],[-0.34536024305555557,-0.08631076388888889],[-0.34536024305555557,-0.08603732638888889],[-0.34536024305555557,-0.08576822916666667],[-0.34536024305555557,-0.08549913194444445],[-0.34536024305555557,-0.08549913194444445],[-0.34536024305555557,-0.08523003472222222],[-0.34536024305555557,-0.08495659722222222],[-0.34536024305555557,-0.08468315972222222],[-0.34536024305555557,-0.0841189236111111],[-0.34536024305555557,-0.08319878472222222],[-0.34536024305555557,-0.08227430555555555],[-0.34536024305555557,-0.0809982638888889],[-0.34536024305555557,-0.0793185763888889],[-0.34536024305555557,-0.07839409722222222],[-0.34536024305555557,-0.07746961805555555],[-0.34536024305555557,-0.07717881944444445],[-0.34536024305555557,-0.07690538194444445],[-0.34536024305555557,-0.07690538194444445],[-0.34536024305555557,-0.07690538194444445],[-0.34536024305555557,-0.07690538194444445],[-0.34536024305555557,-0.07690538194444445],[-0.34536024305555557,-0.07716145833333334],[-0.34586371527777776,-0.08370659722222222],[-0.34586371527777776,-0.08370659722222222],[-0.34586371527777776,-0.08370659722222222]],[[-0.003185763888888889,-0.19042534722222224],[-0.003185763888888889,-0.19042534722222224],[-0.003185763888888889,-0.19042534722222224],[-0.003185763888888889,-0.19042534722222224],[-0.003185763888888889,-0.19042534722222224],[-0.003185763888888889,-0.19042534722222224],[-0.003185763888888889,-0.19042534722222224],[-0.003185763888888889,-0.19042534722222224],[-0.003185763888888889,-0.19042534722222224],[-0.003185763888888889,-0.19042534722222224],[-0.003185763888888889,-0.19042534722222224],[-0.002673611111111111,-0.19042534722222224],[0.002599826388888889,-0.19042534722222224],[0.017491319444444445,-0.19042534722222224],[0.0305078125,-0.19042534722222224],[0.050238715277777776,-0.19042534722222224],[0.06934461805555556,-0.19042534722222224],[0.08953559027777777,-0.19042534722222224],[0.10740017361111111,-0.18976996527777779],[0.12441840277777778,-0.18845486111111112],[0.13838975694444444,-0.186640625],[0.15102864583333334,-0.1854861111111111],[0.16228732638888888,-0.1843532986111111],[0.17260416666666667,-0.18381510416666666],[0.17867621527777777,-0.18289930555555556],[0.18577256944444445,-0.18194878472222223],[0.1938498263888889,-0.18094184027777777],[0.19978298611111112,-0.17958333333333334],[0.20763020833333334,-0.1782769097222222],[0.21441840277777777,-0.17722222222222223],[0.22033854166666667,-0.1763107638888889],[0.22717881944444446,-0.17524305555555555],[0.23244357638888888,-0.17480034722222224],[0.2365234375,-0.17356770833333332],[0.24051649305555556,-0.17237413194444445],[0.246015625,-0.1696657986111111],[0.2528255208333333,-0.16573350694444444],[0.2598654513888889,-0.16120225694444446],[0.2648263888888889,-0.15713541666666667],[0.26999131944444443,-0.15289930555555556],[0.27383246527777777,-0.1494921875],[0.2761545138888889,-0.1467534722222222],[0.27728732638888887,-0.1437152777777778],[0.2781640625,-0.13843315972222223],[0.27912326388888886,-0.13118489583333334],[0.28174045138888887,-0.11705729166666666],[0.2833984375,-0.10662326388888889],[0.28399305555555554,-0.10007378472222223],[0.2854513888888889,-0.08815972222222222],[0.28595052083333333,-0.08151041666666667],[0.28595052083333333,-0.07690104166666667],[0.28595052083333333,-0.07480902777777777],[0.28595052083333333,-0.07353298611111111],[0.2853472222222222,-0.0726171875],[0.2843880208333333,-0.07165798611111111],[0.28311631944444443,-0.07038628472222222],[0.28163194444444445,-0.0673828125],[0.28046875,-0.06431423611111112],[0.2793315972222222,-0.061293402777777777],[0.2782855902777778,-0.059205729166666665],[0.27796875,-0.05793836805555556],[0.27764756944444446,-0.05700954861111111],[0.2773567708333333,-0.05700954861111111],[0.2773567708333333,-0.05700954861111111],[0.2770920138888889,-0.05700954861111111],[0.2770920138888889,-0.05700954861111111]]]",2,"[103,66]",,,,,,,,,,,,,,fireplace4.jpg,space,6.0795,0,4,4,50,1,frontLawn4.jpg,grocerystore6.jpg,forestpath6.jpg,hallway2.jpg,,
Image_List_5,,,,,,,,,,,,,,,,46621,2022-01-30_18h22.49.704,analogCatScenes,2020.1.3,MacIntel,60,"[1440,900]","[[[0.00016493055555555556,-0.19858506944444446],[0.00016493055555555556,-0.19858506944444446],[0.00016493055555555556,-0.19858506944444446],[0.00016493055555555556,-0.19858506944444446],[0.00016493055555555556,-0.19858506944444446],[0.00016493055555555556,-0.19858506944444446],[0.00016493055555555556,-0.19858506944444446],[0.00016493055555555556,-0.19803819444444445],[0.00016493055555555556,-0.197109375],[0.00016493055555555556,-0.19354166666666667],[0.0028038194444444443,-0.18824652777777778],[0.008706597222222221,-0.18019965277777777],[0.017330729166666666,-0.16796440972222224],[0.031966145833333334,-0.14883680555555556],[0.041484375,-0.13551215277777778],[0.04743055555555555,-0.12876302083333332],[0.05330295138888889,-0.12074652777777778],[0.058441840277777775,-0.11403211805555556],[0.06176215277777778,-0.10788194444444445],[0.06517795138888889,-0.10106770833333334],[0.06739583333333334,-0.0957421875],[0.0691189236111111,-0.09106770833333333],[0.07034722222222223,-0.08696180555555555],[0.07265625,-0.08051649305555555],[0.07629774305555556,-0.0716796875],[0.08001302083333334,-0.06211805555555556],[0.08239149305555556,-0.05546440972222222],[0.0845529513888889,-0.050277777777777775],[0.08530815972222222,-0.047239583333333335],[0.08565538194444444,-0.04555555555555556],[0.08565538194444444,-0.044973958333333335],[0.08536458333333333,-0.044110243055555554],[0.08444010416666667,-0.04350260416666667],[0.08351128472222222,-0.042890625],[0.08293402777777778,-0.04231336805555556],[0.08264322916666667,-0.04202256944444444],[0.08235243055555555,-0.04202256944444444],[0.08207899305555555,-0.04202256944444444],[0.08207899305555555,-0.04202256944444444],[0.0818142361111111,-0.04202256944444444],[0.0818142361111111,-0.04202256944444444],[0.08154947916666666,-0.04202256944444444],[0.08154947916666666,-0.04202256944444444]],[[-0.0058246527777777776,-0.19684027777777777],[-0.0058246527777777776,-0.19684027777777777],[-0.0058246527777777776,-0.19684027777777777],[-0.0058246527777777776,-0.19684027777777777],[-0.0058246527777777776,-0.19684027777777777],[-0.0058246527777777776,-0.19684027777777777],[-0.0058246527777777776,-0.19684027777777777],[-0.0058246527777777776,-0.19684027777777777],[-0.0058246527777777776,-0.19631944444444444],[-0.0058246527777777776,-0.19422743055555555],[-0.0058246527777777776,-0.19168402777777777],[-0.0058246527777777776,-0.1864105902777778],[-0.0058246527777777776,-0.1810503472222222],[-0.0058246527777777776,-0.17223958333333333],[-0.005234375,-0.16006944444444443],[-0.004105902777777778,-0.14729600694444445],[-0.0034809027777777776,-0.1323220486111111],[-0.002243923611111111,-0.1173220486111111],[-0.0011892361111111112,-0.09949652777777777],[-0.0011892361111111112,-0.09297309027777778],[-0.0011892361111111112,-0.08442708333333333],[-0.0011892361111111112,-0.07704427083333333],[-0.0011892361111111112,-0.0740234375],[-0.0015060763888888888,-0.07234809027777778],[-0.0018272569444444445,-0.07107638888888888],[-0.0018272569444444445,-0.07015190972222222],[-0.0018272569444444445,-0.06923177083333333],[-0.0018272569444444445,-0.06830729166666667],[-0.0018272569444444445,-0.06773003472222222],[-0.0018272569444444445,-0.06715277777777778],[-0.0018272569444444445,-0.06657552083333333],[-0.0018272569444444445,-0.06657552083333333],[-0.0018272569444444445,-0.06657552083333333],[-0.0018272569444444445,-0.06657552083333333],[-0.0018272569444444445,-0.06657552083333333],[-0.0018272569444444445,-0.06657552083333333],[-0.0018272569444444445,-0.06657552083333333],[-0.0018272569444444445,-0.06657552083333333],[-0.0018272569444444445,-0.06657552083333333],[-0.0018272569444444445,-0.06567708333333333],[-0.0018272569444444445,-0.06312065972222222],[-0.0018272569444444445,-0.06013020833333333],[-0.0018272569444444445,-0.05709635416666667],[-0.0018272569444444445,-0.0530078125],[-0.0018272569444444445,-0.05000868055555555],[-0.0018272569444444445,-0.04792100694444444],[-0.0018272569444444445,-0.04666232638888889],[-0.0018272569444444445,-0.04608072916666667],[-0.0018272569444444445,-0.04578993055555555],[-0.0018272569444444445,-0.04578993055555555],[-0.0018272569444444445,-0.04578993055555555],[-0.0018272569444444445,-0.04578993055555555],[-0.0018272569444444445,-0.04578993055555555],[-0.0018272569444444445,-0.04578993055555555],[-0.0018272569444444445,-0.04578993055555555],[-0.0018272569444444445,-0.04578993055555555],[-0.0018272569444444445,-0.04578993055555555],[-0.0018272569444444445,-0.046328125],[-0.0021788194444444446,-0.04736979166666667]],[[-0.0008420138888888889,-0.19380208333333335],[-0.0008420138888888889,-0.19380208333333335],[-0.0008420138888888889,-0.19380208333333335],[-0.0008420138888888889,-0.19380208333333335],[-0.0008420138888888889,-0.19380208333333335],[-0.0008420138888888889,-0.19380208333333335],[-0.0008420138888888889,-0.19380208333333335],[-0.0008420138888888889,-0.19380208333333335],[-0.0008420138888888889,-0.19380208333333335],[-0.0008420138888888889,-0.19380208333333335],[-0.0008420138888888889,-0.19380208333333335],[-0.0008420138888888889,-0.19380208333333335],[-0.0008420138888888889,-0.19380208333333335],[-0.0008420138888888889,-0.19380208333333335],[-0.0008420138888888889,-0.19380208333333335],[-0.0008420138888888889,-0.19380208333333335],[-0.0011024305555555555,-0.19380208333333335],[-0.010399305555555556,-0.19184895833333335],[-0.026462673611111112,-0.18671440972222222],[-0.04614149305555556,-0.1819704861111111],[-0.07023003472222222,-0.17726996527777777],[-0.08428819444444445,-0.17484375],[-0.09926215277777778,-0.1717013888888889],[-0.10665798611111112,-0.1701953125],[-0.11813368055555555,-0.16620225694444443],[-0.12608072916666666,-0.16371527777777778],[-0.1340017361111111,-0.16124131944444445],[-0.14168836805555557,-0.15928819444444445],[-0.15052517361111112,-0.1572092013888889],[-0.16011284722222222,-0.1561371527777778],[-0.173046875,-0.15549913194444445],[-0.18806423611111112,-0.15486979166666667],[-0.20117621527777776,-0.15427083333333333],[-0.21417534722222223,-0.15220486111111112],[-0.22313368055555555,-0.14965277777777777],[-0.22859375,-0.14645399305555556],[-0.2330642361111111,-0.14286458333333332],[-0.2387152777777778,-0.13909288194444444],[-0.24337239583333334,-0.1365625],[-0.24872829861111112,-0.13391493055555556],[-0.2546614583333333,-0.13208767361111112],[-0.2599565972222222,-0.12987847222222224],[-0.2671527777777778,-0.1274609375],[-0.2734722222222222,-0.12456597222222222],[-0.27792534722222223,-0.12145833333333333],[-0.2829513888888889,-0.1178125],[-0.2868880208333333,-0.11387586805555555],[-0.289765625,-0.11017795138888889],[-0.2922309027777778,-0.10689236111111111],[-0.2942751736111111,-0.10280815972222222],[-0.2974609375,-0.09764756944444444],[-0.2989105902777778,-0.09510416666666667],[-0.2998958333333333,-0.09342447916666667],[-0.30018663194444445,-0.09284288194444444],[-0.30047743055555554,-0.09284288194444444],[-0.3007465277777778,-0.09284288194444444],[-0.3007465277777778,-0.09284288194444444],[-0.3007465277777778,-0.09310329861111111],[-0.3007465277777778,-0.09338975694444444]],[[0.005303819444444444,-0.19779079861111112],[0.005303819444444444,-0.19779079861111112],[0.005303819444444444,-0.19779079861111112],[0.005303819444444444,-0.19779079861111112],[0.005303819444444444,-0.19779079861111112],[0.005303819444444444,-0.19779079861111112],[0.005303819444444444,-0.19779079861111112],[0.005303819444444444,-0.19779079861111112],[0.005303819444444444,-0.19779079861111112],[0.005303819444444444,-0.19779079861111112],[0.005303819444444444,-0.19779079861111112],[0.005303819444444444,-0.19779079861111112],[0.005303819444444444,-0.19779079861111112],[0.005815972222222222,-0.19779079861111112],[0.011137152777777777,-0.19779079861111112],[0.018971354166666666,-0.19779079861111112],[0.0294140625,-0.19779079861111112],[0.043407118055555555,-0.19779079861111112],[0.0591015625,-0.19779079861111112],[0.07591145833333333,-0.19779079861111112],[0.09294704861111111,-0.19713107638888888],[0.10860677083333334,-0.19524739583333334],[0.12259114583333333,-0.19340711805555555],[0.13381944444444444,-0.19115451388888888],[0.14115017361111112,-0.18965711805555555],[0.1484765625,-0.18770399305555555],[0.15376302083333335,-0.18549479166666666],[0.16038194444444445,-0.18219184027777777],[0.1644487847222222,-0.1797439236111111],[0.1690017361111111,-0.17653211805555555],[0.17522135416666668,-0.17221354166666666],[0.18006510416666666,-0.16952256944444444],[0.18551649305555556,-0.16632378472222223],[0.1895486111111111,-0.16429253472222222],[0.19309895833333332,-0.1627170138888889],[0.196640625,-0.16155381944444444],[0.19962239583333333,-0.1608029513888889],[0.2032986111111111,-0.16001302083333332],[0.20798177083333333,-0.1587456597222222],[0.21318142361111111,-0.15743055555555555],[0.21921440972222223,-0.156015625],[0.22436631944444443,-0.15429253472222224],[0.23163628472222222,-0.1513845486111111],[0.24078125,-0.14723090277777778],[0.2475607638888889,-0.14381944444444444],[0.2501909722222222,-0.1425],[0.2541970486111111,-0.14103732638888888],[0.25586805555555553,-0.1406857638888889],[0.25677517361111113,-0.14039496527777778],[0.2576909722222222,-0.14039496527777778],[0.25936197916666665,-0.14007378472222223],[0.2633810763888889,-0.1384548611111111],[0.27129774305555554,-0.1305295138888889],[0.27129774305555554,-0.1305295138888889],[0.27129774305555554,-0.1305295138888889]]]",4,"[43,59,59,55]",,,,,,,,,,,,,,firestation5.jpg,space,8.3455,0,5,5,51,1,gasstation6.jpg,hallway5.jpg,frontDoor5.jpg,hayfield4.jpg,,
Image_List_5,,,,,,,,,,,,,,,,46621,2022-01-30_18h22.49.704,analogCatScenes,2020.1.3,MacIntel,60,"[1440,900]","[[[0.0014192708333333334,-0.1943923611111111],[0.0014192708333333334,-0.1943923611111111],[0.0014192708333333334,-0.1943923611111111],[0.0014192708333333334,-0.1943923611111111],[0.0014192708333333334,-0.1943923611111111],[0.0014192708333333334,-0.1943923611111111],[0.0014192708333333334,-0.1943923611111111],[0.0014192708333333334,-0.1943923611111111],[0.0014192708333333334,-0.1943923611111111],[0.0014192708333333334,-0.1943923611111111],[0.0014192708333333334,-0.1943923611111111],[0.0014192708333333334,-0.1943923611111111],[0.0014192708333333334,-0.1943923611111111],[0.0014192708333333334,-0.1943923611111111],[0.0014192708333333334,-0.19413194444444445],[0.0014192708333333334,-0.19197916666666667],[0.0004166666666666667,-0.19032118055555555],[-0.0005078125,-0.18971354166666668],[-0.0021875,-0.18901475694444445],[-0.003845486111111111,-0.188671875],[-0.0059331597222222225,-0.188671875],[-0.012061631944444444,-0.188671875],[-0.020082465277777777,-0.188671875],[-0.025733506944444446,-0.1881032986111111],[-0.047803819444444444,-0.18424913194444445],[-0.06591145833333334,-0.18022569444444445],[-0.09053385416666666,-0.17430121527777778],[-0.11184461805555555,-0.1686154513888889],[-0.12622829861111112,-0.16358940972222222],[-0.14291666666666666,-0.15846354166666668],[-0.15871527777777777,-0.15406684027777778],[-0.17237413194444445,-0.1505078125],[-0.1854513888888889,-0.14634982638888888],[-0.19851996527777777,-0.14159288194444444],[-0.21105902777777777,-0.13562065972222223],[-0.22117621527777778,-0.1294487847222222],[-0.23050347222222223,-0.12287326388888889],[-0.236640625,-0.11771267361111111],[-0.24247829861111111,-0.11234809027777778],[-0.24703125,-0.10823784722222222],[-0.25231336805555554,-0.10251302083333333],[-0.25776909722222224,-0.0965234375],[-0.261796875,-0.09205295138888889],[-0.2657595486111111,-0.08809895833333334],[-0.26897569444444447,-0.0848828125],[-0.2742057291666667,-0.08009548611111111],[-0.2780295138888889,-0.07671006944444445],[-0.28087239583333334,-0.07346788194444444],[-0.2849609375,-0.06894097222222222],[-0.2882899305555556,-0.06517361111111111],[-0.29169270833333333,-0.061328125],[-0.29508680555555555,-0.0575],[-0.2975,-0.05427951388888889],[-0.2996744791666667,-0.05245225694444444],[-0.30093315972222223,-0.05182291666666667],[-0.30157118055555554,-0.05182291666666667],[-0.30184461805555557,-0.05182291666666667],[-0.30184461805555557,-0.05182291666666667],[-0.30184461805555557,-0.05182291666666667],[-0.30184461805555557,-0.052083333333333336]],[[-0.005407986111111111,-0.1993923611111111],[-0.005407986111111111,-0.1993923611111111],[-0.005407986111111111,-0.1993923611111111],[-0.005407986111111111,-0.1993923611111111],[-0.005407986111111111,-0.1993923611111111],[-0.005407986111111111,-0.1993923611111111],[-0.005407986111111111,-0.1993923611111111],[-0.005407986111111111,-0.1993923611111111],[-0.005407986111111111,-0.1993923611111111],[-0.005407986111111111,-0.1993923611111111],[-0.005407986111111111,-0.1993923611111111],[-0.005407986111111111,-0.1993923611111111],[-0.005407986111111111,-0.19913194444444443],[-0.005407986111111111,-0.19745659722222222],[-0.005407986111111111,-0.19579427083333334],[-0.005060763888888889,-0.1932465277777778],[-0.0026953125,-0.18662760416666666],[0.0005815972222222222,-0.17637586805555555],[0.004826388888888889,-0.162421875],[0.009301215277777778,-0.1464453125],[0.012447916666666666,-0.1306987847222222],[0.014878472222222222,-0.11685763888888889],[0.0152734375,-0.11006944444444444],[0.0152734375,-0.103515625],[0.014830729166666667,-0.09822916666666667],[0.012000868055555556,-0.094609375],[0.009014756944444445,-0.09036892361111111],[0.0051736111111111115,-0.0869704861111111],[-0.0003125,-0.0801953125],[-0.0056640625,-0.07484375],[-0.007469618055555556,-0.07213541666666666],[-0.009813368055555556,-0.06979166666666667],[-0.01677517361111111,-0.06415364583333333],[-0.021024305555555556,-0.061163194444444444],[-0.025108506944444445,-0.0587109375],[-0.028628472222222222,-0.0571484375],[-0.032174479166666665,-0.05516927083333333],[-0.035203993055555556,-0.05365451388888889],[-0.038315972222222223,-0.05168402777777778],[-0.04100694444444444,-0.049752604166666665],[-0.04319010416666667,-0.04791666666666667],[-0.045434027777777775,-0.045672743055555555],[-0.04822048611111111,-0.043298611111111114],[-0.05039930555555556,-0.04146701388888889],[-0.05312065972222222,-0.03978732638888889],[-0.05480034722222222,-0.039466145833333334],[-0.05572916666666667,-0.03885416666666667],[-0.0563671875,-0.03853298611111111],[-0.05723090277777778,-0.03795572916666667],[-0.05827690972222222,-0.03795572916666667],[-0.05827690972222222,-0.03795572916666667],[-0.05827690972222222,-0.03795572916666667]],[[0.0015885416666666667,-0.2001779513888889],[0.0015885416666666667,-0.2001779513888889],[0.0015885416666666667,-0.2001779513888889],[0.0015885416666666667,-0.2001779513888889],[0.0015885416666666667,-0.2001779513888889],[0.0015885416666666667,-0.2001779513888889],[0.0015885416666666667,-0.19965711805555555],[0.0015885416666666667,-0.1987326388888889],[0.0015885416666666667,-0.19746961805555555],[0.002599826388888889,-0.1953125],[0.004509548611111111,-0.19223958333333332],[0.007730034722222222,-0.18940538194444445],[0.012300347222222223,-0.1853342013888889],[0.021996527777777778,-0.17901909722222223],[0.030260416666666668,-0.17434895833333333],[0.035065104166666666,-0.1722092013888889],[0.04697916666666667,-0.16550347222222223],[0.05590711805555556,-0.16154947916666668],[0.06529079861111112,-0.1566015625],[0.06934461805555556,-0.1545703125],[0.0775390625,-0.15047743055555557],[0.084140625,-0.14716579861111112],[0.09138454861111112,-0.1437717013888889],[0.10044704861111112,-0.13895399305555556],[0.11040364583333333,-0.1334201388888889],[0.121328125,-0.1276736111111111],[0.13192708333333333,-0.12157118055555556],[0.1420876736111111,-0.11535590277777778],[0.1529861111111111,-0.10907552083333333],[0.16371961805555554,-0.10285590277777777],[0.1746310763888889,-0.09597222222222222],[0.1913888888888889,-0.08498697916666667],[0.2022439236111111,-0.07871961805555555],[0.20710069444444446,-0.076015625],[0.216640625,-0.071171875],[0.22253472222222223,-0.06845486111111111],[0.22657118055555556,-0.06643229166666667],[0.23063802083333335,-0.06438802083333334],[0.23412326388888888,-0.06283854166666666],[0.2371440972222222,-0.06132378472222222],[0.24019965277777777,-0.060234375],[0.24275173611111112,-0.05950086805555556],[0.2444140625,-0.05915364583333333],[0.24532552083333334,-0.05915364583333333],[0.2458984375,-0.05886284722222222],[0.2458984375,-0.05886284722222222],[0.2458984375,-0.05886284722222222],[0.2458984375,-0.05886284722222222],[0.2458984375,-0.05886284722222222],[0.2458984375,-0.05886284722222222]]]",3,"[60,52,50]",,,,,,,,,,,,,,lightingstore2.jpg,space,6.3335,0,6,6,74,1,newsstand2.jpg,playground10.jpg,observatory4.jpeg,operatingroom1.jpg,,
Image_List_5,,,,,,,,,,,,,,,,46621,2022-01-30_18h22.49.704,analogCatScenes,2020.1.3,MacIntel,60,"[1440,900]","[[[-0.0017317708333333334,-0.20601996527777777],[-0.0017317708333333334,-0.20601996527777777],[-0.0017317708333333334,-0.20601996527777777],[-0.0017317708333333334,-0.20601996527777777],[-0.0017317708333333334,-0.20601996527777777],[-0.0017317708333333334,-0.20601996527777777],[-0.0017317708333333334,-0.20601996527777777],[-0.0017317708333333334,-0.20601996527777777],[-0.0017317708333333334,-0.20601996527777777],[-0.0017317708333333334,-0.20601996527777777],[-0.0017317708333333334,-0.20601996527777777],[-0.0017317708333333334,-0.20601996527777777],[0.0008159722222222223,-0.20421875],[0.007352430555555556,-0.19896701388888888],[0.010855034722222223,-0.19645833333333335],[0.018493923611111112,-0.19129774305555555],[0.03131076388888889,-0.18168836805555555],[0.041315104166666665,-0.17500868055555555],[0.05134114583333333,-0.1688845486111111],[0.05736111111111111,-0.1656640625],[0.06380208333333333,-0.16289496527777778],[0.06908854166666667,-0.1606857638888889],[0.07377604166666667,-0.15938802083333334],[0.080390625,-0.15750868055555556],[0.08555555555555555,-0.15578125],[0.091875,-0.1534157986111111],[0.09862847222222222,-0.15001302083333334],[0.1053125,-0.146640625],[0.11326388888888889,-0.14266059027777778],[0.12186197916666666,-0.1386111111111111],[0.12809895833333335,-0.13516493055555556],[0.13799479166666667,-0.1302126736111111],[0.1473003472222222,-0.1260329861111111],[0.15618489583333334,-0.12237847222222223],[0.16149739583333333,-0.12056423611111111],[0.16670572916666668,-0.11881944444444445],[0.17192708333333334,-0.116640625],[0.1784548611111111,-0.11387152777777777],[0.1850564236111111,-0.11103732638888889],[0.19203993055555554,-0.10703559027777777],[0.19740017361111112,-0.10434895833333334],[0.20613715277777778,-0.09891059027777778],[0.2104513888888889,-0.09544270833333333],[0.21546875,-0.091796875],[0.22154079861111112,-0.08625],[0.2261328125,-0.08072916666666667],[0.23140190972222222,-0.0749782986111111],[0.24134114583333333,-0.06396701388888888],[0.24467881944444445,-0.05951388888888889],[0.2494574652777778,-0.05420572916666667],[0.25752604166666665,-0.04358940972222222],[0.2630251736111111,-0.03708767361111111],[0.2682421875,-0.028728298611111112],[0.2742013888888889,-0.020082465277777777],[0.2793923611111111,-0.011762152777777778],[0.2826953125,-0.006223958333333333],[0.28595920138888886,-0.00017361111111111112],[0.28888020833333333,0.004001736111111111],[0.2908203125,0.0071657986111111115],[0.2921875,0.009227430555555555],[0.2931076388888889,0.01015625],[0.293671875,0.010729166666666666],[0.2942404513888889,0.011015625],[0.2942404513888889,0.011015625],[0.2945052083333333,0.011015625],[0.2945052083333333,0.011015625],[0.2945052083333333,0.011015625],[0.2945052083333333,0.011015625],[0.2945052083333333,0.011015625]],[[0.0031163194444444446,-0.18832465277777777],[0.0031163194444444446,-0.18832465277777777],[0.0031163194444444446,-0.18832465277777777],[0.0031163194444444446,-0.18832465277777777],[0.0031163194444444446,-0.18832465277777777],[0.0031163194444444446,-0.18832465277777777],[0.0031163194444444446,-0.18832465277777777]],[[-0.0054296875,-0.20489149305555557],[-0.0054296875,-0.20489149305555557],[-0.0054296875,-0.20489149305555557],[-0.0054296875,-0.20489149305555557],[-0.0054296875,-0.20489149305555557],[-0.0054296875,-0.20489149305555557],[-0.0054296875,-0.20489149305555557],[-0.0054296875,-0.20489149305555557],[-0.0054296875,-0.20489149305555557],[-0.0054296875,-0.20489149305555557],[-0.0054296875,-0.20489149305555557],[-0.0054296875,-0.20489149305555557],[-0.002894965277777778,-0.20451388888888888],[0.0042274305555555555,-0.20118055555555556],[0.019149305555555555,-0.19320746527777777],[0.03543836805555556,-0.18538194444444445],[0.048776041666666665,-0.1781076388888889],[0.06490451388888889,-0.16871527777777778],[0.07930121527777778,-0.15890190972222223],[0.09147569444444445,-0.14915364583333332],[0.1001953125,-0.1398611111111111],[0.1074782986111111,-0.13032118055555555],[0.11522569444444444,-0.11842881944444444],[0.1220703125,-0.10471788194444444],[0.12924913194444446,-0.08757378472222223],[0.13180121527777777,-0.07888888888888888],[0.1326996527777778,-0.07298177083333333],[0.1326996527777778,-0.06996527777777778],[0.13037760416666666,-0.06720052083333333],[0.12485677083333334,-0.063984375],[0.11555989583333333,-0.05984809027777778],[0.10286024305555555,-0.053802083333333334],[0.08817274305555556,-0.04615017361111111],[0.07278211805555555,-0.03845486111111111],[0.057139756944444446,-0.03193576388888889],[0.041202256944444446,-0.0275],[0.026614583333333334,-0.025104166666666667],[0.00970486111111111,-0.024453125],[-0.006336805555555556,-0.024453125],[-0.022973090277777778,-0.024453125],[-0.0415234375,-0.024453125],[-0.06661458333333334,-0.025750868055555556],[-0.08240451388888889,-0.02640625],[-0.08993055555555556,-0.02640625],[-0.10898003472222222,-0.02640625],[-0.11938368055555555,-0.02362847222222222],[-0.12815972222222222,-0.018441840277777777],[-0.1356423611111111,-0.012026909722222222],[-0.1402560763888889,-0.0074131944444444445],[-0.14427083333333332,-0.0025043402777777776],[-0.14671006944444445,0.0015581597222222223],[-0.1486501736111111,0.005043402777777778],[-0.15016493055555555,0.008068576388888889],[-0.15220920138888888,0.011744791666666667],[-0.15415364583333332,0.015234375],[-0.1561328125,0.01837673611111111],[-0.15762152777777777,0.02134548611111111],[-0.15913628472222222,0.024375],[-0.16069444444444445,0.027894965277777777],[-0.16274305555555554,0.0340234375],[-0.16349826388888888,0.03553385416666666],[-0.1648828125,0.03867621527777778],[-0.16515625,0.03867621527777778],[-0.16515625,0.03867621527777778],[-0.16515625,0.03867621527777778],[-0.16515625,0.03867621527777778],[-0.16515625,0.03867621527777778],[-0.16515625,0.03867621527777778],[-0.16515625,0.03867621527777778]]]",3,"[69,7,69]",,,,,,,,,,,,,,shoestore4.jpg,space,13.2488,0,7,7,90,1,savanna5.jpg,trainStation1.jpg,sidewalk1.jpg,stripmall3.jpg,,
Image_List_5,,,,,,,,,,,,,,,,46621,2022-01-30_18h22.49.704,analogCatScenes,2020.1.3,MacIntel,60,"[1440,900]","[[[0.0004427083333333333,-0.2017751736111111],[0.0004427083333333333,-0.2017751736111111],[0.0004427083333333333,-0.2017751736111111],[0.0004427083333333333,-0.2017751736111111],[0.0004427083333333333,-0.2017751736111111],[0.0004427083333333333,-0.2017751736111111],[0.0004427083333333333,-0.2017751736111111],[0.0004427083333333333,-0.2017751736111111],[0.0004427083333333333,-0.2017751736111111],[0.0004427083333333333,-0.2017751736111111],[0.0004427083333333333,-0.2017751736111111],[0.0004427083333333333,-0.2017751736111111],[0.0004427083333333333,-0.2017751736111111],[0.0004427083333333333,-0.2017751736111111],[0.0004427083333333333,-0.2017751736111111],[0.0004427083333333333,-0.2017751736111111],[0.0047786458333333335,-0.2017751736111111],[0.0148828125,-0.2017751736111111],[0.03860243055555555,-0.2017751736111111],[0.08578125,-0.19750868055555557],[0.13889756944444445,-0.1871701388888889],[0.1864670138888889,-0.17328993055555555],[0.21828125,-0.16204427083333334],[0.25894097222222223,-0.14784288194444445],[0.2820138888888889,-0.13876302083333333],[0.3080425347222222,-0.12848958333333332],[0.32659288194444447,-0.12185763888888888],[0.3406293402777778,-0.11697482638888888]],[[-0.00034288194444444443,-0.19315538194444445],[-0.00034288194444444443,-0.19315538194444445],[-0.00034288194444444443,-0.19315538194444445],[-0.00034288194444444443,-0.19315538194444445],[-0.00034288194444444443,-0.19315538194444445],[-0.00034288194444444443,-0.19315538194444445],[-0.00034288194444444443,-0.19315538194444445],[-0.00034288194444444443,-0.19315538194444445],[-0.00034288194444444443,-0.19315538194444445],[-0.00034288194444444443,-0.19315538194444445],[-0.00034288194444444443,-0.19315538194444445],[-0.00034288194444444443,-0.19315538194444445],[-0.0019835069444444444,-0.1942751736111111],[-0.005013020833333334,-0.1954123263888889],[-0.007161458333333333,-0.19648003472222222],[-0.011184895833333333,-0.19731770833333334],[-0.03171875,-0.20578993055555556],[-0.05136284722222222,-0.21188802083333333],[-0.10223090277777777,-0.2255859375],[-0.16264756944444445,-0.24295572916666666],[-0.21107638888888888,-0.2499609375],[-0.3156467013888889,-0.24911024305555557],[-0.33667100694444446,-0.24559027777777778]]]",2,"[28,23]",,,,,,,,,,,,,,bar8.jpg,space,4.596,0,8,8,15,1,bambooforest4.jpg,cafeteria5.jpg,bleachers8.jpg,cabinIndoors.jpg,,
Image_List_5,,,,,,,,,,,,,,,,46621,2022-01-30_18h22.49.704,analogCatScenes,2020.1.3,MacIntel,60,"[1440,900]","[[[0.006983506944444444,-0.19940538194444443],[0.006983506944444444,-0.19940538194444443],[0.006983506944444444,-0.19940538194444443],[0.006983506944444444,-0.19940538194444443],[0.006983506944444444,-0.19940538194444443],[0.006983506944444444,-0.19940538194444443],[0.006983506944444444,-0.19940538194444443],[0.006983506944444444,-0.19940538194444443],[0.006983506944444444,-0.19940538194444443],[0.006983506944444444,-0.19940538194444443],[0.006983506944444444,-0.19940538194444443],[0.006983506944444444,-0.19940538194444443],[0.006983506944444444,-0.19940538194444443],[0.006983506944444444,-0.19940538194444443],[0.006983506944444444,-0.19940538194444443],[0.006983506944444444,-0.19940538194444443],[0.006983506944444444,-0.19940538194444443],[0.006983506944444444,-0.19940538194444443],[0.007847222222222222,-0.1965451388888889],[0.010516493055555555,-0.1922699652777778],[0.022925347222222222,-0.1708203125],[0.034891493055555556,-0.14981336805555556],[0.049262152777777776,-0.12793402777777776],[0.05981336805555556,-0.11335069444444444],[0.072421875,-0.09721788194444445],[0.08510416666666666,-0.0825],[0.09651909722222222,-0.07041666666666667],[0.10887586805555556,-0.059908854166666664],[0.12050347222222223,-0.05134114583333333],[0.13180555555555556,-0.04415798611111111],[0.14244357638888888,-0.038559027777777775],[0.1530859375,-0.033498263888888886],[0.17500434027777778,-0.02555121527777778],[0.19838541666666668,-0.01644097222222222],[0.20953125,-0.011979166666666667],[0.2345355902777778,-0.00078125],[0.254453125,0.007725694444444445],[0.2660329861111111,0.012330729166666667],[0.2772092013888889,0.016263020833333332],[0.2830121527777778,0.01810329861111111],[0.2860373263888889,0.018485243055555555],[0.2873046875,0.018485243055555555],[0.28856770833333334,0.018485243055555555],[0.2902170138888889,0.018485243055555555],[0.29323784722222224,0.018485243055555555],[0.29678819444444443,0.018485243055555555],[0.30082465277777776,0.019296875],[0.3049175347222222,0.020121527777777776],[0.3084722222222222,0.020499131944444443],[0.3132378472222222,0.021341145833333332],[0.3132378472222222,0.021341145833333332],[0.3132378472222222,0.021341145833333332],[0.3132378472222222,0.021341145833333332],[0.3132378472222222,0.021341145833333332]],[[-0.005381944444444444,-0.2047048611111111],[-0.005381944444444444,-0.2047048611111111],[-0.005381944444444444,-0.2047048611111111],[-0.005381944444444444,-0.2047048611111111],[-0.005381944444444444,-0.2047048611111111],[-0.005381944444444444,-0.2047048611111111],[-0.005381944444444444,-0.2047048611111111],[-0.005381944444444444,-0.2047048611111111],[-0.005381944444444444,-0.2047048611111111],[-0.005381944444444444,-0.2047048611111111],[-0.005381944444444444,-0.2047048611111111],[-0.005381944444444444,-0.2047048611111111],[-0.005381944444444444,-0.2047048611111111],[-0.005381944444444444,-0.20444444444444446],[-0.005950520833333334,-0.19405815972222223],[-0.009283854166666666,-0.18473524305555555],[-0.021996527777777778,-0.1590625],[-0.034930555555555555,-0.14368489583333333],[-0.04621961805555556,-0.13594618055555555],[-0.05865017361111111,-0.13061197916666667],[-0.07155815972222222,-0.12651475694444445],[-0.08454861111111112,-0.12296875],[-0.09823784722222222,-0.11821614583333333],[-0.1126953125,-0.11253472222222222],[-0.1251128472222222,-0.10662760416666667],[-0.13940104166666667,-0.0998046875],[-0.15519965277777778,-0.09321614583333333],[-0.16810329861111112,-0.08910590277777777],[-0.17916232638888888,-0.08688802083333333],[-0.192265625,-0.08688802083333333],[-0.20490017361111112,-0.08688802083333333],[-0.21990451388888888,-0.08688802083333333],[-0.2502083333333333,-0.08463541666666667],[-0.2640017361111111,-0.08335069444444444],[-0.29203125,-0.08161024305555556],[-0.30940972222222224,-0.080859375],[-0.3287543402777778,-0.080859375],[-0.3446223958333333,-0.08023871527777778]],[[-0.0036067708333333334,-0.20305989583333334],[-0.0036067708333333334,-0.20305989583333334],[-0.0036067708333333334,-0.20305989583333334],[-0.0036067708333333334,-0.20305989583333334],[-0.0036067708333333334,-0.20305989583333334],[-0.0036067708333333334,-0.20305989583333334],[-0.0036067708333333334,-0.20146701388888888],[-0.0036067708333333334,-0.19890190972222221],[-0.0036067708333333334,-0.1959157986111111],[-0.0036067708333333334,-0.19287760416666666],[-0.0036067708333333334,-0.18873697916666668],[-0.0036067708333333334,-0.1828732638888889],[-0.0036067708333333334,-0.17203993055555555],[-0.0036067708333333334,-0.14578993055555556],[0.0019314236111111112,-0.11806857638888889],[0.013328993055555556,-0.08100694444444445],[0.02056423611111111,-0.059587673611111114],[0.02586371527777778,-0.04650173611111111],[0.030368923611111112,-0.03516059027777778],[0.03337239583333333,-0.027821180555555554],[0.03409722222222222,-0.02525607638888889],[0.03478732638888889,-0.023168402777777777],[0.03560763888888889,-0.02111545138888889],[0.03797309027777778,-0.015481770833333333],[0.03965711805555556,-0.0108203125],[0.040785590277777777,-0.007795138888888889],[0.04150173611111111,-0.005264756944444444],[0.04150173611111111,-0.0035850694444444445],[0.04028211805555556,-0.0004427083333333333],[0.037921006944444446,0.002677951388888889],[0.0337890625,0.007816840277777778],[0.0300390625,0.013485243055555556],[0.027391493055555556,0.017829861111111112],[0.022786458333333332,0.025985243055555555],[0.019361979166666668,0.033841145833333336],[0.015342881944444444,0.04187934027777778],[0.012096354166666667,0.047452256944444444],[0.0071875,0.055021701388888886],[0.0054296875,0.057217881944444444],[0.0028081597222222223,0.06094184027777778],[0.0013758680555555555,0.06269097222222222],[0.00004340277777777778,0.06437065972222222],[-0.0002777777777777778,0.06500868055555556],[-0.0012282986111111112,0.06690104166666666],[-0.0022178819444444446,0.06858506944444444],[-0.003754340277777778,0.0712109375],[-0.005989583333333334,0.07508246527777777],[-0.009309895833333333,0.08171875],[-0.014231770833333334,0.0920920138888889],[-0.020789930555555555,0.10401909722222222],[-0.024613715277777778,0.11016059027777778],[-0.0265234375,0.11350260416666667]]]",3,"[54,38,52]",,,,,,,,,,,,,,bleachers6.jpg,space,6.8288,0,9,9,23,1,bus_shelter.jpg,church8.jpg,carmechanic4.jpeg,cemetery3.jpg,,
Image_List_5,,,,,,,,,,,,,,,,46621,2022-01-30_18h22.49.704,analogCatScenes,2020.1.3,MacIntel,60,"[1440,900]","[[[-0.0006684027777777777,-0.19621961805555554],[-0.0006684027777777777,-0.19621961805555554],[-0.0006684027777777777,-0.19621961805555554],[-0.0006684027777777777,-0.19621961805555554],[-0.0006684027777777777,-0.19621961805555554],[-0.0006684027777777777,-0.19621961805555554],[-0.0006684027777777777,-0.19621961805555554],[-0.0006684027777777777,-0.19621961805555554],[-0.0006684027777777777,-0.19621961805555554],[-0.0006684027777777777,-0.19621961805555554],[-0.0006684027777777777,-0.19621961805555554],[-0.0006684027777777777,-0.19621961805555554],[-0.0006684027777777777,-0.19621961805555554],[-0.00015625,-0.19621961805555554],[0.005776909722222222,-0.19621961805555554],[0.016176215277777777,-0.1967795138888889],[0.04006076388888889,-0.19929253472222222],[0.05915364583333333,-0.1999782986111111],[0.07521267361111111,-0.1999782986111111],[0.09983506944444444,-0.1999782986111111],[0.11674045138888889,-0.19932725694444445],[0.13178385416666666,-0.1961892361111111],[0.14359375,-0.19282118055555555],[0.1531597222222222,-0.18909722222222222],[0.16273003472222222,-0.18483506944444444],[0.17255642361111112,-0.17937065972222221],[0.18359809027777776,-0.17296875],[0.1945703125,-0.16662760416666667],[0.20715711805555556,-0.15882378472222222],[0.22479600694444443,-0.14752604166666666],[0.23811197916666665,-0.13864149305555556],[0.25495659722222225,-0.12784288194444443],[0.27046440972222224,-0.11705729166666666],[0.28554253472222224,-0.10722222222222222],[0.30334635416666667,-0.09651475694444445],[0.3143446180555556,-0.09013454861111111],[0.3193489583333333,-0.086796875],[0.3339713541666667,-0.07609809027777778],[0.34010416666666665,-0.07092447916666667],[0.34448350694444446,-0.0669921875],[0.3472309027777778,-0.06463975694444445],[0.34779947916666665,-0.06434895833333333]],[[-0.004709201388888889,-0.19977430555555556],[-0.004709201388888889,-0.19977430555555556],[-0.004709201388888889,-0.19977430555555556],[-0.004709201388888889,-0.19977430555555556],[-0.004709201388888889,-0.19977430555555556],[-0.004709201388888889,-0.19977430555555556],[-0.004709201388888889,-0.19977430555555556],[-0.004709201388888889,-0.19977430555555556],[-0.004709201388888889,-0.19977430555555556],[-0.004709201388888889,-0.19977430555555556],[-0.004709201388888889,-0.19977430555555556],[-0.004709201388888889,-0.19977430555555556],[-0.004709201388888889,-0.19977430555555556],[-0.004709201388888889,-0.19977430555555556],[-0.004969618055555555,-0.19977430555555556],[-0.007122395833333333,-0.19977430555555556],[-0.014314236111111111,-0.19977430555555556],[-0.038624131944444445,-0.20046006944444444],[-0.0780078125,-0.20151041666666666],[-0.11540798611111111,-0.20067708333333334],[-0.1384982638888889,-0.1969357638888889],[-0.16973958333333333,-0.19115451388888888],[-0.19077690972222222,-0.18694444444444444],[-0.21638888888888888,-0.1808246527777778],[-0.23185763888888888,-0.1776171875],[-0.24937934027777778,-0.17436197916666665],[-0.2633767361111111,-0.17130642361111112],[-0.27935763888888887,-0.1641189236111111],[-0.28920572916666665,-0.156015625],[-0.2991449652777778,-0.14483072916666667],[-0.3046527777777778,-0.13834635416666666],[-0.3109548611111111,-0.13101128472222223],[-0.3156380208333333,-0.1258637152777778],[-0.3183767361111111,-0.123125],[-0.3211545138888889,-0.12075954861111111],[-0.32330295138888887,-0.11895833333333333],[-0.32696180555555554,-0.11651475694444445],[-0.32696180555555554,-0.11651475694444445],[-0.32696180555555554,-0.11651475694444445],[-0.32696180555555554,-0.11651475694444445],[-0.32696180555555554,-0.11651475694444445],[-0.32696180555555554,-0.11651475694444445],[-0.32696180555555554,-0.11651475694444445]]]",2,"[42,43]",,,,,,,,,,,,,,diningroom3.jpg,space,4.513,0,10,10,43,1,exerciseequipment5.jpg,forestpath10.jpg,dugout2.jpg,foodcourt.jpg,,
Image_List_5,,,,,,,,,,,,,,,,46621,2022-01-30_18h22.49.704,analogCatScenes,2020.1.3,MacIntel,60,"[1440,900]","[[[-0.004618055555555556,-0.2072265625],[-0.004618055555555556,-0.2072265625],[-0.004618055555555556,-0.2072265625],[-0.004618055555555556,-0.2072265625],[-0.004618055555555556,-0.2072265625],[-0.004618055555555556,-0.2072265625],[-0.004618055555555556,-0.2072265625],[-0.004618055555555556,-0.2072265625],[-0.004618055555555556,-0.2072265625],[-0.004618055555555556,-0.2072265625],[-0.004618055555555556,-0.2072265625],[-0.004618055555555556,-0.2072265625],[-0.004618055555555556,-0.2072265625],[-0.004618055555555556,-0.2072265625],[-0.004618055555555556,-0.2072265625],[-0.004618055555555556,-0.2072265625],[-0.004618055555555556,-0.2072265625],[-0.004618055555555556,-0.2072265625],[-0.004105902777777778,-0.2072265625],[-0.002052951388888889,-0.2072265625],[0.001501736111111111,-0.2072265625],[0.010672743055555555,-0.2072265625],[0.013975694444444445,-0.2072265625],[0.024787326388888888,-0.2072265625],[0.029605034722222222,-0.2072265625],[0.0355078125,-0.2072265625],[0.041302083333333336,-0.2072265625],[0.04655815972222222,-0.2072265625],[0.051844618055555555,-0.2072265625],[0.058298611111111114,-0.2072265625],[0.06382378472222222,-0.2072265625],[0.07114583333333334,-0.2072265625],[0.07894965277777778,-0.2072265625],[0.08502170138888888,-0.2072265625],[0.09548177083333333,-0.2072265625],[0.10349826388888889,-0.2072265625],[0.10937934027777778,-0.2072265625],[0.11991319444444444,-0.2072265625],[0.12946614583333332,-0.2050954861111111],[0.1434592013888889,-0.20353298611111112],[0.15383680555555557,-0.20243489583333332],[0.16047309027777779,-0.20192274305555555],[0.16850260416666665,-0.20141927083333333],[0.17608940972222223,-0.20101996527777777],[0.18202256944444445,-0.200546875],[0.19004774305555555,-0.20007378472222223],[0.19735677083333333,-0.19954427083333334],[0.20213541666666668,-0.19907552083333332],[0.20805555555555555,-0.1981640625],[0.21319878472222223,-0.19688368055555555],[0.21986545138888888,-0.19448784722222223],[0.2266015625,-0.19109809027777777],[0.2316015625,-0.1874609375],[0.24043402777777778,-0.18080295138888888],[0.2519357638888889,-0.17189670138888888],[0.25561631944444446,-0.16821180555555557],[0.2645703125,-0.16148871527777778],[0.27776475694444447,-0.15102430555555554],[0.28217881944444445,-0.14746961805555556],[0.28655381944444447,-0.14399739583333335],[0.2898090277777778,-0.14114149305555557],[0.29161458333333334,-0.13898871527777779],[0.2928776041666667,-0.13771701388888888],[0.29391493055555556,-0.1356293402777778],[0.29522135416666667,-0.13397135416666667],[0.2972265625,-0.13029513888888888],[0.29976128472222224,-0.12562065972222222],[0.3022699652777778,-0.12138454861111111],[0.30388454861111114,-0.11733072916666666],[0.3049782986111111,-0.11479600694444445],[0.30560763888888887,-0.11352430555555555],[0.30560763888888887,-0.11325520833333333],[0.30560763888888887,-0.11325520833333333],[0.30505208333333333,-0.11297743055555555]],[[-0.003958333333333334,-0.19922309027777776],[-0.003958333333333334,-0.19922309027777776],[-0.003958333333333334,-0.19922309027777776],[-0.003958333333333334,-0.19922309027777776],[-0.003958333333333334,-0.19922309027777776],[-0.003958333333333334,-0.19922309027777776],[-0.003958333333333334,-0.19922309027777776],[-0.003958333333333334,-0.19922309027777776],[-0.003958333333333334,-0.19922309027777776],[-0.003958333333333334,-0.19922309027777776],[-0.003958333333333334,-0.19922309027777776],[-0.003958333333333334,-0.19922309027777776],[-0.003958333333333334,-0.19922309027777776],[-0.00421875,-0.19922309027777776],[-0.008355034722222222,-0.19922309027777776],[-0.0160546875,-0.19922309027777776],[-0.026879340277777778,-0.19761284722222222],[-0.037339409722222223,-0.19704427083333334],[-0.0491796875,-0.19704427083333334],[-0.06693576388888889,-0.19704427083333334],[-0.07349392361111111,-0.19704427083333334],[-0.09311631944444444,-0.19704427083333334],[-0.12633246527777778,-0.19591145833333334],[-0.1500564236111111,-0.19442708333333333],[-0.16844618055555555,-0.19310763888888888],[-0.19000434027777777,-0.19235677083333333],[-0.20965711805555556,-0.19099826388888888],[-0.2257421875,-0.1897092013888889],[-0.23878472222222222,-0.18734809027777777],[-0.2514019097222222,-0.18505208333333334],[-0.26270399305555553,-0.18335069444444443],[-0.27305121527777776,-0.18225694444444446],[-0.2848654513888889,-0.18112847222222223],[-0.29616753472222224,-0.17886284722222223],[-0.30823784722222225,-0.1765625],[-0.316875,-0.1750217013888889],[-0.3268315972222222,-0.1727517361111111],[-0.3348220486111111,-0.170234375],[-0.3454470486111111,-0.16424913194444443],[-0.34780815972222223,-0.16188802083333334],[-0.34956597222222224,-0.1381814236111111],[-0.3486501736111111,-0.1381814236111111],[-0.34773003472222225,-0.1381814236111111],[-0.34716145833333334,-0.1381814236111111],[-0.34659288194444443,-0.1381814236111111],[-0.34659288194444443,-0.13845052083333334],[-0.34632378472222225,-0.13871961805555555],[-0.34632378472222225,-0.13898871527777779],[-0.34632378472222225,-0.13898871527777779],[-0.34632378472222225,-0.13924913194444444],[-0.3460546875,-0.13924913194444444],[-0.3460546875,-0.13951822916666667],[-0.34578993055555557,-0.13978298611111112],[-0.34578993055555557,-0.13978298611111112],[-0.34578993055555557,-0.14004774305555556],[-0.34578993055555557,-0.14060329861111112],[-0.34610677083333335,-0.14151909722222222],[-0.34674479166666666,-0.14215277777777777],[-0.34674479166666666,-0.14215277777777777],[-0.34674479166666666,-0.14215277777777777]]]",2,"[74,60]",,,,,,,,,,,,,,mallindoor6.jpg,space,4.6298,0,11,11,77,1,parkinggarage2.jpg,playroom6.jpg,pasture9.jpg,park8.jpg,,
Image_List_5,,,,,,,,,,,,,,,,46621,2022-01-30_18h22.49.704,analogCatScenes,2020.1.3,MacIntel,60,"[1440,900]","[[[-0.00015625,-0.19762586805555554],[-0.00015625,-0.19762586805555554],[-0.00015625,-0.19762586805555554],[-0.00015625,-0.19762586805555554],[-0.00015625,-0.19762586805555554],[-0.00015625,-0.19762586805555554],[-0.00015625,-0.19762586805555554],[-0.00015625,-0.19762586805555554],[-0.00015625,-0.19762586805555554],[-0.00015625,-0.19762586805555554],[-0.0006727430555555556,-0.19762586805555554],[-0.0019487847222222222,-0.19762586805555554],[-0.005230034722222222,-0.19762586805555554],[-0.008741319444444444,-0.19762586805555554],[-0.01674045138888889,-0.19762586805555554],[-0.032452256944444445,-0.1951519097222222],[-0.0447265625,-0.19283854166666667],[-0.06280815972222223,-0.18947482638888888],[-0.08787760416666666,-0.1836935763888889],[-0.10264756944444445,-0.17938802083333333],[-0.11763888888888889,-0.17438802083333332],[-0.13235243055555557,-0.1694878472222222],[-0.1444704861111111,-0.16602864583333332],[-0.1521310763888889,-0.16489583333333332],[-0.16139322916666668,-0.16429253472222222],[-0.17262586805555555,-0.16429253472222222],[-0.18356336805555556,-0.16429253472222222],[-0.19663194444444446,-0.16429253472222222],[-0.20876302083333334,-0.16370225694444446],[-0.22056423611111112,-0.16311197916666667],[-0.23099392361111112,-0.1620095486111111],[-0.24108072916666667,-0.16147569444444446],[-0.25328993055555554,-0.16030815972222223],[-0.2636371527777778,-0.1586935763888889],[-0.27606336805555554,-0.1562326388888889],[-0.28561197916666664,-0.15411892361111112],[-0.28891927083333335,-0.15411892361111112],[-0.3015625,-0.1531032986111111],[-0.31194444444444447,-0.15257378472222222],[-0.3220876736111111,-0.15100694444444446],[-0.3312109375,-0.14835503472222222],[-0.33686631944444445,-0.1451171875],[-0.3437673611111111,-0.14197916666666666],[-0.3437673611111111,-0.14197916666666666],[-0.3437673611111111,-0.14197916666666666],[-0.3437673611111111,-0.14197916666666666],[-0.3437673611111111,-0.14197916666666666],[-0.3437673611111111,-0.14197916666666666],[-0.3437673611111111,-0.14197916666666666],[-0.3437673611111111,-0.14197916666666666],[-0.3437673611111111,-0.14197916666666666]],[[-0.00022569444444444443,-0.19870225694444443],[-0.00022569444444444443,-0.19870225694444443],[-0.00022569444444444443,-0.19870225694444443],[-0.00022569444444444443,-0.19870225694444443],[-0.00022569444444444443,-0.19870225694444443],[-0.00022569444444444443,-0.19870225694444443],[-0.00022569444444444443,-0.19870225694444443],[-0.00022569444444444443,-0.19870225694444443],[-0.00022569444444444443,-0.19870225694444443],[-0.00022569444444444443,-0.19870225694444443],[-0.00022569444444444443,-0.19870225694444443],[-0.00022569444444444443,-0.19870225694444443],[-0.00022569444444444443,-0.19870225694444443],[-0.00022569444444444443,-0.19870225694444443],[0.0036328125,-0.19870225694444443],[0.01328125,-0.19870225694444443],[0.03015190972222222,-0.19999565972222222],[0.04974826388888889,-0.20134114583333335],[0.07377170138888889,-0.20134114583333335],[0.0991015625,-0.20134114583333335],[0.12463107638888889,-0.20134114583333335],[0.1509375,-0.20227864583333333],[0.17461805555555557,-0.20375434027777778],[0.20157552083333333,-0.20715277777777777],[0.22181423611111112,-0.20993923611111112],[0.23889756944444446,-0.21256510416666666],[0.25352430555555555,-0.21440104166666665],[0.2600173611111111,-0.21499131944444444],[0.26371527777777776,-0.21536024305555557],[0.28231336805555557,-0.21833333333333332],[0.2917881944444444,-0.22059461805555555],[0.29726996527777777,-0.22196180555555556],[0.3038064236111111,-0.22430555555555556],[0.30789930555555556,-0.22594184027777778],[0.31145833333333334,-0.22713975694444444],[0.31626302083333335,-0.22767361111111112],[0.31626302083333335,-0.22767361111111112],[0.31626302083333335,-0.22767361111111112],[0.31626302083333335,-0.22767361111111112]]]",2,"[51,39]",,,,,,,,,,,,,,ATM4.jpg,space,4.2376,0,12,12,10,1,backstage2.jpg,barbershop3.jpg,ballroom4.jpg,basketballcourt3.jpg,,
