image_list,key_resp_intructions.keys,key_resp_intructions.rt,key_resp_intructions_3.keys,key_resp_intructions_3.rt,PracticeComplete_2.keys,PracticeComplete_2.rt,PracticeComplete_3.keys,PracticeComplete_3.rt,demo_trials.thisRepN,demo_trials.thisTrialN,demo_trials.thisN,demo_trials.thisIndex,demo_trials.ran,demo_images,path_images,participant,date,expName,psychopyVersion,OS,frameRate,windowSize,drawing,numDrawings,drawingSizes,practice_complete.keys,practice_complete.rt,PracticeComplete.keys,PracticeComplete.rt,practice_trials.thisRepN,practice_trials.thisTrialN,practice_trials.thisN,practice_trials.thisIndex,practice_trials.ran,practice_images,feedback_images,key_resp_intructions_2.keys,key_resp_intructions_2.rt,Image_List_4,trial_complete.keys,trial_complete.rt,trials.thisRepN,trials.thisTrialN,trials.thisN,trials.thisIndex,trials.ran,Image_List_1,Image_List_2,Image_List_3,Image_List_5,key_resp.keys,key_resp.rt
Image_List_4,space,22.7848,space,10.9294,space,14.8694,space,5.3973,0,0,0,5,1,right.jpg,right_path.jpg,46711,2022-03-01_14h35.53.787,analogCatScenes,2020.1.3,Win32,60,,,,,,,,,,,,,,,,,,,,,,,,,,,,,,,
Image_List_4,,,,,space,7.3641,space,7.4205,0,1,1,4,1,left.jpg,left_path.jpg,46711,2022-03-01_14h35.53.787,analogCatScenes,2020.1.3,Win32,60,,,,,,,,,,,,,,,,,,,,,,,,,,,,,,,
Image_List_4,,,,,space,7.8927,space,5.2262,0,2,2,2,1,ahead_right.jpg,ahead_right_path.jpg,46711,2022-03-01_14h35.53.787,analogCatScenes,2020.1.3,Win32,60,,,,,,,,,,,,,,,,,,,,,,,,,,,,,,,
Image_List_4,,,,,space,22.5955,space,8.185,0,3,3,3,1,ahead_right_left.jpg,ahead_right_left_path.jpg,46711,2022-03-01_14h35.53.787,analogCatScenes,2020.1.3,Win32,60,,,,,,,,,,,,,,,,,,,,,,,,,,,,,,,
Image_List_4,,,,,space,6.5202,space,1.3514,0,4,4,6,1,right_left.jpg,right_left_path.jpg,46711,2022-03-01_14h35.53.787,analogCatScenes,2020.1.3,Win32,60,,,,,,,,,,,,,,,,,,,,,,,,,,,,,,,
Image_List_4,,,,,space,11.3789,space,2.9004,0,5,5,0,1,ahead.jpg,ahead_path.jpg,46711,2022-03-01_14h35.53.787,analogCatScenes,2020.1.3,Win32,60,,,,,,,,,,,,,,,,,,,,,,,,,,,,,,,
Image_List_4,,,,,space,5.0597,space,1.1588,0,6,6,1,1,ahead_left.jpg,ahead_left_path.jpg,46711,2022-03-01_14h35.53.787,analogCatScenes,2020.1.3,Win32,60,,,,,,,,,,,,,,,,,,,,,,,,,,,,,,,
Image_List_4,,,,,,,,,,,,,,,,46711,2022-03-01_14h35.53.787,analogCatScenes,2020.1.3,Win32,60,"[1536,864]","[[[0.002777791064646509,-0.19722223261164296],[0.002777791064646509,-0.19722223261164296],[0.002777791064646509,-0.19722223261164296],[0.002777791064646509,-0.19722223261164296],[0.002777791064646509,-0.19351852885274975],[0.030555569256345432,-0.10787037942834475],[0.05925927338776765,-0.014351859516291707],[0.075925940302787,0.07361110475742155],[0.07824075515209525,0.13703703162846742],[0.075925940302787,0.1768518470365692],[0.06759260684527733,0.19629629177075844],[0.060185199327490946,0.20509258819812978],[0.04583340377581425,0.22499999590218067],[0.04583340377581425,0.22685184778162726],[0.04583340377581425,0.22685184778162726],[0.04583340377581425,0.22685184778162726],[0.04583340377581425,0.22685184778162726]]]",1,[17],space,24.5135,space,7.1728,0,0,0,1,1,ahead_left_2.jpg,ahead_left_2_path.jpg,,,,,,,,,,,,,,,,
Image_List_4,,,,,,,,,,,,,,,,46711,2022-03-01_14h35.53.787,analogCatScenes,2020.1.3,Win32,60,"[1536,864]","[[[-0.0032407275435549243,-0.1949074177623347],[-0.0032407275435549243,-0.1949074177623347],[-0.012036967456891843,-0.1615741404463304],[-0.012962949910649547,-0.15555556532409456],[-0.01574072772981944,-0.08981482360374045],[-0.018055542579127684,0.02916663139368607],[-0.018055542579127684,0.03148144624299431],[-0.01851850554898933,0.03287036340959646],[-0.020370357428435928,0.10972221640663014],[-0.02175924633802087,0.15509258745307172],[-0.02175924633802087,0.15555555042293337],[-0.02175924633802087,0.15555555042293337],[-0.02175924633802087,0.15555555042293337],[-0.02175924633802087,0.15555555042293337],[-0.02175924633802087,0.15555555042293337]],[[0.0018519216389576184,-0.20000001043081284],[0.09629631097669955,-0.1703703803596673],[0.1888889049490293,-0.14212963919810676],[0.24629631321187373,-0.1300926019817039],[0.28935186940900703,-0.1300926019817039],[0.30277779553499484,-0.1333333427707354],[0.30277779553499484,-0.1342592687104587],[0.30277779553499484,-0.1342592687104587],[0.30277779553499484,-0.1342592687104587],[0.30277779553499484,-0.1342592687104587],[0.30277779553499484,-0.1342592687104587],[0.30277779553499484,-0.1342592687104587],[0.30277779553499484,-0.1342592687104587]]]",2,"[15,13]",space,11.6596,space,1.8248,0,1,1,2,1,ahead_right_2.jpg,ahead_right_2_path.jpg,,,,,,,,,,,,,,,,
Image_List_4,,,,,,,,,,,,,,,,46711,2022-03-01_14h35.53.787,analogCatScenes,2020.1.3,Win32,60,"[1536,864]","[[[1.3245476616753471e-8,-0.19120371400344152],[0.057870384478182706,0.10185184591898212],[0.056944458538459405,0.12083332768330972],[0.051388902900119625,0.14768517993528535],[0.046296310231641484,0.1587962629549477],[0.04120377407719776,0.1624999949708581],[0.032870384105653676,0.17222221733795273],[0.02638890252759059,0.17361110624753767],[0.02638890252759059,0.17407406921739932],[0.025462976587867295,0.1749999669001054],[0.025000070132040055,0.1749999669001054],[0.025000070132040055,0.17546295812698426],[0.025000070132040055,0.17546295812698426],[0.025000070132040055,0.17546295812698426]],[[0.00231482809478486,-0.1930555658828881],[0.00231482809478486,-0.1930555658828881],[0.013888902341326078,-0.19259260291302646],[0.06250001417679919,-0.19166673348733756],[0.10601853334379417,-0.18935191863802933],[0.15231483032995904,-0.18657408430482503],[0.19305557167778412,-0.18287038054593183],[0.22407409065851458,-0.18194445460620853],[0.2509259429104902,-0.18101852866648524],[0.27731483219260417,-0.1777778443914881],[0.30648149929388807,-0.17314821469287162],[0.31527779572125936,-0.17083339984356338],[0.33379631451572533,-0.16851858499425512],[0.33379631451572533,-0.16851858499425512],[0.33379631451572533,-0.16851858499425512],[0.33379631451572533,-0.16851858499425512],[0.33379631451572533,-0.16851858499425512]]]",2,"[14,17]",space,8.2907,space,2.6539,0,2,2,0,1,ahead_2.jpg,ahead_2_path.jpg,,,,,,,,,,,,,,,,
Image_List_4,,,,,,,,,,,,,,,,46711,2022-03-01_14h35.53.787,analogCatScenes,2020.1.3,Win32,60,"[1536,864]","[[[-0.0041666534832782215,-0.20138889934039778],[-0.0041666534832782215,-0.20138889934039778],[0.008333346702986293,-0.18842593618427161],[0.04768519914122643,-0.12037037961460927],[0.06250001417679919,-0.09490741627221858],[0.10324075552462428,-0.024537044853247977],[0.10879631116296407,-0.009259266847813571],[0.14027779311355618,0.06388885413330972],[0.14120371905327947,0.0731481135305427],[0.16018520081760707,0.12407404021532405],[0.16296297863677697,0.13564811446186528],[0.16296297863677697,0.1398148094476373],[0.17361112694359487,0.17268515205079715],[0.17361112694359487,0.17361110624753767],[0.1842592752504128,0.1814814767351857],[0.18750001603944433,0.18425922629733837],[0.187962979009306,0.18472221752421725],[0.18935186791889094,0.18472221752421725],[0.19074075682847588,0.18472221752421725],[0.19166668276819918,0.18379629158449393],[0.19166668276819918,0.18194441144803014],[0.19166668276819918,0.18101851376532405],[0.19166668276819918,0.18101851376532405]],[[0.003240754034508158,-0.2032408077338788],[0.003240754034508158,-0.2032408077338788],[0.003240754034508158,-0.2032408077338788],[0.003240754034508158,-0.2032408077338788],[0.003240754034508158,-0.2032408077338788],[0.003240754034508158,-0.2032408077338788],[0.003240754034508158,-0.2032408077338788],[0.003240754034508158,-0.2032408077338788],[0.003240754034508158,-0.2032408077338788],[0.003240754034508158,-0.2032408077338788],[0.003240754034508158,-0.2032408077338788],[0.003240754034508158,-0.2032408077338788],[0.003240754034508158,-0.2032408077338788],[0.003240754034508158,-0.2032408077338788],[0.002777791064646509,-0.2032408077338788],[-0.0032407275435549243,-0.19722223261164296],[-0.018981412004816574,-0.18981482509385655],[-0.019444431488712628,-0.18842593618427161],[-0.02361104170343306,-0.1824074740901046],[-0.024537024157190765,-0.18101852866648524],[-0.025925856552741305,-0.16712963957063579],[-0.025925856552741305,-0.1662037701449469],[-0.025925856552741305,-0.1662037701449469],[-0.025925856552741305,-0.1662037701449469],[-0.03009257979553055,-0.1606481579925727],[-0.05092591343930474,-0.12407408337350245],[-0.07824072866114201,-0.08055556420650747],[-0.08009258054058861,-0.07731482341747593],[-0.08472221023920509,-0.06250000838190317],[-0.09120369181726817,-0.037037045039512495],[-0.09166665478712982,-0.03657408206965084],[-0.09861109933505456,-0.015740748425876652],[-0.11157400597714631,0.038888882017797895],[-0.11435184031035062,0.04722221547530757],[-0.11527776625007391,0.04722221547530757],[-0.11527776625007391,0.04722221547530757],[-0.11527776625007391,0.04722221547530757],[-0.11666665515965885,0.04768515018815202],[-0.1333333220746782,0.0740740677272832],[-0.14120369256232623,0.08749999385327101],[-0.1435185074116345,0.09629626202362512],[-0.1569444335376223,0.13055555005040434],[-0.16527776699513197,0.14953700355771474],[-0.16527776699513197,0.14999999478459358],[-0.1666666559047169,0.15277777260376346],[-0.17916665609098142,0.18101851376532405],[-0.18194443391015133,0.18888885599595487],[-0.18333326630570188,0.190277773162557],[-0.18333326630570188,0.19212962504200362],[-0.18518517469918286,0.19444443989131185],[-0.19074073033752265,0.2004629302424961],[-0.19074073033752265,0.2004629302424961],[-0.19074073033752265,0.2004629302424961],[-0.18981480439779935,0.20138888443923658],[-0.18888887845807606,0.20509258819812978],[-0.18888887845807606,0.2083333289871613],[-0.18888887845807606,0.21111110680633122],[-0.18888887845807606,0.21157406977619286],[-0.18888887845807606,0.2129629586857778],[-0.18796289600431834,0.21435184759536274],[-0.1856480811550101,0.21435184759536274],[-0.18379628578959792,0.21435184759536274],[-0.18379628578959792,0.21620369947480936],[-0.18287035984987463,0.2175925883843943],[-0.18287035984987463,0.21898147729397924],[-0.18240739688001298,0.21944444026384088],[-0.18240739688001298,0.21944444026384088],[-0.18194443391015133,0.22037036620356418],[-0.18055554500056636,0.22037036620356418],[-0.17962961906084307,0.22083332917342582],[-0.17916665609098142,0.22314814402273409],[-0.1749999893622266,0.22916666263093552],[-0.1749999893622266,0.22916666263093552],[-0.1749999893622266,0.22916666263093552]]]",2,"[23,74]",space,30.5037,space,2.2751,0,3,3,6,1,right_left_2.jpg,right_left_2_path.jpg,,,,,,,,,,,,,,,,
Image_List_4,,,,,,,,,,,,,,,,46711,2022-03-01_14h35.53.787,analogCatScenes,2020.1.3,Win32,60,"[1536,864]","[[[-0.006018505362724817,-0.20694445497873756],[-0.006018505362724817,-0.20694445497873756],[0.01944445797966586,-0.19444445479247305],[0.05324075477956622,-0.16990741738980566],[0.08796297751918987,-0.14305562165186445],[0.13796297826424794,-0.11157408318723794],[0.22546297956809955,-0.05972223056273328],[0.2726852024939877,-0.0351851931600659],[0.3004629806856866,-0.0171296373354616],[0.315740758691121,-0.011574081697121815],[0.31666668463084435,-0.011574081697121815],[0.31666668463084435,-0.011574081697121815],[0.31666668463084435,-0.011574081697121815],[0.31666668463084435,-0.011574081697121815],[0.31666668463084435,-0.011574081697121815]]]",1,[15],space,4.6718,space,1.0718,0,4,4,5,1,right_2.jpg,right_2_path.jpg,,,,,,,,,,,,,,,,
Image_List_4,,,,,,,,,,,,,,,,46711,2022-03-01_14h35.53.787,analogCatScenes,2020.1.3,Win32,60,"[1536,864]","[[[0.004166736488265862,-0.19351852885274975],[0.004166736488265862,-0.19351852885274975],[0.004166736488265862,-0.1939815483366458],[0.0013889021550615628,-0.18425926945551677],[-0.013425912880511195,-0.15277778750492466],[-0.03935183919276352,-0.12500000931322575],[-0.0856481361789284,-0.09166667548318704],[-0.15462961868831404,-0.012500007636845112],[-0.18796289600431834,0.057407400812263844],[-0.21620369367991332,0.10231480888884377],[-0.23379628653465598,0.11851851283400147],[-0.2370370273236875,0.1310184847632488],[-0.2370370273236875,0.13518517974902083],[-0.2370370273236875,0.13703703162846742],[-0.2370370273236875,0.13703703162846742]]]",1,[15],space,3.8877,space,0.5901,0,5,5,4,1,left_2.jpg,left_2_path.jpg,,,,,,,,,,,,,,,,
Image_List_4,,,,,,,,,,,,,,,,46711,2022-03-01_14h35.53.787,analogCatScenes,2020.1.3,Win32,60,"[1536,864]","[[[0.007407420763262996,-0.19814815855136625],[-0.012036967456891843,-0.1902777880637182],[-0.15046295195955922,-0.15648149126381786],[-0.21712961961963662,-0.14907408374603148],[-0.2578703609674617,-0.13564815762004367],[-0.2912036947975004,-0.12962963901184224],[-0.3037036949837649,-0.12453710285739851],[-0.31527776923030615,-0.11620371288585442],[-0.32777776941657066,-0.11157408318723794],[-0.3282407323864323,-0.11111112021737629],[-0.3282407323864323,-0.11111112021737629]],[[-0.008796283181894708,-0.19212963994316481],[-0.008796283181894708,-0.19212963994316481],[-0.0027777080596588684,-0.18657408430482503],[0.06157408823707589,-0.14305562165186445],[0.11805557056019704,-0.11851852773516267],[0.15740742299843719,-0.10231482379000496],[0.19166668276819918,-0.08888889766401714],[0.22453705362837623,-0.07962963826678417],[0.22638890550782284,-0.07962963826678417],[0.22638890550782284,-0.07962963826678417],[0.22638890550782284,-0.07962963826678417],[0.22638890550782284,-0.07962963826678417]],[[-0.0055555423928631675,-0.20787043743249528],[-0.0055555423928631675,-0.20787043743249528],[-0.0055555423928631675,-0.20787043743249528],[-0.0055555423928631675,-0.2032408077338788],[0.00601853185367805,-0.15046297265561642],[0.014351865311187727,-0.1046296386393132],[0.025925939557728945,-0.045833341466883816],[0.025925939557728945,-0.03981482285868238],[0.025925939557728945,-0.03981482285868238],[0.025462976587867295,-0.03981482285868238],[0.025000070132040055,-0.03981482285868238],[0.025000070132040055,-0.03981482285868238],[0.025000070132040055,-0.03981482285868238]]]",3,"[11,12,13]",space,8.9546,space,1.4261,0,6,6,3,1,ahead_right_left_2.jpg,ahead_right_left_2_path.jpg,,,,,,,,,,,,,,,,
Image_List_4,,,,,,,,,,,,,,,,46711,2022-03-01_14h35.53.787,analogCatScenes,2020.1.3,Win32,60,"[1536,864]","[[[-0.0027777080596588684,-0.19351852885274975],[-0.0027777080596588684,-0.19351852885274975],[-0.011111098031202951,-0.1824074740901046],[-0.03749993079928252,-0.15092593562547807],[-0.06111109877626101,-0.12592593525294904],[-0.09259258072685313,-0.0856481568749856],[-0.10925919112783807,-0.05509260086411679],[-0.13194443316509327,-0.03055556346144941],[-0.15277776680886745,-0.018518526245046546],[-0.16805554481430185,-0.014814822486153355],[-0.17824073015125813,-0.014814822486153355],[-0.19999998973475563,-0.01296297060670676],[-0.2236111011976997,-0.01296297060670676],[-0.22962956329186673,-0.01296297060670676],[-0.22962956329186673,-0.01296297060670676],[-0.22962956329186673,-0.01296297060670676],[-0.22962956329186673,-0.01296297060670676]],[[0.010648161552294536,-0.1976851955815046],[0.010648161552294536,-0.1976851955815046],[0.025925939557728945,-0.16388895529563866],[0.043518588926506,-0.1398148243487985],[0.04444445835219489,-0.13842599195324798],[0.08379631079043504,-0.08888889766401714],[0.11898149649992033,-0.062037045412041525],[0.14212964499300276,-0.047685193346330416],[0.16759260833539344,-0.03472223019020425],[0.1842592752504128,-0.026388896732694574],[0.187962979009306,-0.024537044853247977],[0.1986111273161239,-0.022222230003939733],[0.20046297919557052,-0.022222230003939733],[0.20046297919557052,-0.022222230003939733],[0.20046297919557052,-0.022222230003939733],[0.20046297919557052,-0.018981489214908193],[0.20046297919557052,-0.01759260030532325],[0.20046297919557052,-0.01759260030532325],[0.20046297919557052,-0.01759260030532325],[0.20046297919557052,-0.01759260030532325],[0.20046297919557052,-0.01759260030532325],[0.20046297919557052,-0.01759260030532325],[0.20046297919557052,-0.01759260030532325],[0.20046297919557052,-0.01759260030532325],[0.20046297919557052,-0.01759260030532325],[0.20046297919557052,-0.01759260030532325],[0.20046297919557052,-0.01759260030532325],[0.20046297919557052,-0.01759260030532325],[0.20046297919557052,-0.01759260030532325],[0.20046297919557052,-0.01759260030532325],[0.2259259425379612,0.004166659278174241],[0.2259259425379612,0.00462962224803589],[0.22638890550782284,0.00462962224803589],[0.22638890550782284,0.00462962224803589],[0.22638890550782284,0.00462962224803589]]]",2,"[17,35]",,,,,,,,,,,,space,7.485,courtroom2.jpg,space,8.7582,0,0,0,31,1,cubicle4.jpg,desertvegetation6.jpg,conference4.jpg,cabin3.jpg,,
Image_List_4,,,,,,,,,,,,,,,,46711,2022-03-01_14h35.53.787,analogCatScenes,2020.1.3,Win32,60,"[1536,864]","[[[0.0055555688838164015,-0.1986111780352623],[-0.0013888756641083294,-0.20000001043081284],[-0.0819444324200352,-0.2092592698280458],[-0.18888887845807606,-0.1939815483366458],[-0.2717592500633112,-0.1851851953952401],[-0.3185185100193377,-0.1740740841185605],[-0.3263888805069857,-0.17361112114869887],[-0.3263888805069857,-0.17268519520897557],[-0.3263888805069857,-0.17268519520897557]],[[-0.007407337758275356,-0.20092599288457055],[-0.007407337758275356,-0.20092599288457055],[-0.007407337758275356,-0.20092599288457055],[-0.007407337758275356,-0.20092599288457055],[0.02314816173855905,-0.19166673348733756],[0.05324075477956622,-0.18750001024454832],[0.07546297733292535,-0.18425926945551677],[0.09027779236849812,-0.1796296397569003],[0.09629631097669955,-0.17916667678703865],[0.11805557056019704,-0.16666667660077414],[0.14398149687244935,-0.15277778750492466],[0.17222223803400993,-0.14027778731866014],[0.19537038652709238,-0.12685191770670676],[0.2175926090804515,-0.11435186100640783],[0.24259260945298053,-0.09351852736263364],[0.2583333504282766,-0.07731482341747593],[0.26481483200633965,-0.07083334183941285],[0.2652777949762013,-0.0703703788695512],[0.28842594346928374,-0.047685193346330416],[0.2976853158945855,-0.03888889691895909],[0.29907409177610167,-0.03796297097923579],[0.29907409177610167,-0.03796297097923579],[0.29907409177610167,-0.03796297097923579],[0.29907409177610167,-0.03796297097923579],[0.3004629806856866,-0.03796297097923579],[0.3004629806856866,-0.03796297097923579],[0.3004629806856866,-0.03796297097923579]]]",2,"[9,27]",,,,,,,,,,,,,,lab3.jpg,space,14.5004,0,1,1,62,1,hotellobby2.jpg,minigolf.jpg,horsebarn8.jpg,hayfield7.jpg,,
Image_List_4,,,,,,,,,,,,,,,,46711,2022-03-01_14h35.53.787,analogCatScenes,2020.1.3,Win32,60,"[1536,864]","[[[0.00046297621533826543,-0.20046297340067448],[0.002777791064646509,-0.20046297340067448],[0.003240754034508158,-0.20000001043081284],[0.00879636618688235,-0.18425926945551677],[0.01574081073480708,-0.1712963062993906],[0.01574081073480708,-0.16898149145008237],[0.029166680346760485,-0.14490741701727664],[0.04444445835219489,-0.09814815706125012],[0.04444445835219489,-0.07870371232706087],[0.04444445835219489,-0.07175926777913615],[0.04444445835219489,-0.06990741589968955],[0.05416668071928951,-0.04629630443674547],[0.0606481622973526,-0.022685192973801383],[0.0606481622973526,-0.01666667436559995],[0.0606481622973526,-0.01666667436559995],[0.0606481622973526,-0.01666667436559995],[0.0606481622973526,-0.01666667436559995],[0.0606481622973526,-0.01666667436559995],[0.0606481622973526,-0.01666667436559995],[0.0606481622973526,-0.01666667436559995],[0.0606481622973526,-0.01666667436559995],[0.0606481622973526,-0.01666667436559995],[0.0606481622973526,-0.01666667436559995],[0.0606481622973526,-0.01666667436559995],[0.0606481622973526,-0.01666667436559995],[0.0606481622973526,-0.01666667436559995],[0.0606481622973526,-0.01666667436559995],[0.0606481622973526,-0.01666667436559995],[0.0606481622973526,-0.01666667436559995],[0.0606481622973526,-0.01666667436559995],[0.0606481622973526,-0.01666667436559995],[0.0606481622973526,-0.01666667436559995],[0.0606481622973526,-0.01666667436559995],[0.0606481622973526,-0.010185192787536868],[0.08888890345891316,0.07499999366700649],[0.10000001473559274,0.11203703125593839],[0.10324075552462428,0.12499999441206455],[0.10324075552462428,0.1254629573819262],[0.10324075552462428,0.1254629573819262],[0.10324075552462428,0.1254629573819262],[0.10324075552462428,0.1254629573819262],[0.10324075552462428,0.1254629573819262],[0.10324075552462428,0.1254629573819262],[0.10324075552462428,0.1254629573819262],[0.10092594067531603,0.148148142905147],[0.10046297770545438,0.16944443951878282],[0.09953705176573109,0.17731478174941365],[0.09814816285614614,0.18888885599595487],[0.09444445909725295,0.19814811539318786],[0.09351853315752966,0.19814811539318786],[0.09305557018766801,0.2004629302424961],[0.09305557018766801,0.2004629302424961],[0.0921296442479447,0.20648147710771472],[0.0921296442479447,0.20972221789674628],[0.09166668127808306,0.20972221789674628],[0.09166668127808306,0.20972221789674628],[0.09166668127808306,0.20972221789674628],[0.09166668127808306,0.20972221789674628],[0.09166668127808306,0.21018518086660792],[0.08796297751918987,0.2175925883843943],[0.08796297751918987,0.2175925883843943],[0.08796297751918987,0.2175925883843943],[0.08796297751918987,0.2175925883843943],[0.08796297751918987,0.2175925883843943],[0.08796297751918987,0.2175925883843943],[0.08796297751918987,0.2175925883843943]],[[-0.0013888756641083294,-0.20555562258318702],[-0.0013888756641083294,-0.20555562258318702],[-0.0013888756641083294,-0.20555562258318702],[-0.0013888756641083294,-0.20555562258318702],[-0.0013888756641083294,-0.20555562258318702],[-0.0013888756641083294,-0.20555562258318702],[0.0018519216389576184,-0.195833343702058],[0.002777791064646509,-0.16527778769118917],[0.002777791064646509,-0.14490741701727664],[0.002777791064646509,-0.13101852792142718],[0.00231482809478486,-0.11296302861085729],[-0.0023148016038316266,-0.09537037924208024],[-0.012962949910649547,-0.07500000856816769],[-0.025925856552741305,-0.05185186007508525],[-0.03657406137359363,-0.0342592672203426],[-0.04444437534720725,-0.01666667436559995],[-0.051388819895131985,-0.012037044666983463],[-0.05787035798722947,-0.011111118727260165],[-0.059259246896814416,-0.011111118727260165],[-0.059259246896814416,-0.00972222981767522],[-0.059259246896814416,-0.007870377938228625],[-0.059259246896814416,-0.006944451998505328],[-0.06388887659543091,-0.006481489028643679],[-0.06666665441460079,-0.006481489028643679],[-0.06666665441460079,-0.005555563088920381],[-0.06666665441460079,-0.005555563088920381],[-0.06666665441460079,-0.005555563088920381]]]",2,"[66,27]",,,,,,,,,,,,,,kindergarten_classroom6.jpg,space,46.4447,0,2,2,60,1,hometheater2.jpg,lightingstore3.jpg,homegarage.jpg,hallway.jpg,,
Image_List_4,,,,,,,,,,,,,,,,46711,2022-03-01_14h35.53.787,analogCatScenes,2020.1.3,Win32,60,"[1536,864]","[[[-0.000462893210350625,-0.20046297340067448],[-0.000462893210350625,-0.20046297340067448],[-0.000462893210350625,-0.20046297340067448],[0.004629642944093104,-0.1995370474609512],[0.021759272828974104,-0.19120371400344152],[0.04675927320150314,-0.17916667678703865],[0.07824075515209525,-0.16435186175146588],[0.1175926075903354,-0.13842599195324798],[0.15648149705871386,-0.10925926833792969],[0.19675927543667732,-0.06018519353259493],[0.2268518684776845,-0.0171296373354616],[0.24953705400090526,0.02222221510277854],[0.2685185357652329,0.04768515018815202],[0.2685185357652329,0.04999996503746026],[0.2685185357652329,0.051851845173924056],[0.2685185357652329,0.05879628972184879],[0.27500001734329593,0.07453703069714485],[0.27500001734329593,0.07499999366700649],[0.27500001734329593,0.07592591960672979],[0.27500001734329593,0.07592591960672979],[0.27500001734329593,0.07592591960672979]]]",1,[21],,,,,,,,,,,,,,restaurant8.jpg,space,5.4833,0,3,3,83,1,readingroom1.jpg,sculpturegarden1.jpg,promenadeDeck6.jpg,readingroom2.jpg,,
Image_List_4,,,,,,,,,,,,,,,,46711,2022-03-01_14h35.53.787,analogCatScenes,2020.1.3,Win32,60,"[1536,864]","[[[-0.0009259126942466806,-0.19907408449108954],[1.3245476616753471e-8,-0.195833343702058],[0.0009259391851999142,-0.10370376921362431],[-0.0055555423928631675,-0.02777778564227952],[-0.0055555423928631675,-0.013425933576568409],[-0.0055555423928631675,-0.00972222981767522],[-0.0055555423928631675,0.018055548374023702],[-0.006018505362724817,0.019907400253470296],[-0.018981412004816574,0.0712962899081133],[-0.018981412004816574,0.0740740677272832],[-0.018981412004816574,0.0740740677272832],[-0.018981412004816574,0.07499999366700649],[-0.018981412004816574,0.07546292837985094],[-0.018981412004816574,0.07870369742589968],[-0.018981412004816574,0.07962962336562297],[-0.018981412004816574,0.07962962336562297],[-0.018981412004816574,0.07962962336562297]]]",1,[17],,,,,,,,,,,,,,metroInside1.jpg,space,5.7882,0,4,4,69,1,liquorstore8.jpg,parkinglot2.jpg,livingroom.jpg,icecream2.jpg,,
Image_List_4,,,,,,,,,,,,,,,,46711,2022-03-01_14h35.53.787,analogCatScenes,2020.1.3,Win32,60,"[1536,864]","[[[-0.0023148016038316266,-0.20092599288457055],[-0.0023148016038316266,-0.20092599288457055],[-0.005092522908967112,-0.19259260291302646],[-0.012499986940787898,-0.1768518619377304],[-0.031018505735253846,-0.13472223168032038],[-0.04120369107221012,-0.10324074972972826],[-0.04351850592151836,-0.09166667548318704],[-0.046296283740688254,-0.06296297135176482],[-0.046296283740688254,-0.05185186007508525],[-0.04722220968041155,-0.04537037849702217],[-0.051388819895131985,-0.023148155943663033],[-0.05231480234888969,-0.005555563088920381],[-0.05231480234888969,-0.0037037112094737866],[-0.05231480234888969,-0.0037037112094737866],[-0.05231480234888969,-0.0037037112094737866],[-0.05231480234888969,-0.0037037112094737866],[-0.05231480234888969,-0.0037037112094737866]],[[0.0009259391851999142,-0.19629636318595406],[0.0009259391851999142,-0.19629636318595406],[-0.012499986940787898,-0.19629636318595406],[-0.0476851726502732,-0.19074075103357988],[-0.08333332132962015,-0.19074075103357988],[-0.1361110998938481,-0.18888889915413326],[-0.18055554500056636,-0.1851851953952401],[-0.22222221228811476,-0.17268519520897557],[-0.222685118743942,-0.17268519520897557],[-0.222685118743942,-0.17268519520897557],[-0.23657400783979146,-0.17268519520897557],[-0.2902777688577771,-0.16203704690215764],[-0.29999999122487175,-0.15462969589840567],[-0.3032407320139033,-0.1416666762282451],[-0.3032407320139033,-0.12453710285739851],[-0.3032407320139033,-0.1217592685241942],[-0.3032407320139033,-0.12129630555433256],[-0.3032407320139033,-0.11990747315878202],[-0.3032407320139033,-0.11805556476530102],[-0.32546295456726243,-0.0694444529298279],[-0.32870369535629396,-0.06574074917093471],[-0.32870369535629396,-0.06574074917093471],[-0.32870369535629396,-0.06574074917093471],[-0.32870369535629396,-0.06574074917093471]]]",2,"[17,24]",,,,,,,,,,,,,,homegarage4.jpg,space,9.7795,0,5,5,54,1,greenhouse2.jpg,horsebarn11.jpg,gazebo2.jpg,frontFoyer.jpg,,
Image_List_4,,,,,,,,,,,,,,,,46711,2022-03-01_14h35.53.787,analogCatScenes,2020.1.3,Win32,60,"[1536,864]","[[[-0.0037036905134165726,-0.20416667715956768],[-0.0037036905134165726,-0.20416667715956768],[-0.0037036905134165726,-0.20416667715956768],[-0.0037036905134165726,-0.20416667715956768],[-0.00462961645313987,-0.20416667715956768],[-0.01574072772981944,-0.20416667715956768],[-0.03472220949414703,-0.20555562258318702],[-0.04027776513248682,-0.20555562258318702],[-0.051851839379028035,-0.21018525228180351],[-0.06435183956529256,-0.21342593655680064],[-0.08333332132962015,-0.21342593655680064],[-0.09722221042546961,-0.21342593655680064],[-0.11249998843090402,-0.21342593655680064],[-0.12361109970758359,-0.21342593655680064],[-0.12638887752675348,-0.21342593655680064],[-0.12685184049661513,-0.21342593655680064],[-0.12777770992230403,-0.21342593655680064],[-0.12777770992230403,-0.21342593655680064],[-0.12777770992230403,-0.21342593655680064],[-0.12777770992230403,-0.21342593655680064],[-0.12777770992230403,-0.21342593655680064],[-0.13101850722536998,-0.21342593655680064],[-0.1435185074116345,-0.20509260309929098],[-0.14814813711025096,-0.20462964012942933],[-0.1486110435660782,-0.2032408077338788],[-0.15092585841538644,-0.20046297340067448],[-0.1523148038390058,-0.19722223261164296],[-0.1523148038390058,-0.19722223261164296],[-0.1523148038390058,-0.19722223261164296],[-0.17083332263347176,-0.1824074740901046],[-0.17638882175777712,-0.18101852866648524],[-0.17638882175777712,-0.18101852866648524],[-0.17638882175777712,-0.18101852866648524],[-0.1884259154882144,-0.17546302954217985],[-0.1902777108536266,-0.17546302954217985],[-0.19074073033752265,-0.1750000100582838],[-0.20324073052378716,-0.15416667641450962],[-0.20416659994947606,-0.15277778750492466],[-0.2046296194333721,-0.15231488104909743],[-0.22592591604700796,-0.13657408355976697],[-0.2388888226890997,-0.1300926019817039],[-0.2388888226890997,-0.1300926019817039],[-0.23935184217299577,-0.129166732556015],[-0.2541666572085685,-0.11203704615709958],[-0.258796286907185,-0.11064821376154904],[-0.2597221563328739,-0.11064821376154904],[-0.2597221563328739,-0.11064821376154904],[-0.2606481387866316,-0.11064821376154904],[-0.26296295363593986,-0.10925926833792969],[-0.28472221321943736,-0.10000000894069672],[-0.2879629540084689,-0.10000000894069672],[-0.2879629540084689,-0.10000000894069672],[-0.2879629540084689,-0.10000000894069672],[-0.2967592504358402,-0.09305556439277199],[-0.2967592504358402,-0.09305556439277199],[-0.3041666579536266,-0.08055556420650747],[-0.30694443577279645,-0.07777778638733758],[-0.30694443577279645,-0.07777778638733758],[-0.30694443577279645,-0.07731482341747593],[-0.30694443577279645,-0.07731482341747593],[-0.30694443577279645,-0.07731482341747593],[-0.31342591735085956,-0.06759260105038131],[-0.31342591735085956,-0.06759260105038131],[-0.31342591735085956,-0.06759260105038131],[-0.31342591735085956,-0.06759260105038131],[-0.31342591735085956,-0.06759260105038131],[-0.31342591735085956,-0.06759260105038131],[-0.31342591735085956,-0.06759260105038131]],[[-0.006018505362724817,-0.1976851955815046],[-0.006018505362724817,-0.1976851955815046],[0.02685186549745224,-0.20046297340067448],[0.08009260703154185,-0.20046297340067448],[0.12546297807798343,-0.19814815855136625],[0.1643518675463619,-0.195833343702058],[0.23194446114616263,-0.19166673348733756],[0.2791666840720508,-0.19166673348733756],[0.3046297604425103,-0.18750001024454832],[0.3106481660226429,-0.18750001024454832],[0.31759261057056765,-0.18472228893941284],[0.31759261057056765,-0.18472228893941284],[0.31759261057056765,-0.18472228893941284],[0.3212963143294608,-0.18333334351579347],[0.3212963143294608,-0.18333334351579347],[0.3212963143294608,-0.18333334351579347],[0.3212963143294608,-0.18333334351579347],[0.3212963143294608,-0.18333334351579347],[0.3212963143294608,-0.18333334351579347],[0.3212963143294608,-0.18333334351579347],[0.3212963143294608,-0.18333334351579347],[0.3287037218472472,-0.18101852866648524]]]",2,"[68,22]",,,,,,,,,,,,,,cabinIndoors.jpg,space,28.7476,0,6,6,15,1,bambooforest4.jpg,cafeteria5.jpg,bleachers8.jpg,bar8.jpg,,
Image_List_4,,,,,,,,,,,,,,,,46711,2022-03-01_14h35.53.787,analogCatScenes,2020.1.3,Win32,60,"[1536,864]","[[[0.003240754034508158,-0.20000001043081284],[0.003240754034508158,-0.20000001043081284],[0.013425995885498835,-0.15185186156520136],[0.058796310417906,-0.03657408206965084],[0.07546297733292535,0.024999992921948433],[0.08842594048905152,0.07916666039576133],[0.08796297751918987,0.14583332805583873],[0.08842594048905152,0.18703703237352548],[0.08842594048905152,0.18703703237352548],[0.08842594048905152,0.18703703237352548],[0.08842594048905152,0.18703703237352548]]]",1,[11],,,,,,,,,,,,,,dining_car6.jpg,space,4.6186,0,7,7,35,1,deck5.jpg,dock3.jpg,cubicle7.jpg,carmechanic2.jpg,,
Image_List_4,,,,,,,,,,,,,,,,46711,2022-03-01_14h35.53.787,analogCatScenes,2020.1.3,Win32,60,"[1536,864]","[[[0.0018519216389576184,-0.19722223261164296],[0.0018519216389576184,-0.19722223261164296],[0.0018519216389576184,-0.19722223261164296],[-0.03379628355442374,-0.20277778824998272],[-0.07222215353890617,-0.19212963994316481],[-0.10555554388297929,-0.1759259359980071],[-0.15277776680886745,-0.0893518606338788],[-0.15972221135679218,0.06435184536018858],[-0.11203702546104237,0.19305555098172691],[-0.06851850629404739,0.2611111075513893],[-0.04999998749958144,0.27499998251873015],[-0.010185172091479655,0.28101851525544014],[0.005092605913954752,0.28101851525544014],[0.009259272642709591,0.28101851525544014],[0.009259272642709591,0.28101851525544014],[0.009259272642709591,0.28101851525544014],[0.009259272642709591,0.28101851525544014],[0.009259272642709591,0.28101851525544014]]]",1,[18],,,,,,,,,,,,,,dugout1.jpg,space,5.5469,0,8,8,40,1,drycleaners4.jpg,farm1.jpg,drymountains.jpg,clothingstore3.jpg,,
Image_List_4,,,,,,,,,,,,,,,,46711,2022-03-01_14h35.53.787,analogCatScenes,2020.1.3,Win32,60,"[1536,864]","[[[-0.012036967456891843,-0.19351852885274975],[-0.012036967456891843,-0.19351852885274975],[-0.18009258203070472,-0.16990741738980566],[-0.21851850852922158,-0.14120371325838346],[-0.23379628653465598,-0.13472223168032038],[-0.2685185092742796,-0.1342592687104587],[-0.2805554899766481,-0.13287037980087377],[-0.2805554899766481,-0.13194445386115047],[-0.2879629540084689,-0.12500000931322575],[-0.31712962110975274,-0.10138895436431607],[-0.3402777696028352,-0.08611111984484726],[-0.34490739930145164,-0.0856481568749856],[-0.3462962882110366,-0.0856481568749856],[-0.3462962882110366,-0.08518519390512395],[-0.3462962882110366,-0.08518519390512395]],[[0.007407420763262996,-0.19351852885274975],[0.007407420763262996,-0.19351852885274975],[0.07129631060417052,-0.18611112133496338],[0.15879631190802213,-0.16805556551035908],[0.22916668332699272,-0.1300926019817039],[0.28055557298163575,-0.09120371251332539],[0.31666668463084435,-0.033796304250480955],[0.3356481663951719,0.001851844428865998],[0.34444446282254326,0.02592591886167173],[0.34444446282254326,0.028703696680841623],[0.3425926109430967,0.07037036396839001],[0.33379631451572533,0.09444443840119573],[0.33379631451572533,0.09861107687293337],[0.33379631451572533,0.09861107687293337],[0.33379631451572533,0.09861107687293337],[0.33379631451572533,0.09861107687293337]],[[0.004629642944093104,-0.1986111780352623],[0.060185199327490946,-0.18009265924079634],[0.1509259414203741,-0.1388888984090752],[0.1939814976175074,-0.10925926833792969],[0.2032407570147404,-0.0875000087544322],[0.15833334893816048,-0.026388896732694574],[0.10972223710268736,0.02222221510277854],[0.10370371849448592,0.03009258559042657],[0.10370371849448592,0.03009258559042657],[0.10277779255476263,0.03009258559042657],[0.10277779255476263,0.03009258559042657],[0.10277779255476263,0.03009258559042657]]]",3,"[15,16,12]",,,,,,,,,,,,,,liquorstore2.jpg,space,8.7021,0,9,9,67,1,library_aisle3.jpg,park7.jpg,laundromat4.jpg,hospitalroom2.jpg,,
Image_List_4,,,,,,,,,,,,,,,,46711,2022-03-01_14h35.53.787,analogCatScenes,2020.1.3,Win32,60,"[1536,864]","[[[-0.0032407275435549243,-0.20138889934039778],[-0.03842591325304023,-0.15092593562547807],[-0.11851845052507104,-0.07083334183941285],[-0.1666666559047169,-0.008333340908090273],[-0.19444443409641585,0.023611104012363486],[-0.20601850834295707,0.04259258577669108],[-0.2361111013839642,0.06620366898261797],[-0.2592592498770467,0.0912036976121642],[-0.2745370278824811,0.11064814234635344],[-0.2912036947975004,0.13842592053805236],[-0.30185184310431834,0.14675925399556203],[-0.30509258389334987,0.1490740688448703],[-0.3120370284412746,0.15648144810563946],[-0.3148148062604445,0.16666666169961294],[-0.3148148062604445,0.16851851357905953],[-0.3148148062604445,0.16851851357905953],[-0.31527776923030615,0.16851851357905953]],[[1.3245476616753471e-8,-0.19351852885274975],[1.3245476616753471e-8,-0.19351852885274975],[1.3245476616753471e-8,-0.19351852885274975],[0.06666668090555403,-0.18472228893941284],[0.11388890383144219,-0.1740740841185605],[0.16898149724497838,-0.14583334295699993],[0.20740742374349525,-0.11620371288585442],[0.22870372035713107,-0.09490741627221858],[0.25324075775979843,-0.06620371214079636],[0.2759259432830192,-0.047685193346330416],[0.2953703880172085,0.014351844615130513],[0.2976853158945855,0.05879628972184879],[0.2976853158945855,0.05879628972184879],[0.2976853158945855,0.05879628972184879],[0.2976853158945855,0.05879628972184879],[0.2976853158945855,0.05879628972184879]]]",2,"[17,16]",,,,,,,,,,,,,,minigolf8.jpg,space,9.2841,0,10,10,70,1,lockerroom4.jpg,pavilion.jpg,lockerroom3.jpg,igloo.jpg,,
Image_List_4,,,,,,,,,,,,,,,,46711,2022-03-01_14h35.53.787,analogCatScenes,2020.1.3,Win32,60,"[1536,864]","[[[0.00046297621533826543,-0.1930555658828881],[0.00046297621533826543,-0.1930555658828881],[0.00046297621533826543,-0.1930555658828881],[0.08657408860960493,-0.1824074740901046],[0.18472223822027445,-0.14120371325838346],[0.24675927618173538,-0.11342593506668452],[0.2879629804994221,-0.09490741627221858],[0.2902777953487303,-0.09259260142291034],[0.2902777953487303,-0.09074074954346374],[0.2902777953487303,-0.08796297172429385],[0.2902777953487303,-0.08657408281470891],[0.28935186940900703,-0.08518519390512395]]]",1,[12],,,,,,,,,,,,,,lab5.jpg,space,4.6848,0,11,11,64,1,igloo2.jpg,newsstand5.jpg,jewelrystore8.jpg,homegarage2.jpg,,
Image_List_4,,,,,,,,,,,,,,,,46711,2022-03-01_14h35.53.787,analogCatScenes,2020.1.3,Win32,60,"[1536,864]","[[[-0.0013888756641083294,-0.19907408449108954],[-0.0013888756641083294,-0.19907408449108954],[-0.0013888756641083294,-0.19907408449108954],[-0.000462893210350625,-0.19629636318595406],[0.01296297640160278,-0.1472222318665849],[0.020370440433423568,-0.11157408318723794],[0.021296309859112458,-0.07592593450789098],[0.021296309859112458,-0.02777778564227952],[0.01990742094952751,0.031018511530149867],[0.02268525528273181,0.08981480870257925],[0.025462976587867295,0.10972221640663014],[0.025462976587867295,0.11064814234635344],[0.025462976587867295,0.11064814234635344],[0.025462976587867295,0.11064814234635344],[0.025462976587867295,0.11064814234635344]]]",1,[15],,,,,,,,,,,,,,hallway2.jpg,space,5.4189,0,12,12,50,1,frontLawn4.jpg,grocerystore6.jpg,forestpath6.jpg,fireplace4.jpg,,
Image_List_4,,,,,,,,,,,,,,,,46711,2022-03-01_14h35.53.787,analogCatScenes,2020.1.3,Win32,60,"[1536,864]","[[[0.0018519216389576184,-0.195833343702058],[0.0018519216389576184,-0.195833343702058],[0.0018519216389576184,-0.195833343702058],[0.0018519216389576184,-0.195833343702058],[-0.0013888756641083294,-0.19351852885274975],[-0.018055542579127684,-0.18009265924079634],[-0.03796295028317858,-0.1587963061131261],[-0.0629628941416732,-0.1282407501022573],[-0.08333332132962015,-0.10092593488042001],[-0.09629628448574631,-0.08240741608595406],[-0.10509258091311764,-0.066666675110658],[-0.10648146982270258,-0.06388889729148811],[-0.10694437627852983,-0.06250000838190317],[-0.10787035873228754,-0.061111119472318225]],[[0.0013889021550615628,-0.20000001043081284],[0.0013889021550615628,-0.20000001043081284],[0.0013889021550615628,-0.20000001043081284],[0.0013889021550615628,-0.19675926964178128],[0.0013889021550615628,-0.17175926926925225],[-0.0009259126942466806,-0.16481482472132752],[-0.0023148016038316266,-0.1342592687104587],[-0.0023148016038316266,-0.12777778713239563],[0.00231482809478486,-0.11527784346016554],[0.024074087678282348,-0.0875000087544322],[0.047222236171364784,-0.07268519371885944],[0.07824075515209525,-0.046759267406607116],[0.11388890383144219,-0.029629637521726114],[0.15601853408885222,-0.019444452184769843],[0.1898148308887526,-0.014814822486153355],[0.21157409047225006,-0.006481489028643679],[0.2120370534421117,-0.006481489028643679],[0.2120370534421117,-0.006481489028643679],[0.2120370534421117,-0.006481489028643679],[0.2120370534421117,-0.006481489028643679]]]",2,"[14,20]",,,,,,,,,,,,,,labClass7.jpg,space,8.3417,0,13,13,65,1,igloo5.jpg,newsstand7.jpg,laundromat2.jpeg,homeoffice8.jpg,,
Image_List_4,,,,,,,,,,,,,,,,46711,2022-03-01_14h35.53.787,analogCatScenes,2020.1.3,Win32,60,"[1536,864]","[[[-0.001851838633969978,-0.20648149200887592],[-0.001851838633969978,-0.20648149200887592],[0.010185198582432888,-0.18009265924079634],[0.03148149519606873,-0.14120371325838346],[0.04120377407719776,-0.1254629722830874],[0.04212964350288665,-0.11944445367488596],[0.041666680533025,-0.05972223056273328],[0.041666680533025,-0.054629637894255144],[0.041666680533025,-0.054629637894255144],[0.01574081073480708,-0.029629637521726114],[-0.03148146870511549,0.03518517825890471],[-0.055092580168059575,0.04305552048953553],[-0.07083332114335564,0.04583332656572262],[-0.09490739557616136,0.056481474872540544],[-0.12824072940620007,0.07638888257659143],[-0.16018511781261943,0.0884259197929943],[-0.18287035984987463,0.0884259197929943],[-0.18749998954849112,0.0884259197929943]]]",1,[18],,,,,,,,,,,,,,sandDunes_desert_outdoor.jpg,space,6.0616,0,14,14,84,1,readingroom5.jpg,sidewalk2.jpg,restaurant13.jpg,rooftop2.jpg,,
Image_List_4,,,,,,,,,,,,,,,,46711,2022-03-01_14h35.53.787,analogCatScenes,2020.1.3,Win32,60,"[1536,864]","[[[-0.001851838633969978,-0.195833343702058],[0.0777777921822336,-0.22407414137765297],[0.12546297807798343,-0.23055556644168165],[0.16574075645594685,-0.22685186268278845],[0.22824075738726943,-0.19629636318595406],[0.2898148323788687,-0.16481482472132752],[0.3282407588773855,-0.13518519465018203],[0.334259277485587,-0.12777778713239563],[0.334259277485587,-0.11851852773516267],[0.3222222402691841,-0.09583334221194188],[0.31944446245001423,-0.09259260142291034],[0.31944446245001423,-0.09212963845304868],[0.31944446245001423,-0.09120371251332539],[0.31944446245001423,-0.09120371251332539]],[[0.0009259391851999142,-0.20185186231025942],[0.0009259391851999142,-0.20185186231025942],[-0.1523148038390058,-0.1995370474609512],[-0.2652777684852481,-0.18611112133496338],[-0.2921295642231893,-0.1759259359980071],[-0.2995370282550101,-0.1606481579925727],[-0.32361110268781584,-0.10601858406293256],[-0.33981480663297353,-0.08148149014623077],[-0.34444443633159,-0.07314815668872109],[-0.3453703622713133,-0.07222223074899779],[-0.3453703622713133,-0.07222223074899779],[-0.3453703622713133,-0.07222223074899779],[-0.3453703622713133,-0.07222223074899779],[-0.3453703622713133,-0.07222223074899779]]]",2,"[14,14]",,,,,,,,,,,,,,fountain4.jpg,space,6.1512,0,15,15,46,1,flowershop.jpg,frontLawn5.jpg,farmersmarket4.jpg,dormroom6.jpg,,
Image_List_4,,,,,,,,,,,,,,,,46711,2022-03-01_14h35.53.787,analogCatScenes,2020.1.3,Win32,60,"[1536,864]","[[[0.004629642944093104,-0.20231482528012107],[0.004629642944093104,-0.20231482528012107],[-0.03842591325304023,-0.1949074177623347],[-0.10787035873228754,-0.17222223223911393],[-0.1666666559047169,-0.15092593562547807],[-0.23425919299048323,-0.11435186100640783],[-0.27083332412358785,-0.07685186044761429],[-0.2939814726166703,-0.04722223037646876],[-0.31944443595906097,-0.018981489214908193],[-0.3291666583261556,-0.005092600119058733],[-0.3300925842658789,0.004166659278174241],[-0.3300925842658789,0.006944437097344134],[-0.3300925842658789,0.006944437097344134]]]",1,[13],,,,,,,,,,,,,,airplanecabin5.jpg,space,3.0966,0,16,16,0,1,airplanecabin1.jpg,alley2.jpg,appleorchard4.jpg,airplanecabin3.jpg,,
Image_List_4,,,,,,,,,,,,,,,,46711,2022-03-01_14h35.53.787,analogCatScenes,2020.1.3,Win32,60,"[1536,864]","[[[-0.0013888756641083294,-0.195833343702058],[-0.0013888756641083294,-0.195833343702058],[-0.0013888756641083294,-0.195833343702058],[0.006481551337574105,-0.18981482509385655],[0.05601853259873611,-0.1425926021679684],[0.08194445891098844,-0.11574074991599277],[0.08240742188085008,-0.10879630536806804],[0.046296310231641484,-0.07916667529692252],[0.030092606286483782,-0.07453704559830604],[0.013425995885498835,-0.0703703788695512],[0.0069444577934013475,-0.0703703788695512],[0.0055555688838164015,-0.06805556402024296],[0.0055555688838164015,-0.06805556402024296]]]",1,[13],,,,,,,,,,,,,,operatingroom1.jpg,space,6.3376,0,17,17,74,1,newsstand2.jpg,playground10.jpg,observatory4.jpeg,lightingstore2.jpg,,
Image_List_4,,,,,,,,,,,,,,,,46711,2022-03-01_14h35.53.787,analogCatScenes,2020.1.3,Win32,60,"[1536,864]","[[[-0.0055555423928631675,-0.1939815483366458],[-0.0055555423928631675,-0.1939815483366458],[-0.02638887603663736,-0.17916667678703865],[-0.12731480346647678,-0.12962963901184224],[-0.18379628578959792,-0.10231482379000496],[-0.23564813841410256,-0.0856481568749856],[-0.27361104542872333,-0.0856481568749856],[-0.2768518427317893,-0.08425926796540066],[-0.2768518427317893,-0.08287037905581572],[-0.2768518427317893,-0.08148149014623077],[-0.2768518427317893,-0.08101852717636912],[-0.2768518427317893,-0.08009260123664583]],[[0.00046297621533826543,-0.19907408449108954],[0.00046297621533826543,-0.19907408449108954],[0.00046297621533826543,-0.19907408449108954],[1.3245476616753471e-8,-0.1388888984090752],[-0.011574061001064602,-0.08472223093526231],[-0.02175924633802087,-0.06018519353259493],[-0.034259246524285386,-0.04120371176826733],[-0.052777765318751335,-0.011111118727260165],[-0.0648148025351542,0.006018511157620836],[-0.06527770899098144,0.006018511157620836],[-0.06527770899098144,0.006018511157620836],[-0.06527770899098144,0.006018511157620836],[-0.06527770899098144,0.006018511157620836],[-0.06527770899098144,0.006018511157620836],[-0.06527770899098144,0.006018511157620836]],[[0.00231482809478486,-0.19629636318595406],[0.004629642944093104,-0.19351852885274975],[0.03379631004537697,-0.13472223168032038],[0.049537051020673024,-0.0712963048092745],[0.06157408823707589,-0.018981489214908193],[0.07314816248361711,0.014814807584992162],[0.07314816248361711,0.024537029952086783],[0.07314816248361711,0.024999992921948433],[0.07314816248361711,0.024999992921948433],[0.07314816248361711,0.024999992921948433],[0.07314816248361711,0.024999992921948433],[0.07314816248361711,0.024999992921948433]],[[-0.0055555423928631675,-0.20648149200887592],[-0.0055555423928631675,-0.20648149200887592],[0.03240742113579203,-0.1930555658828881],[0.1111111260122723,-0.1625000098720193],[0.161574089727192,-0.13379636225463148],[0.2013889051352938,-0.09675932466569959],[0.24398149836256547,-0.03055556346144941],[0.2694444617049562,0.037962956078074594],[0.2699074246748178,0.041203696867106135],[0.2699074246748178,0.04259258577669108],[0.2699074246748178,0.04398147468627603],[0.2699074246748178,0.04768515018815202],[0.2699074246748178,0.04999996503746026],[0.2699074246748178,0.051851845173924056],[0.2699074246748178,0.051851845173924056],[0.2699074246748178,0.051851845173924056]]]",4,"[12,15,12,16]",,,,,,,,,,,,,,basketballcourt3.jpg,space,13.1013,0,18,18,10,1,backstage2.jpg,barbershop3.jpg,ballroom4.jpg,ATM4.jpg,,
Image_List_4,,,,,,,,,,,,,,,,46711,2022-03-01_14h35.53.787,analogCatScenes,2020.1.3,Win32,60,"[1536,864]","[[[0.0055555688838164015,-0.20185186231025942],[0.0055555688838164015,-0.20185186231025942],[-0.011111098031202951,-0.20185186231025942],[-0.04907400504582374,-0.19675926964178128],[-0.09490739557616136,-0.18009265924079634],[-0.14907406304997425,-0.15555556532409456],[-0.1722222115430567,-0.1407408068025562],[-0.1768518412416732,-0.13935186137893685],[-0.17777776718139648,-0.13842599195324798],[-0.18518517469918286,-0.12037037961460927],[-0.18749998954849112,-0.11157408318723794],[-0.18796289600431834,-0.11018519427765298],[-0.18425924875945957,-0.09351852736263364],[-0.18055554500056636,-0.08055556420650747],[-0.18055554500056636,-0.08009260123664583],[-0.18055554500056636,-0.08009260123664583],[-0.18055554500056636,-0.07824074935719923],[-0.18055554500056636,-0.07824074935719923],[-0.18055554500056636,-0.07824074935719923],[-0.17638882175777712,-0.0712963048092745],[-0.17638882175777712,-0.0712963048092745],[-0.17638882175777712,-0.0712963048092745],[-0.17638882175777712,-0.07083334183941285],[-0.17638882175777712,-0.07083334183941285],[-0.17638882175777712,-0.07083334183941285],[-0.17638882175777712,-0.07083334183941285],[-0.17638882175777712,-0.07083334183941285],[-0.17638882175777712,-0.07083334183941285],[-0.17638882175777712,-0.07083334183941285],[-0.17638882175777712,-0.07083334183941285],[-0.17638882175777712,-0.07083334183941285],[-0.17638882175777712,-0.07083334183941285],[-0.17638882175777712,-0.07083334183941285],[-0.17638882175777712,-0.06990741589968955],[-0.15648147056776066,-0.031944452371034354],[-0.15648147056776066,-0.030092600491587764],[-0.15648147056776066,-0.029166674551864464],[-0.1398148036527413,0.001388881459004349],[-0.1398148036527413,0.002777770368589295],[-0.1398148036527413,0.002777770368589295],[-0.1398148036527413,0.002777770368589295],[-0.1351851739541248,0.00787036303706743],[-0.12546289507299577,0.06435184536018858],[-0.13379628504453986,0.07777774322915919],[-0.14490739632121943,0.09166663232500864],[-0.1523148038390058,0.10370369779842871],[-0.15462961868831404,0.1055555214208581],[-0.16481474751123593,0.12361110550247961],[-0.1703703596636101,0.12685184629151114],[-0.17453702639236493,0.1282407352010961],[-0.1759259153019499,0.1282407352010961],[-0.1759259153019499,0.1291666611408194],[-0.1759259153019499,0.1291666611408194]],[[0.0013889021550615628,-0.19212963994316481],[0.0013889021550615628,-0.19212963994316481],[0.0425926064727483,-0.18287038054593183],[0.08287038485071173,-0.16712963957063579],[0.12314816322867517,-0.14305562165186445],[0.16342594160663862,-0.1226851944639175],[0.1842592752504128,-0.1055555645790365],[0.1842592752504128,-0.10000000894069672],[0.1842592752504128,-0.10000000894069672],[0.19305557167778412,-0.06527778620107307],[0.20740742374349525,-0.00601852605878203],[0.21435186829141997,0.01203702976582227],[0.21435186829141997,0.01527777055485381],[0.21805557205031315,0.020833326193193596],[0.22175927580920635,0.02916663139368607],[0.2347222389653325,0.036111075941610796],[0.2449074243022888,0.041203696867106135],[0.2625000171570314,0.04768515018815202],[0.2634259430967547,0.04768515018815202],[0.27037038764467947,0.04999996503746026],[0.27824075813232746,0.05370369705337065],[0.27870372110218916,0.05370369705337065],[0.27870372110218916,0.05370369705337065],[0.27870372110218916,0.05370369705337065]]]",2,"[53,24]",,,,,,,,,,,,,,cemetery.jpg,space,11.0584,0,19,19,22,1,bowlingalley5.jpg,church6.jpg,cargo5.jpg,bistrooutdoor6.jpg,,
Image_List_4,,,,,,,,,,,,,,,,46711,2022-03-01_14h35.53.787,analogCatScenes,2020.1.3,Win32,60,"[1536,864]","[[[1.3245476616753471e-8,-0.1986111780352623],[1.3245476616753471e-8,-0.1986111780352623],[0.08472223673015833,-0.19074075103357988],[0.1662037194258085,-0.18981482509385655],[0.21111112750238842,-0.195833343702058],[0.2412037205433956,-0.1949074177623347],[0.26203705418716977,-0.18750001024454832],[0.2634259430967547,-0.18472228893941284],[0.26388890606661636,-0.06481482323121142],[0.21990742392975976,-0.012500007636845112],[0.13935186717383288,0.014814807584992162],[0.07407408842334041,0.01574073352471546],[0.030555569256345432,0.010185177886375674],[0.00601853185367805,0.009259251946652378],[-0.018055542579127684,0.00787036303706743],[-0.024537024157190765,0.007407400067205782],[-0.024537024157190765,0.007407400067205782],[-0.024537024157190765,0.007407400067205782]]]",1,[18],,,,,,,,,,,,,,kindergarten_classroom5.jpg,space,3.5718,0,20,20,59,1,homegarden7.jpg,library_aisle8.jpg,highway4.jpg,grocerystore3.jpg,,
Image_List_4,,,,,,,,,,,,,,,,46711,2022-03-01_14h35.53.787,analogCatScenes,2020.1.3,Win32,60,"[1536,864]","[[[-0.0032407275435549243,-0.20370371418970604],[-0.0032407275435549243,-0.20370371418970604],[-0.0032407275435549243,-0.20370371418970604],[-0.03009257979553055,-0.19351852885274975],[-0.06342591362556925,-0.1740740841185605],[-0.12824072940620007,-0.13564815762004367],[-0.241666657022304,-0.0523148230449469],[-0.3004629541947334,0.01620369649457711],[-0.32453702862753914,0.053240734083509],[-0.3263888805069857,0.06157403928400148],[-0.3263888805069857,0.06296295645060362],[-0.327314806446709,0.06712962317935846],[-0.32870369535629396,0.07083329868123445],[-0.32870369535629396,0.0731481135305427],[-0.32870369535629396,0.07361110475742155],[-0.32870369535629396,0.07361110475742155],[-0.32870369535629396,0.07361110475742155]],[[-0.0009259126942466806,-0.20231482528012107],[-0.012962949910649547,-0.1902777880637182],[-0.08240739538989685,-0.12407408337350245],[-0.12083326537437929,-0.08101852717636912],[-0.1351851739541248,-0.051388897105223603],[-0.1351851739541248,-0.042592600677852276],[-0.1351851739541248,-0.032870378310757654],[-0.11944443297882874,0.035648141228766354],[-0.11944443297882874,0.038888882017797895],[-0.10324072903367104,0.060648141601295384],[-0.08055554351045026,0.07962962336562297],[-0.06157406174612266,0.0902777716724409],[-0.05601844959374847,0.09675925325050398],[-0.05462961719819793,0.09768517919022728],[-0.05462961719819793,0.09907406809981223],[-0.05462961719819793,0.11574073501483158],[-0.05462961719819793,0.11620369798469322],[-0.05462961719819793,0.11620369798469322],[-0.04814813562013485,0.12731480926137279],[-0.0467591901965155,0.1300925870805427],[-0.025925856552741305,0.14675925399556203],[-0.0009259126942466806,0.15324073557362514],[0.02268525528273181,0.15324073557362514],[0.04120377407719776,0.15185181840702297],[0.05509266317304722,0.1490740688448703],[0.06620371793569238,0.14768517993528535],[0.08009260703154185,0.14768517993528535],[0.08611112563974327,0.148148142905147],[0.09305557018766801,0.14999999478459358],[0.09305557018766801,0.14999999478459358],[0.0949074220671146,0.1624999949708581],[0.0949074220671146,0.18009258782560075],[0.0949074220671146,0.1805555507954624],[0.0949074220671146,0.1805555507954624],[0.0949074220671146,0.1805555507954624],[0.0949074220671146,0.1805555507954624]]]",2,"[17,36]",,,,,,,,,,,,,,poolhall5.jpg,space,8.2821,0,21,21,80,1,pavilion2.jpg,racecarcourse2.jpg,porch.jpg,parkinggarage4.jpg,,
Image_List_4,,,,,,,,,,,,,,,,46711,2022-03-01_14h35.53.787,analogCatScenes,2020.1.3,Win32,60,"[1536,864]","[[[0.003703717004369806,-0.195833343702058],[0.003703717004369806,-0.195833343702058],[-0.07777776569128036,-0.16018519502271106],[-0.12824072940620007,-0.13055556495156553],[-0.1532406732646947,-0.11851852773516267],[-0.17638882175777712,-0.1046296386393132],[-0.20046295270461728,-0.08333334202567737],[-0.22592591604700796,-0.0712963048092745],[-0.23935184217299577,-0.06620371214079636],[-0.24027776811271906,-0.06527778620107307],[-0.24027776811271906,-0.06527778620107307],[-0.24027776811271906,-0.06527778620107307]],[[-0.00462961645313987,-0.19166673348733756],[-0.00462961645313987,-0.19166673348733756],[-0.014351782306200087,-0.17083339984356338],[-0.021296226854124817,-0.1453704365011727],[-0.024537024157190765,-0.12870371307211895],[-0.02175924633802087,-0.10601858406293256],[-0.011574061001064602,-0.09305556439277199],[-0.00462961645313987,-0.08888889766401714],[0.00231482809478486,-0.08333334202567737],[0.00231482809478486,-0.08333334202567737],[0.00231482809478486,-0.08333334202567737],[0.00231482809478486,-0.08333334202567737],[0.00231482809478486,-0.08333334202567737],[0.00046297621533826543,-0.07962963826678417]]]",2,"[12,14]",,,,,,,,,,,,,,winebarrel4.jpg,space,5.7035,0,22,22,98,1,weightroom5.jpg,wineVineyard8.jpg,warehouse3.jpg,winebarrel2.jpg,,
Image_List_4,,,,,,,,,,,,,,,,46711,2022-03-01_14h35.53.787,analogCatScenes,2020.1.3,Win32,60,"[1536,864]","[[[-0.000462893210350625,-0.20648149200887592],[-0.000462893210350625,-0.20648149200887592],[-0.000462893210350625,-0.20648149200887592],[-0.022685172277744168,-0.0694444529298279],[-0.04444437534720725,0.10601851264773696],[-0.04027776513248682,0.16481480982016633],[-0.03842591325304023,0.17175925436809106],[-0.03842591325304023,0.17175925436809106]]]",1,[8],,,,,,,,,,,,,,farm4.jpg,space,3.1414,0,23,23,42,1,exerciseequipment3.jpg,firestation3.jpg,drymountains6.jpg,desertvegetation2.jpg,,
Image_List_4,,,,,,,,,,,,,,,,46711,2022-03-01_14h35.53.787,analogCatScenes,2020.1.3,Win32,60,"[1536,864]","[[[-0.0032407275435549243,-0.2120370476472157],[-0.006018505362724817,-0.1759259359980071],[-0.013888875850372844,-0.037037045039512495],[-0.006481468332586465,0.05046295626433911],[0.01296297640160278,0.15972221715168822],[0.01574081073480708,0.1814814767351857],[0.01574081073480708,0.1814814767351857],[0.01574081073480708,0.1814814767351857],[0.01574081073480708,0.1814814767351857],[0.01574081073480708,0.1814814767351857],[0.01574081073480708,0.1814814767351857],[0.01574081073480708,0.1814814767351857]]]",1,[12],,,,,,,,,,,,,,fabricstore1.jpg,space,8.0777,0,24,24,41,1,dugout4.jpg,farm3.jpg,drymountains3.jpg,dentist2.jpg,,
Image_List_4,,,,,,,,,,,,,,,,46711,2022-03-01_14h35.53.787,analogCatScenes,2020.1.3,Win32,60,"[1536,864]","[[[0.004629642944093104,-0.20509260309929098],[-0.03611109840373198,-0.19814815855136625],[-0.22685184198673125,-0.1750000100582838],[-0.2759258602780316,-0.1740740841185605],[-0.2796296205509592,-0.1740740841185605],[-0.2796296205509592,-0.1740740841185605],[-0.2796296205509592,-0.1740740841185605],[-0.2796296205509592,-0.1740740841185605],[-0.2796296205509592,-0.1740740841185605]],[[-0.010648135061341303,-0.1939815483366458],[-0.010648135061341303,-0.1939815483366458],[0.07500001436306371,-0.19212963994316481],[0.20555557186404863,-0.1930555658828881],[0.23240742411602427,-0.1930555658828881],[0.23611112787491745,-0.19120371400344152],[0.2800926100117741,-0.1615741404463304],[0.2981481658363784,-0.15833334314326444],[0.3060185363240264,-0.15833334314326444],[0.3060185363240264,-0.15833334314326444],[0.3060185363240264,-0.15833334314326444],[0.3060185363240264,-0.15833334314326444],[0.3060185363240264,-0.15833334314326444],[0.3060185363240264,-0.15833334314326444]]]",2,"[9,14]",,,,,,,,,,,,,,greenhouse.jpg,space,6.4082,0,25,25,49,1,frontDoor3.jpg,greenhouse5.jpg,flowershop3.jpg,farm2.jpg,,
Image_List_4,,,,,,,,,,,,,,,,46711,2022-03-01_14h35.53.787,analogCatScenes,2020.1.3,Win32,60,"[1536,864]","[[[0.004166736488265862,-0.20138889934039778],[0.004166736488265862,-0.20138889934039778],[-0.05324072828861298,-0.17731482490759204],[-0.11574072921993556,-0.17175926926925225],[-0.15648147056776066,-0.15000006619978917],[-0.21574067419601728,-0.11898149070502431],[-0.2615740647263549,-0.09074074954346374],[-0.2921295642231893,-0.0740740826284444],[-0.3148148062604445,-0.05277778601480855],[-0.3231481397179542,-0.04629630443674547],[-0.3231481397179542,-0.04629630443674547],[-0.3231481397179542,-0.04629630443674547],[-0.3231481397179542,-0.04629630443674547]],[[0.0009259391851999142,-0.20231482528012107],[0.0009259391851999142,-0.20231482528012107],[0.0009259391851999142,-0.20231482528012107],[-0.013425912880511195,-0.19629636318595406],[-0.05416665422833628,-0.16759260254049743],[-0.10416665497339433,-0.1416666762282451],[-0.13657406286370974,-0.12037037961460927],[-0.11481480328021226,-0.09120371251332539],[-0.07731480272141872,-0.0703703788695512],[-0.03333332058456209,-0.07175926777913615],[0.010648161552294536,-0.07175926777913615],[0.0398148286535784,-0.07175926777913615],[0.06666668090555403,-0.05972223056273328],[0.07962964406168019,-0.054629637894255144],[0.09351853315752966,-0.047685193346330416],[0.09351853315752966,-0.047685193346330416]],[[0.0018519216389576184,-0.19722223261164296],[0.00601853185367805,-0.19907408449108954],[0.07638890327264865,-0.21620371437597055],[0.09768519988628449,-0.21851852922527878],[0.13055557074646154,-0.22268519595403363],[0.1861111271298594,-0.22777778862251175],[0.2402777946036723,-0.2254629737732035],[0.2810185359514974,-0.2157407514061089],[0.31111112899250454,-0.19907408449108954],[0.32361112917876905,-0.1768518619377304],[0.3314814996664171,-0.14120371325838346],[0.3314814996664171,-0.13611117710393972],[0.3314814996664171,-0.13611117710393972],[0.3314814996664171,-0.13611117710393972]]]",3,"[13,16,14]",,,,,,,,,,,,,,kindergarten_classroom7.jpg,space,9.9106,0,26,26,61,1,HorseRaceTrack.jpg,metroInside4.jpg,homegarden6.jpg,hayfield6.jpg,,
Image_List_4,,,,,,,,,,,,,,,,46711,2022-03-01_14h35.53.787,analogCatScenes,2020.1.3,Win32,60,"[1536,864]","[[[0.0069444577934013475,-0.1902777880637182],[0.0069444577934013475,-0.1902777880637182],[0.09074075533835976,-0.1796296397569003],[0.16388890457650027,-0.16574075066105085],[0.22361112768865293,-0.1342592687104587],[0.2583333504282766,-0.10324074972972826],[0.2935185361377619,-0.031944452371034354],[0.3199074254198759,0.012962955705545566],[0.32361112917876905,0.019907400253470296],[0.32361112917876905,0.019907400253470296],[0.32361112917876905,0.019907400253470296],[0.32361112917876905,0.019907400253470296],[0.32361112917876905,0.019907400253470296]],[[0.007407420763262996,-0.20509260309929098],[-0.03472220949414703,-0.20185186231025942],[-0.17453702639236493,-0.18703710378872107],[-0.23749999029354918,-0.15416667641450962],[-0.31805554704947603,-0.14027778731866014]]]",2,"[13,5]",,,,,,,,,,,,,,baggageClaim3.jpg,space,5.4539,0,27,27,7,1,attic2.jpg,banquetHall4.jpg,backstage1.jpg,applestore2.jpg,,
Image_List_4,,,,,,,,,,,,,,,,46711,2022-03-01_14h35.53.787,analogCatScenes,2020.1.3,Win32,60,"[1536,864]","[[[-0.0032407275435549243,-0.1995370474609512],[-0.0032407275435549243,-0.1995370474609512],[-0.006018505362724817,-0.19120371400344152],[-0.03240739464483879,-0.16018519502271106],[-0.05601844959374847,-0.14583334295699993],[-0.05740739501736782,-0.11342593506668452],[-0.03749993079928252,-0.06250000838190317],[-0.014814801790096142,-0.015277785456015004],[0.0055555688838164015,0.02638888183153338],[0.00601853185367805,0.03148144624299431],[0.00601853185367805,0.032407400439734814],[0.00601853185367805,0.032407400439734814]],[[0.00046297621533826543,-0.1995370474609512],[0.00046297621533826543,-0.1995370474609512],[0.09351853315752966,-0.21435186249652394],[0.1606481637874687,-0.2175926032855555],[0.2078703867133569,-0.2175926032855555],[0.24861112806118196,-0.2138888995266623],[0.2694444617049562,-0.19120371400344152],[0.27824075813232746,-0.13842599195324798],[0.2694444617049562,-0.07592593450789098],[0.25787038745841495,-0.0342592672203426],[0.25138890588035184,0.002777770368589295],[0.25046297994062855,0.009259251946652378],[0.2500000169707669,0.010648140856237323],[0.2500000169707669,0.010648140856237323],[0.2500000169707669,0.010648140856237323]]]",2,"[12,15]",,,,,,,,,,,,,,weightroom.jpg,space,6.7793,0,28,28,94,1,treehouse.jpg,waitingroom3.jpg,staircase6.jpg,trainStation3.jpg,,
Image_List_4,,,,,,,,,,,,,,,,46711,2022-03-01_14h35.53.787,analogCatScenes,2020.1.3,Win32,60,"[1536,864]","[[[-0.010185172091479655,-0.19814815855136625],[-0.010185172091479655,-0.19814815855136625],[-0.01574072772981944,-0.18935191863802933],[-0.08611104263475564,-0.06481482323121142],[-0.12175924782813699,-0.007407414968366976],[-0.14629622871676998,0.0550925859629556],[-0.16481474751123593,0.11249996596878284],[-0.1912036933073843,0.14027774416048175],[-0.1990740637950323,0.15138888369417852],[-0.1990740637950323,0.15138888369417852]],[[0.0069444577934013475,-0.21018525228180351],[0.0069444577934013475,-0.21018525228180351],[0.0069444577934013475,-0.21018525228180351],[0.029166680346760485,-0.1902777880637182],[0.056944458538459405,-0.1569445107477139],[0.08796297751918987,-0.10879630536806804],[0.11574075571088879,-0.047685193346330416],[0.12777779292729166,0.02268517807264019],[0.12777779292729166,0.03009258559042657],[0.1310185337163232,0.04537033533884377],[0.13703705232452462,0.09074073464230255],[0.13703705232452462,0.0912036976121642],[0.13055557074646154,0.09861107687293337],[0.12592594104784507,0.10416666076829036],[0.12592594104784507,0.1055555214208581],[0.12592594104784507,0.1074074015573219],[0.12592594104784507,0.11064814234635344],[0.12592594104784507,0.11527777204496993],[0.12314816322867517,0.12129629065317137]]]",2,"[10,19]",,,,,,,,,,,,,,driveway7.jpg,space,7.8864,0,29,29,37,1,dining_car.jpg,driveway4.jpg,dinosaur4.jpg,citystreet9.jpg,,
Image_List_4,,,,,,,,,,,,,,,,46711,2022-03-01_14h35.53.787,analogCatScenes,2020.1.3,Win32,60,"[1536,864]","[[[-0.0023148016038316266,-0.19907408449108954],[0.031944514679964786,-0.19259260291302646],[0.05509266317304722,-0.18750001024454832],[0.10231482958490098,-0.18796297321440997],[0.1518518673600974,-0.19259260291302646],[0.1939814976175074,-0.18842593618427161],[0.2185185350201748,-0.18564815836510173],[0.21990742392975976,-0.18564815836510173],[0.22962964629685437,-0.18333334351579347],[0.22962964629685437,-0.18333334351579347],[0.22916668332699272,-0.18333334351579347],[0.22916668332699272,-0.18842593618427161]],[[0.011111181036190592,-0.20694445497873756],[-0.06064807929236496,-0.20787043743249528],[-0.16018511781261943,-0.20648149200887592],[-0.2453703607811972,-0.1902777880637182],[-0.31527776923030615,-0.18333334351579347],[-0.34490739930145164,-0.18333334351579347],[-0.3453703622713133,-0.18333334351579347]]]",2,"[12,7]",,,,,,,,,,,,,,constructionSite4.jpg,space,5.3755,0,30,30,29,1,cornfield2.jpg,deck2.jpg,cliff2.jpg,bridalboutique3.jpg,,
Image_List_4,,,,,,,,,,,,,,,,46711,2022-03-01_14h35.53.787,analogCatScenes,2020.1.3,Win32,60,"[1536,864]","[[[0.009259272642709591,-0.20138889934039778],[0.009259272642709591,-0.20138889934039778],[-0.012036967456891843,-0.20138889934039778],[-0.02638887603663736,-0.20000001043081284],[-0.03564813543387033,-0.19675926964178128],[-0.07361109896252553,-0.18564815836510173],[-0.09722221042546961,-0.16712963957063579],[-0.09907406230491621,-0.16527778769118917],[-0.09907406230491621,-0.16435186175146588],[-0.09907406230491621,-0.16435186175146588],[-0.09907406230491621,-0.16435186175146588]],[[-0.000462893210350625,-0.20462964012942933],[0.004166736488265862,-0.20648149200887592],[0.06435186605624578,-0.21157408467735406],[0.1175926075903354,-0.2120370476472157],[0.16388890457650027,-0.2120370476472157],[0.2032407570147404,-0.2120370476472157],[0.2384259427242257,-0.20509260309929098],[0.2717592765542644,-0.19907408449108954],[0.2944444620774852,-0.18981482509385655],[0.29675927692679344,-0.18981482509385655],[0.29675927692679344,-0.18981482509385655],[0.29675927692679344,-0.18981482509385655],[0.29675927692679344,-0.18981482509385655]],[[0.0013889021550615628,-0.1986111780352623],[0.0013889021550615628,-0.1986111780352623],[-0.12268517376786028,-0.22268519595403363],[-0.18796289600431834,-0.2166666773458322],[-0.2407407310825807,-0.2157407514061089],[-0.2805554899766481,-0.21250006713111175],[-0.3291666583261556,-0.2032408077338788]]]",3,"[11,13,7]",,,,,,,,,,,,,,hut5.jpg,space,6.6501,0,31,31,57,1,hayfield5.jpg,jail1.jpg,hallway4.jpg,gazebo.jpg,,
Image_List_4,,,,,,,,,,,,,,,,46711,2022-03-01_14h35.53.787,analogCatScenes,2020.1.3,Win32,60,"[1536,864]","[[[-0.000462893210350625,-0.19814815855136625],[-0.000462893210350625,-0.195833343702058],[-0.000462893210350625,-0.15092593562547807],[-0.000462893210350625,-0.14953704671589313],[0.013425995885498835,-0.11111112021737629],[0.04212964350288665,-0.1046296386393132],[0.07037038466444721,-0.09629630518180353],[0.10138890364517768,-0.0856481568749856],[0.13981483014369453,-0.0712963048092745],[0.1606481637874687,-0.06712963808051965],[0.1861111271298594,-0.05833334165314833],[0.1986111273161239,-0.05509260086411679],[0.21388890532155833,-0.0504629711655003],[0.23055557223657766,-0.045833341466883816],[0.2375000167845024,-0.045833341466883816],[0.2500000169707669,-0.04074074879840568],[0.2694444617049562,-0.022222230003939733],[0.27824075813232746,-0.01666667436559995],[0.27824075813232746,-0.01666667436559995],[0.27824075813232746,-0.01666667436559995],[0.27824075813232746,-0.01666667436559995]]]",1,[21],,,,,,,,,,,,,,park.jpg,space,4.4981,0,32,32,75,1,pantry5.jpg,playground6.jpg,operatingroom4.jpg,lockerroom.jpg,,
Image_List_4,,,,,,,,,,,,,,,,46711,2022-03-01_14h35.53.787,analogCatScenes,2020.1.3,Win32,60,"[1536,864]","[[[-0.001851838633969978,-0.19629636318595406],[-0.001851838633969978,-0.19629636318595406],[0.036111124894685216,-0.18935191863802933],[0.13564816341493968,-0.16527778769118917],[0.20740742374349525,-0.13750000949949026],[0.24259260945298053,-0.11944445367488596],[0.27962964704191245,-0.09398149033249528],[0.2995370547459633,-0.06805556402024296],[0.2995370547459633,-0.06805556402024296],[0.2995370547459633,-0.06805556402024296],[0.2995370547459633,-0.06805556402024296],[0.2995370547459633,-0.06805556402024296]],[[-0.005092522908967112,-0.19537038073219634],[-0.005092522908967112,-0.19537038073219634],[-0.07962961757072697,-0.20972223279790747],[-0.14027776662260294,-0.21481488198042],[-0.1912036933073843,-0.21481488198042],[-0.2370370273236875,-0.20555562258318702],[-0.28333332430985236,-0.18935191863802933],[-0.2958333244961169,-0.15648149126381786],[-0.2634259166058015,-0.08611111984484726],[-0.18194443391015133,-0.05601852680384009],[-0.12685184049661513,-0.04537037849702217],[-0.10231474657991334,-0.03750000800937414],[-0.10231474657991334,-0.03750000800937414],[-0.10231474657991334,-0.03750000800937414]]]",2,"[12,14]",,,,,,,,,,,,,,dentist4.jpg,space,6.5668,0,33,33,32,1,dancestudio6.jpg,diner12.jpg,constructionSite2.jpg,cabin4.jpg,,
Image_List_4,,,,,,,,,,,,,,,,46711,2022-03-01_14h35.53.787,analogCatScenes,2020.1.3,Win32,60,"[1536,864]","[[[0.00231482809478486,-0.20046297340067448],[0.00231482809478486,-0.20046297340067448],[0.00231482809478486,-0.20046297340067448],[0.02685186549745224,-0.20648149200887592],[0.07083334763430887,-0.21250006713111175],[0.12546297807798343,-0.21342593655680064],[0.1625000156669153,-0.21342593655680064],[0.19537038652709238,-0.21342593655680064],[0.22824075738726943,-0.21620371437597055],[0.25972223933786154,-0.21620371437597055],[0.2717592765542644,-0.2157407514061089],[0.27222223952412605,-0.2157407514061089],[0.2995370547459633,-0.19907408449108954],[0.3148148327513977,-0.19351852885274975],[0.3148148327513977,-0.19351852885274975],[0.3148148327513977,-0.19351852885274975],[0.3148148327513977,-0.1930555658828881],[0.3148148327513977,-0.1930555658828881]]]",1,[18],,,,,,,,,,,,,,closet.jpg,space,3.8625,0,34,34,27,1,castle3.jpg,courtroom3.jpg,churchInside4.jpg,brewery2.jpg,,
Image_List_4,,,,,,,,,,,,,,,,46711,2022-03-01_14h35.53.787,analogCatScenes,2020.1.3,Win32,60,"[1536,864]","[[[-0.0032407275435549243,-0.195833343702058],[-0.0009259126942466806,-0.18750001024454832],[0.011574087492017835,-0.1046296386393132],[0.01296297640160278,-0.02685185970255622],[0.018055625584115324,0.003240733338450944],[0.036111124894685216,0.01527777055485381],[0.049537051020673024,0.018981474313747],[0.052777848323738975,0.018981474313747],[0.06898149575486227,0.018981474313747],[0.06944445872472392,0.018981474313747],[0.07453705139320206,0.01944443728360865],[0.07453705139320206,0.01944443728360865],[0.07453705139320206,0.01944443728360865],[0.07453705139320206,0.01944443728360865],[0.054629643689151165,0.035648141228766354],[0.043055569442609944,0.037962956078074594],[0.041666680533025,0.037962956078074594],[0.041666680533025,0.03981480795752119],[0.04212964350288665,0.04768515018815202],[0.04212964350288665,0.04814814141503087],[0.04212964350288665,0.04907406735475416],[0.04212964350288665,0.04907406735475416],[0.04212964350288665,0.04907406735475416]]]",1,[23],,,,,,,,,,,,,,campusquad4.jpg,space,5.5298,0,35,35,16,1,basement.jpg,cafeteria6.jpg,breakroom2.jpg,barbershop2.jpg,,
Image_List_4,,,,,,,,,,,,,,,,46711,2022-03-01_14h35.53.787,analogCatScenes,2020.1.3,Win32,60,"[1536,864]","[[[-0.0055555423928631675,-0.19444445479247305],[-0.0055555423928631675,-0.19444445479247305],[-0.020370357428435928,-0.1481481578063082],[-0.04722220968041155,-0.10925926833792969],[-0.0810185064803119,-0.07638889747775263],[-0.11574072921993556,-0.049074082255915356],[-0.1435185074116345,-0.029166674551864464],[-0.1893518414279377,0.0023148073987276467],[-0.241666657022304,0.026851816544377825],[-0.26666660088079863,0.04537033533884377],[-0.28009258352082084,0.05925922443469323],[-0.2819444354002674,0.06342591942046527],[-0.28240739837012907,0.06574073426977352],[-0.283796287279714,0.06851848383192621],[-0.283796287279714,0.06851848383192621]],[[0.004166736488265862,-0.1949074177623347],[0.004166736488265862,-0.1949074177623347],[0.04907408805081138,-0.1949074177623347],[0.08379631079043504,-0.1949074177623347],[0.12268520025881352,-0.18796297321440997],[0.14861112657106584,-0.18379630648565512],[0.17916668258193466,-0.18101852866648524],[0.20185186810515546,-0.17916667678703865],[0.2157407572010049,-0.16481482472132752],[0.21296297938183503,-0.11342593506668452],[0.20277779404487875,-0.07777778638733758],[0.18657409009972103,-0.05277778601480855],[0.16666668239567015,-0.03564815612992755],[0.16342594160663862,-0.03472223019020425],[0.14675927469161926,-0.018518526245046546],[0.1462963117217576,-0.014351859516291707],[0.12453705213826012,0.030555548560288217],[0.12453705213826012,0.03194443746987316],[0.12453705213826012,0.03194443746987316]]]",2,"[15,19]",,,,,,,,,,,,,,drymountains5.jpg,space,7.194,0,36,36,39,1,driveway6.jpg,eyeglassstore9.jpg,drycleaners6.jpg,cliff5.jpg,,
Image_List_4,,,,,,,,,,,,,,,,46711,2022-03-01_14h35.53.787,analogCatScenes,2020.1.3,Win32,60,"[1536,864]","[[[-0.005092522908967112,-0.2074074179485992],[-0.005092522908967112,-0.2074074179485992],[-0.046296283740688254,-0.20231482528012107],[-0.14398141386746172,-0.17175926926925225],[-0.19768517488544737,-0.1425926021679684],[-0.23749999029354918,-0.09398149033249528],[-0.2597221563328739,-0.057870378683286684],[-0.2749999908523427,-0.033796304250480955],[-0.27638887976192766,-0.03148148940117271],[-0.27638887976192766,-0.029629637521726114],[-0.27638887976192766,-0.028703711582002817],[-0.27638887976192766,-0.028240748612141167],[-0.27638887976192766,-0.026388896732694574],[-0.27638887976192766,-0.025462970792971277]],[[-0.0009259126942466806,-0.20231482528012107],[-0.0009259126942466806,-0.20231482528012107],[0.041666680533025,-0.20370371418970604],[0.07731482921237195,-0.20092599288457055],[0.1148148297711655,-0.1902777880637182],[0.13148149668618483,-0.18703710378872107],[0.13750001529438627,-0.17638889896786875],[0.15787038596829883,-0.13935186137893685],[0.16111112675733036,-0.11527784346016554],[0.16111112675733036,-0.11388889803654617],[0.15462964517926728,-0.07777778638733758],[0.15416668220940563,-0.07083334183941285],[0.15416668220940563,-0.0694444529298279],[0.15324075626968234,-0.06481482323121142],[0.15000001548065078,-0.06157408244217987]]]",2,"[14,15]",,,,,,,,,,,,,,pavilion3.jpg,space,5.8965,0,37,37,78,1,parkinglot3.jpg,poolhall1.jpg,pier5.jpg,observatory1.jpg,,
Image_List_4,,,,,,,,,,,,,,,,46711,2022-03-01_14h35.53.787,analogCatScenes,2020.1.3,Win32,60,"[1536,864]","[[[0.00046297621533826543,-0.20046297340067448],[0.013888902341326078,-0.20046297340067448],[-0.01574072772981944,-0.19722223261164296],[-0.12268517376786028,-0.18101852866648524],[-0.18518517469918286,-0.15740741720354115],[-0.25138887938939863,-0.12037037961460927],[-0.33055554723574054,-0.04305556364771393]]]",1,[7],,,,,,,,,,,,,,ticket_counter6.jpg,space,3.6823,0,38,38,91,1,shoestore2.jpg,trainStation5.jpg,skatepark5.jpg,sidewalk3.jpg,,
Image_List_4,,,,,,,,,,,,,,,,46711,2022-03-01_14h35.53.787,analogCatScenes,2020.1.3,Win32,60,"[1536,864]","[[[1.3245476616753471e-8,-0.20231482528012107],[1.3245476616753471e-8,-0.20231482528012107],[1.3245476616753471e-8,-0.20231482528012107],[-0.006481468332586465,-0.1976851955815046],[-0.013425912880511195,-0.18842593618427161],[-0.03148146870511549,-0.1712963062993906],[-0.03240739464483879,-0.14675926889672322],[-0.03009257979553055,-0.1342592687104587],[-0.020370357428435928,-0.1226851944639175],[0.01944445797966586,-0.10092593488042001],[0.07962964406168019,-0.08518519390512395],[0.12500001510812175,-0.08796297172429385],[0.16018520081760707,-0.09398149033249528],[0.20046297919557052,-0.0893518606338788],[0.22731483144754613,-0.07175926777913615],[0.22824075738726943,-0.07175926777913615],[0.22824075738726943,-0.07175926777913615],[0.2819444618912207,-0.029166674551864464],[0.29861112880624,-0.016203711395738302],[0.3032407585048565,-0.012037044666983463],[0.30231494559320204,-0.004629637149197084],[0.2879629804994221,0.006481474127482485],[0.27870372110218916,0.035648141228766354],[0.26620372091592465,0.05555554893281725],[0.24768520212145867,0.06203703051088033],[0.21111112750238842,0.06342591942046527],[0.17129631209428664,0.06435184536018858],[0.12638890401770672,0.0712962899081133],[0.08287038485071173,0.0722222158478366],[0.07083334763430887,0.0722222158478366],[0.050463033474430735,0.0722222158478366],[0.03935186568371676,0.0722222158478366],[0.00046297621533826543,0.06851848383192621],[-0.008796283181894708,0.06851848383192621],[-0.009259246151756358,0.06759258614922012],[-0.009259246151756358,0.06759258614922012],[-0.009259246151756358,0.06759258614922012],[-0.009259246151756358,0.06759258614922012],[-0.023148135247605818,0.06805554911908177],[-0.025925856552741305,0.06851848383192621],[-0.027314801976360655,0.07037036396839001],[-0.027314801976360655,0.0712962899081133],[-0.027314801976360655,0.0722222158478366],[-0.027314801976360655,0.0722222158478366],[-0.027314801976360655,0.0722222158478366],[-0.027314801976360655,0.0722222158478366],[-0.027314801976360655,0.0722222158478366],[-0.027777764946222305,0.07175925287797495],[-0.09953702527477785,0.03749999310821295],[-0.14305554444177282,0.02916663139368607],[-0.18333326630570188,0.03287036340959646],[-0.2083333231922653,0.04351851171641438],[-0.22037030389463375,0.04398147468627603],[-0.2370370273236875,0.05046295626433911],[-0.24212961999216565,0.052314779886768505],[-0.24768517563050543,0.05833332675198714],[-0.2499999904798137,0.060648141601295384],[-0.250925916419537,0.060648141601295384],[-0.2606481387866316,0.06111110457115703],[-0.26990739818386456,0.06111110457115703],[-0.2717592500633112,0.06111110457115703],[-0.2759258602780316,0.06111110457115703],[-0.28472221321943736,0.06111110457115703],[-0.28472221321943736,0.06111110457115703]]]",1,[64],,,,,,,,,,,,,,botanicalGarden5.jpg,space,9.78,0,39,39,14,1,ballroom1.jpg,breakroom5.jpg,bistrooutdoor5.jpg,ballroom3.jpg,,
Image_List_4,,,,,,,,,,,,,,,,46711,2022-03-01_14h35.53.787,analogCatScenes,2020.1.3,Win32,60,"[1536,864]","[[[-0.0027777080596588684,-0.20277778824998272],[-0.0027777080596588684,-0.20277778824998272],[-0.0027777080596588684,-0.20277778824998272],[0.06898149575486227,-0.20972223279790747],[0.13981483014369453,-0.21250006713111175],[0.17824075664221137,-0.21342593655680064],[0.20509260889418698,-0.20092599288457055],[0.2194444609598981,-0.17268519520897557],[0.2194444609598981,-0.16851858499425512],[0.1995370532558472,-0.08287037905581572],[0.16759260833539344,-0.0532407489846702],[0.1175926075903354,-0.025925933762832924],[0.10370371849448592,-0.02361111891352468],[0.10277779255476263,-0.02361111891352468],[0.10277779255476263,-0.02361111891352468]]]",1,[15],,,,,,,,,,,,,,liquorstore.jpg,space,3.8132,0,40,40,66,1,library_aisle10.jpg,office3.jpg,laundromat3.jpg,horsebarn9.jpg,,
Image_List_4,,,,,,,,,,,,,,,,46711,2022-03-01_14h35.53.787,analogCatScenes,2020.1.3,Win32,60,"[1536,864]","[[[-0.005092522908967112,-0.2032408077338788],[-0.0069444313024481135,-0.19814815855136625],[-0.025925856552741305,-0.13518519465018203],[-0.03148146870511549,-0.07685186044761429],[-0.043055542951656714,-0.0351851931600659],[-0.029166653855807252,0.023611104012363486],[-0.012499986940787898,0.06249999348074198],[-0.01527776475995779,0.08564814197382441],[-0.016203690699681087,0.09722221622036563],[-0.016203690699681087,0.09861107687293337],[-0.016203690699681087,0.09907406809981223],[-0.016203690699681087,0.10185184591898212],[-0.016203690699681087,0.10324070657154986],[-0.016203690699681087,0.104629623738152],[-0.016203690699681087,0.104629623738152]],[[0.003240754034508158,-0.19166673348733756],[0.003240754034508158,-0.19166673348733756],[0.0069444577934013475,-0.1703703803596673],[0.0069444577934013475,-0.11805556476530102],[0.007870383733124644,-0.08472223093526231],[0.00879636618688235,-0.07453704559830604],[0.017129643130357617,-0.047685193346330416],[0.02638890252759059,-0.001388896360165543],[0.02824075440703719,0.01620369649457711],[0.02824075440703719,0.018055548374023702],[0.02824075440703719,0.01944443728360865],[0.02824075440703719,0.02638888183153338],[0.02824075440703719,0.06018517863143374],[0.02824075440703719,0.06018517863143374],[0.02824075440703719,0.06018517863143374],[0.02777779143717554,0.06620366898261797],[0.027314884981348295,0.07175925287797495],[0.027314884981348295,0.0722222158478366]],[[0.0018519216389576184,-0.19166673348733756],[0.0018519216389576184,-0.19166673348733756],[0.0018519216389576184,-0.19166673348733756],[0.021296309859112458,-0.18425926945551677],[0.053703717749427865,-0.17314821469287162],[0.08750001454932822,-0.16666667660077414],[0.10972223710268736,-0.1560185282939562],[0.12129631134922858,-0.14675926889672322],[0.12129631134922858,-0.14398149107755334],[0.13425927450535474,-0.12037037961460927],[0.1435185339025877,-0.09722223112152682],[0.1435185339025877,-0.09537037924208024],[0.13703705232452462,-0.07453704559830604],[0.1347222374752164,-0.07314815668872109],[0.13425927450535474,-0.07175926777913615],[0.12268520025881352,-0.03981482285868238],[0.12129631134922858,-0.03796297097923579],[0.12129631134922858,-0.03657408206965084],[0.12083334837936693,-0.03564815612992755],[0.12083334837936693,-0.0351851931600659],[0.12083334837936693,-0.0351851931600659]],[[-0.000462893210350625,-0.19907408449108954],[-0.000462893210350625,-0.19907408449108954],[0.046296310231641484,-0.1930555658828881],[0.0777777921822336,-0.18888889915413326],[0.10370371849448592,-0.1824074740901046],[0.1384259412341096,-0.1712963062993906],[0.14583334875189596,-0.16990741738980566],[0.16851853427511673,-0.1333333427707354],[0.16851853427511673,-0.1300926019817039],[0.18287038634082786,-0.08101852717636912],[0.18287038634082786,-0.07916667529692252],[0.1939814976175074,-0.025462970792971277],[0.1939814976175074,-0.022222230003939733],[0.187962979009306,0.003240733338450944],[0.18657409009972103,0.00462962224803589],[0.18657409009972103,0.00462962224803589],[0.18657409009972103,0.00462962224803589],[0.18657409009972103,0.00462962224803589],[0.18657409009972103,0.005092585217897539],[0.17592594179290313,0.02592591886167173],[0.17592594179290313,0.02638888183153338],[0.17592594179290313,0.02638888183153338],[0.17592594179290313,0.02638888183153338]]]",4,"[15,18,21,23]",,,,,,,,,,,,,,highway.jpg,space,14.9968,0,41,41,52,1,gasstation7.jpg,hardwarestore1.jpg,frontFoyer6.jpg,forestpath2.jpg,,
Image_List_4,,,,,,,,,,,,,,,,46711,2022-03-01_14h35.53.787,analogCatScenes,2020.1.3,Win32,60,"[1536,864]","[[[0.0055555688838164015,-0.20416667715956768],[-0.07407406193238718,-0.16342593581174258],[-0.19537036003613914,-0.10231482379000496],[-0.26111110175649327,-0.06064815650245658],[-0.3083333246823814,-0.025925933762832924],[-0.3259259175371241,-0.013888896546430059],[-0.3333333250549104,-0.009259266847813571],[-0.3333333250549104,-0.009259266847813571]],[[0.00046297621533826543,-0.18750001024454832],[0.00972223561257124,-0.15185186156520136],[0.01666668016049597,-0.12500000931322575],[0.029166680346760485,-0.09398149033249528],[0.049537051020673024,-0.06898148995996625],[0.05648149556859776,-0.06018519353259493],[0.06944445872472392,-0.03796297097923579],[0.07361112545347875,-0.026388896732694574],[0.07361112545347875,-0.026388896732694574],[0.07361112545347875,-0.026388896732694574],[0.07361112545347875,-0.026388896732694574],[0.07361112545347875,-0.02361111891352468],[0.07361112545347875,-0.023148155943663033],[0.07361112545347875,-0.023148155943663033]],[[-0.001851838633969978,-0.19537038073219634],[-0.001851838633969978,-0.19537038073219634],[-0.01851850554898933,-0.16851858499425512],[-0.08055554351045026,-0.11851852773516267],[-0.12592591455689184,-0.08518519390512395],[-0.14583332226094273,-0.04490741552716052],[-0.1523148038390058,-0.02083334109435479],[-0.1523148038390058,-0.00972222981767522],[-0.14490739632121943,-0.004629637149197084],[-0.13472215447022876,-0.004629637149197084],[-0.1305555442555083,-0.004629637149197084],[-0.12731480346647678,-0.004629637149197084],[-0.12638887752675348,-0.004629637149197084],[-0.12592591455689184,-0.004629637149197084],[-0.12407406267744524,-0.004629637149197084],[-0.12314808022368753,-0.004629637149197084],[-0.12314808022368753,-0.004629637149197084]],[[-0.00462961645313987,-0.195833343702058],[-0.00462961645313987,-0.195833343702058],[0.06342594011652249,-0.18703710378872107],[0.10879631116296407,-0.17453704708842216],[0.1606481637874687,-0.15925932559702216],[0.2078703867133569,-0.14120371325838346],[0.23796297975436406,-0.12407408337350245],[0.2689814987350945,-0.11064821376154904],[0.2944444620774852,-0.10787037942834475],[0.29583335098707014,-0.10787037942834475],[0.29583335098707014,-0.10787037942834475],[0.29583335098707014,-0.10787037942834475],[0.29583335098707014,-0.10787037942834475],[0.29583335098707014,-0.10787037942834475]]]",4,"[8,14,17,14]",,,,,,,,,,,,,,warehouseoutside2.jpg,space,11.0243,0,42,42,93,1,tollbooth8.jpg,volleyballcourt4.jpg,staircase4.jpg,tenniscourt.jpg,,
Image_List_4,,,,,,,,,,,,,,,,46711,2022-03-01_14h35.53.787,analogCatScenes,2020.1.3,Win32,60,"[1536,864]",[],0,[],,,,,,,,,,,,,,appleorchard2.jpg,space,4.613,0,43,43,3,1,apartmentBuilding2.jpg,attic1.jpg,aquarium1.jpg,alley3.jpg,,
Image_List_4,,,,,,,,,,,,,,,,46711,2022-03-01_14h35.53.787,analogCatScenes,2020.1.3,Win32,60,"[1536,864]","[[[0.0013889021550615628,-0.20185186231025942],[0.0013889021550615628,-0.20185186231025942],[0.018055625584115324,-0.12407408337350245],[0.014814828281049375,-0.05601852680384009],[-0.0009259126942466806,0.01203702976582227],[-0.04351850592151836,0.07824073445603803],[-0.0657407284748775,0.0893518174757004],[-0.0657407284748775,0.0893518174757004],[-0.09583332151588467,0.1254629573819262],[-0.14398141386746172,0.1976851806803434],[-0.17175919205916065,0.21898147729397924],[-0.19212961924710759,0.23425925529941363],[-0.20509258240323375,0.24259258875692333],[-0.2055555453730954,0.24398147766650827],[-0.2055555453730954,0.24398147766650827],[-0.2046296194333721,0.25555555191304946],[-0.19675924894572408,0.2828703671348868],[-0.18425924875945957,0.2921296265321197],[-0.15046295195955922,0.3055555526581075],[-0.12731480346647678,0.3087962934471391],[-0.1027777660638094,0.3143518349569703],[-0.08749998805837499,0.3185185158142337],[-0.07222215353890617,0.32453703442243514],[-0.0467591901965155,0.33194444194022155],[-0.02499998712705241,0.33194444194022155],[-0.020833320398297574,0.33194444194022155],[-0.00462961645313987,0.33611110866897637],[0.01574081073480708,0.3384259235182846],[0.04212964350288665,0.3416666643073161],[0.07453705139320206,0.34814814588537923]]]",1,[30],,,,,,,,,,,,,,sandDunes_desert_outdoor3.jpg,space,5.4534,0,44,44,85,1,recordingstudio4.jpg,sidewalk5.jpg,ruralroad2.jpg,rooftop3.jpg,,
Image_List_4,,,,,,,,,,,,,,,,46711,2022-03-01_14h35.53.787,analogCatScenes,2020.1.3,Win32,60,"[1536,864]","[[[-0.0009259126942466806,-0.18935191863802933],[-0.0009259126942466806,-0.18935191863802933],[-0.009259246151756358,-0.09814815706125012],[-0.01666659715550833,-0.049074082255915356],[-0.018055542579127684,-0.04212963770799063],[-0.019907394458574278,-0.03796297097923579],[-0.023148135247605818,-0.030092600491587764],[-0.04120369107221012,0.009259251946652378],[-0.07638887678169543,0.024537029952086783],[-0.11342591437062731,0.02638888183153338],[-0.14305554444177282,0.02592591886167173],[-0.15648147056776066,0.026851816544377825],[-0.1569444335376223,0.028240733710979973],[-0.1569444335376223,0.028240733710979973]],[[0.00601853185367805,-0.1986111780352623],[0.003240754034508158,-0.1398148243487985],[0.008333346702986293,-0.08333334202567737],[0.008333346702986293,-0.08194445311609241],[0.017592606100219267,-0.061111119472318225],[0.017592606100219267,-0.05833334165314833],[0.02314816173855905,-0.006944451998505328],[0.03240742113579203,0.026851816544377825],[0.0398148286535784,0.038888882017797895],[0.07129631060417052,0.04305552048953553],[0.08750001454932822,0.038888882017797895],[0.08842594048905152,0.038888882017797895],[0.08842594048905152,0.03842589079091904],[0.08842594048905152,0.03749999310821295],[0.08842594048905152,0.0370370301383513]]]",2,"[14,15]",,,,,,,,,,,,,,churchInside3.jpg,space,6.1611,0,45,45,26,1,campusquad2.jpg,cornfield4.jpg,church4.jpg,botanicalGarden7.jpg,,
Image_List_4,,,,,,,,,,,,,,,,46711,2022-03-01_14h35.53.787,analogCatScenes,2020.1.3,Win32,60,"[1536,864]","[[[-0.000462893210350625,-0.20555562258318702],[-0.000462893210350625,-0.20555562258318702],[0.032870384105653676,-0.16898149145008237],[0.08935186642877481,-0.12453710285739851],[0.16018520081760707,-0.0740740826284444],[0.2166666831407282,-0.03055556346144941],[0.24259260945298053,-0.010185192787536868],[0.264351869036478,0.002777770368589295],[0.2898148323788687,0.013888881645268865],[0.29675927692679344,0.017592585404162055],[0.29861112880624,0.017592585404162055],[0.29861112880624,0.017592585404162055],[0.30416668444457984,0.017592585404162055],[0.30416668444457984,0.017592585404162055],[0.30416668444457984,0.017592585404162055],[0.3097222400829196,0.017592585404162055],[0.3097222400829196,0.017592585404162055]],[[-0.005092522908967112,-0.1976851955815046],[-0.005092522908967112,-0.1976851955815046],[-0.14583332226094273,-0.1750000100582838],[-0.22129628634839146,-0.14953704671589313],[-0.2893518429180538,-0.13518519465018203],[-0.3013888801344567,-0.13240741683101212],[-0.3013888801344567,-0.13240741683101212],[-0.3013888801344567,-0.13240741683101212],[-0.3013888801344567,-0.13240741683101212],[-0.3013888801344567,-0.13240741683101212],[-0.3013888801344567,-0.13240741683101212],[-0.3013888801344567,-0.13240741683101212],[-0.3013888801344567,-0.13240741683101212],[-0.3013888801344567,-0.13240741683101212],[-0.3013888801344567,-0.13240741683101212]]]",2,"[17,15]",,,,,,,,,,,,,,airportTerminal3.jpg,space,7.4013,0,46,46,1,1,airportTerminal4.jpg,apartmentBuilding1.jpg,applestore1.jpg,airportTerminal2.jpg,,
Image_List_4,,,,,,,,,,,,,,,,46711,2022-03-01_14h35.53.787,analogCatScenes,2020.1.3,Win32,60,"[1536,864]","[[[0.007407420763262996,-0.20046297340067448],[0.017129643130357617,-0.1995370474609512],[0.017129643130357617,-0.1995370474609512],[0.03101853222620708,-0.1615741404463304],[0.02777779143717554,-0.12083334258447091],[0.013425995885498835,-0.09305556439277199],[0.00046297621533826543,-0.07083334183941285],[-0.000462893210350625,-0.0694444529298279],[-0.000462893210350625,-0.06712963808051965]],[[1.3245476616753471e-8,-0.20046297340067448],[1.3245476616753471e-8,-0.20046297340067448],[0.06851853278500063,-0.18425926945551677],[0.13935186717383288,-0.16712963957063579],[0.19351853464764576,-0.13611117710393972],[0.22824075738726943,-0.10092593488042001],[0.25787038745841495,-0.08055556420650747],[0.2800926100117741,-0.06898148995996625],[0.2800926100117741,-0.06898148995996625],[0.2800926100117741,-0.06898148995996625],[0.2800926100117741,-0.06898148995996625],[0.2800926100117741,-0.06898148995996625],[0.2800926100117741,-0.06898148995996625]]]",2,"[9,13]",,,,,,,,,,,,,,nursery4.jpg,space,6.6039,0,47,47,73,1,musicStore3.jpg,photographer_studio2.jpg,nursery.jpg,library_aisle9.jpg,,
Image_List_4,,,,,,,,,,,,,,,,46711,2022-03-01_14h35.53.787,analogCatScenes,2020.1.3,Win32,60,"[1536,864]","[[[0.003703717004369806,-0.20046297340067448],[0.003703717004369806,-0.20046297340067448],[0.10046297770545438,-0.19444445479247305],[0.1652777934860852,-0.19444445479247305],[0.21620372017086656,-0.18888889915413326],[0.29305557316790026,-0.1597222320528494],[0.33935198318213394,-0.13703704652962861]]]",1,[7],,,,,,,,,,,,,,lockerroom2.jpg,space,3.3597,0,48,48,68,1,liquorstore7.jpg,parkinglot.jpg,lightingstore4.jpg,hospitalroom3.jpg,,
Image_List_4,,,,,,,,,,,,,,,,46711,2022-03-01_14h35.53.787,analogCatScenes,2020.1.3,Win32,60,"[1536,864]","[[[-0.0027777080596588684,-0.1930555658828881],[-0.0027777080596588684,-0.1930555658828881],[0.07175927357403217,-0.18472228893941284],[0.12361112619853681,-0.17175926926925225],[0.17037038615456335,-0.14675926889672322],[0.21435186829141997,-0.11990747315878202],[0.24351853539270382,-0.09444450981639134],[0.27222223952412605,-0.0703703788695512],[0.2995370547459633,-0.05740741571342504],[0.3282407588773855,-0.04629630443674547],[0.3305555737266938,-0.04629630443674547],[0.3305555737266938,-0.04629630443674547],[0.3305555737266938,-0.04629630443674547],[0.3305555737266938,-0.04629630443674547],[0.3305555737266938,-0.04629630443674547]]]",1,[15],,,,,,,,,,,,,,clothingstore5.jpg,space,7.997,0,49,49,28,1,churchInside1.jpg,dancestudio5.jpg,citystreet10.jpg,bridalboutique2.jpg,,
Image_List_4,,,,,,,,,,,,,,,,46711,2022-03-01_14h35.53.787,analogCatScenes,2020.1.3,Win32,60,"[1536,864]","[[[-0.0009259126942466806,-0.19907408449108954],[0.004166736488265862,-0.19629636318595406],[0.058796310417906,-0.1597222320528494],[0.11620371868075044,-0.11898149070502431],[0.14768520063134255,-0.05925926759287163],[0.17037038615456335,0.02592591886167173],[0.16898149724497838,0.06666666020949681],[0.15694446002857554,0.08888888276285595],[0.14675927469161926,0.09675925325050398],[0.13796297826424794,0.09907406809981223],[0.13518520044507804,0.09953703106967388],[0.1337963115354931,0.09953703106967388]]]",1,[12],,,,,,,,,,,,,,diner10.jpg,space,4.0878,0,50,50,33,1,deck1.jpg,diningroom1.jpg,courthouse2.jpg,cabinIndoors5.jpg,,
Image_List_4,,,,,,,,,,,,,,,,46711,2022-03-01_14h35.53.787,analogCatScenes,2020.1.3,Win32,60,"[1536,864]","[[[1.3245476616753471e-8,-0.20462964012942933],[0.004629642944093104,-0.20648149200887592],[-0.07546295084197212,-0.1949074177623347],[-0.15185184086914416,-0.16342593581174258],[-0.1865740636087678,-0.1388888984090752],[-0.2018517851001678,-0.11435186100640783],[-0.20277776755392551,-0.10324074972972826],[-0.19212961924710759,-0.05092593413536196],[-0.18611110063890615,-0.02685185970255622],[-0.18611110063890615,-0.025000007823109627],[-0.18611110063890615,-0.02083334109435479],[-0.18981480439779935,-0.011574081697121815],[-0.1902777108536266,-0.007870377938228625]]]",1,[13],,,,,,,,,,,,,,cave5.jpg,space,3.4808,0,51,51,21,1,botanicalGarden6.jpg,cemetery6.jpg,campusquad3.jpg,beach1.jpeg,,
Image_List_4,,,,,,,,,,,,,,,,46711,2022-03-01_14h35.53.787,analogCatScenes,2020.1.3,Win32,60,"[1536,864]","[[[-0.0023148016038316266,-0.20046297340067448],[-0.0023148016038316266,-0.20046297340067448],[0.03703705083440851,-0.20416667715956768],[0.09166668127808306,-0.1949074177623347],[0.13935186717383288,-0.1939815483366458],[0.17870371961207301,-0.18657408430482503],[0.21481483126128162,-0.16296297284188094],[0.239351868663949,-0.14027778731866014],[0.24861112806118196,-0.11990747315878202],[0.22638890550782284,-0.018055563275184896],[0.20555557186404863,0.032407400439734814],[0.20092594216543216,0.036111075941610796],[0.18842594197916765,0.0370370301383513]]]",1,[13],,,,,,,,,,,,,,rainforest5.jpg,space,3.4946,0,52,52,81,1,promenadeDeck.jpg,ruralroad5.jpg,promenadeDeck2.jpg,pasture8.jpg,,
Image_List_4,,,,,,,,,,,,,,,,46711,2022-03-01_14h35.53.787,analogCatScenes,2020.1.3,Win32,60,"[1536,864]","[[[-0.00462961645313987,-0.19907408449108954],[-0.00462961645313987,-0.19907408449108954],[0.0768518662425103,-0.16759260254049743],[0.15046297845051246,-0.13472223168032038],[0.21527779423114327,-0.11064821376154904],[0.2634259430967547,-0.0884259346941555],[0.2944444620774852,-0.07175926777913615],[0.32638890699793893,-0.02685185970255622]]]",1,[8],,,,,,,,,,,,,,diner11.jpg,space,2.9214,0,53,53,34,1,deck4.jpg,diningroom5.jpg,courthouse4.jpg,campusquad1.jpg,,
Image_List_4,,,,,,,,,,,,,,,,46711,2022-03-01_14h35.53.787,analogCatScenes,2020.1.3,Win32,60,"[1536,864]","[[[-0.009259246151756358,-0.19537038073219634],[-0.0296296168256689,-0.19444445479247305],[-0.10416665497339433,-0.1814814916363469],[-0.18333326630570188,-0.14583334295699993],[-0.21435184180046674,-0.1226851944639175],[-0.21666665664977497,-0.12222228800809026],[-0.21666665664977497,-0.12083334258447091],[-0.21666665664977497,-0.12083334258447091]],[[-0.0032407275435549243,-0.20370371418970604],[-0.0032407275435549243,-0.20370371418970604],[-0.0032407275435549243,-0.20370371418970604],[-0.0032407275435549243,-0.20370371418970604],[-0.0032407275435549243,-0.20370371418970604],[-0.0032407275435549243,-0.20370371418970604],[-0.0032407275435549243,-0.20370371418970604],[-0.0032407275435549243,-0.20370371418970604],[-0.0032407275435549243,-0.20370371418970604],[-0.0032407275435549243,-0.20370371418970604],[-0.0032407275435549243,-0.20370371418970604],[-0.0032407275435549243,-0.20370371418970604],[0.0425926064727483,-0.19722223261164296],[0.10277779255476263,-0.19166673348733756],[0.15416668220940563,-0.19074075103357988],[0.264351869036478,-0.12962963901184224],[0.3282407588773855,-0.09212963845304868],[0.3402777960937884,-0.08472223093526231],[0.3402777960937884,-0.08472223093526231]]]",2,"[8,19]",,,,,,,,,,,,,,windmill1.jpg,space,6.1884,0,54,54,96,1,warehouse4.jpg,warehouseoutside1.jpg,tenniscourt3.jpg,warehouse1.jpg,,
Image_List_4,,,,,,,,,,,,,,,,46711,2022-03-01_14h35.53.787,analogCatScenes,2020.1.3,Win32,60,"[1536,864]","[[[0.00601853185367805,-0.20185186231025942],[0.00231482809478486,-0.20000001043081284],[-0.17314813748278,-0.17175926926925225],[-0.23518517544424092,-0.15648149126381786],[-0.26898141573010687,-0.1254629722830874],[-0.27222221303317284,-0.11851852773516267],[-0.27222221303317284,-0.11851852773516267],[-0.27222221303317284,-0.11851852773516267],[-0.27222221303317284,-0.11851852773516267],[-0.27222221303317284,-0.11851852773516267],[-0.27222221303317284,-0.11851852773516267],[-0.27222221303317284,-0.11851852773516267],[-0.27222221303317284,-0.11851852773516267],[-0.27222221303317284,-0.11851852773516267],[-0.27222221303317284,-0.11851852773516267],[-0.27222221303317284,-0.11851852773516267],[-0.27222221303317284,-0.11851852773516267],[-0.27222221303317284,-0.11851852773516267]],[[-0.012499986940787898,-0.1976851955815046],[-0.012499986940787898,-0.1976851955815046],[-0.012499986940787898,-0.1976851955815046],[-0.00833332021203306,-0.1939815483366458],[0.028703717376898835,-0.16018519502271106],[0.046296310231641484,-0.12870371307211895],[0.06435186605624578,-0.07546297153802933],[0.075925940302787,-0.021296304064216436],[0.08148149594112679,0.010185177886375674],[0.08148149594112679,0.010648140856237323],[0.08148149594112679,0.010648140856237323],[0.08148149594112679,0.01944443728360865],[0.08148149594112679,0.02222221510277854],[0.08148149594112679,0.02222221510277854]]]",2,"[18,14]",,,,,,,,,,,,,,tvstudio2.jpg,space,8.0068,0,55,55,92,1,staircase.jpg,volleyballcourt.jpg,skatepark7.jpg,soccerfield2.jpg,,
Image_List_4,,,,,,,,,,,,,,,,46711,2022-03-01_14h35.53.787,analogCatScenes,2020.1.3,Win32,60,"[1536,864]","[[[0.00046297621533826543,-0.19675926964178128],[0.00046297621533826543,-0.19675926964178128],[0.00046297621533826543,-0.19675926964178128],[0.00046297621533826543,-0.19675926964178128],[0.00046297621533826543,-0.19675926964178128],[-0.035185115949974276,-0.19907408449108954],[-0.12777770992230403,-0.1986111780352623],[-0.18379628578959792,-0.18379630648565512],[-0.2624999906660782,-0.08425926796540066],[-0.29537036152625523,-0.025462970792971277],[-0.3097222135919664,0.014351844615130513],[-0.3175925840796144,0.026851816544377825],[-0.3175925840796144,0.026851816544377825],[-0.3175925840796144,0.026851816544377825],[-0.3175925840796144,0.026851816544377825]],[[-0.001851838633969978,-0.19259260291302646],[-0.001851838633969978,-0.19259260291302646],[-0.001851838633969978,-0.19259260291302646],[-0.001851838633969978,-0.19259260291302646],[0.03657414437858127,-0.19537038073219634],[0.11898149649992033,-0.2074074179485992],[0.20555557186404863,-0.19814815855136625],[0.27500001734329593,-0.17546302954217985],[0.31111112899250454,-0.16527778769118917],[0.3268518699678006,-0.16018519502271106],[0.20092594216543216,-0.0902777865736021]]]",2,"[15,11]",,,,,,,,,,,,,,museum4.jpg,space,6.4753,0,56,56,72,1,museum5.jpg,pharmacy4.jpg,musicStore1.jpg,kindergarten_classroom.jpg,,
