image_list,key_resp_intructions.keys,key_resp_intructions.rt,key_resp_intructions_3.keys,key_resp_intructions_3.rt,PracticeComplete_2.keys,PracticeComplete_2.rt,PracticeComplete_3.keys,PracticeComplete_3.rt,demo_trials.thisRepN,demo_trials.thisTrialN,demo_trials.thisN,demo_trials.thisIndex,demo_trials.ran,demo_images,path_images,participant,date,expName,psychopyVersion,OS,frameRate,windowSize,drawing,numDrawings,drawingSizes,practice_complete.keys,practice_complete.rt,PracticeComplete.keys,PracticeComplete.rt,practice_trials.thisRepN,practice_trials.thisTrialN,practice_trials.thisN,practice_trials.thisIndex,practice_trials.ran,practice_images,feedback_images,key_resp_intructions_2.keys,key_resp_intructions_2.rt,Image_List_4,trial_complete.keys,trial_complete.rt,trials.thisRepN,trials.thisTrialN,trials.thisN,trials.thisIndex,trials.ran,Image_List_1,Image_List_2,Image_List_3,Image_List_5,key_resp.keys,key_resp.rt
Image_List_4,space,22.5623,space,4.0166,space,11.0042,space,1.7713,0,0,0,5,1,right.jpg,right_path.jpg,46466,2022-03-14_15h07.11.909,analogCatScenes,2020.1.3,MacIntel,60,,,,,,,,,,,,,,,,,,,,,,,,,,,,,,,
Image_List_4,,,,,space,1.1777,space,3.7908,0,1,1,3,1,ahead_right_left.jpg,ahead_right_left_path.jpg,46466,2022-03-14_15h07.11.909,analogCatScenes,2020.1.3,MacIntel,60,,,,,,,,,,,,,,,,,,,,,,,,,,,,,,,
Image_List_4,,,,,space,0.8939,space,0.6365,0,2,2,0,1,ahead.jpg,ahead_path.jpg,46466,2022-03-14_15h07.11.909,analogCatScenes,2020.1.3,MacIntel,60,,,,,,,,,,,,,,,,,,,,,,,,,,,,,,,
Image_List_4,,,,,space,0.7016,space,0.9344,0,3,3,4,1,left.jpg,left_path.jpg,46466,2022-03-14_15h07.11.909,analogCatScenes,2020.1.3,MacIntel,60,,,,,,,,,,,,,,,,,,,,,,,,,,,,,,,
Image_List_4,,,,,space,0.677,space,0.7843,0,4,4,2,1,ahead_right.jpg,ahead_right_path.jpg,46466,2022-03-14_15h07.11.909,analogCatScenes,2020.1.3,MacIntel,60,,,,,,,,,,,,,,,,,,,,,,,,,,,,,,,
Image_List_4,,,,,space,0.5816,space,0.6041,0,5,5,6,1,right_left.jpg,right_left_path.jpg,46466,2022-03-14_15h07.11.909,analogCatScenes,2020.1.3,MacIntel,60,,,,,,,,,,,,,,,,,,,,,,,,,,,,,,,
Image_List_4,,,,,space,0.9626,space,0.5381,0,6,6,1,1,ahead_left.jpg,ahead_left_path.jpg,46466,2022-03-14_15h07.11.909,analogCatScenes,2020.1.3,MacIntel,60,,,,,,,,,,,,,,,,,,,,,,,,,,,,,,,
Image_List_4,,,,,,,,,,,,,,,,46466,2022-03-14_15h07.11.909,analogCatScenes,2020.1.3,MacIntel,60,"[1440,900]",[],0,[],space,0.6527,space,1.21,0,0,0,3,1,ahead_right_left_2.jpg,ahead_right_left_2_path.jpg,,,,,,,,,,,,,,,,
Image_List_4,,,,,,,,,,,,,,,,46466,2022-03-14_15h07.11.909,analogCatScenes,2020.1.3,MacIntel,60,"[1440,900]",[],0,[],space,0.5858,space,0.4599,0,1,1,4,1,left_2.jpg,left_2_path.jpg,,,,,,,,,,,,,,,,
Image_List_4,,,,,,,,,,,,,,,,46466,2022-03-14_15h07.11.909,analogCatScenes,2020.1.3,MacIntel,60,"[1440,900]",[],0,[],space,0.4987,space,0.5768,0,2,2,0,1,ahead_2.jpg,ahead_2_path.jpg,,,,,,,,,,,,,,,,
Image_List_4,,,,,,,,,,,,,,,,46466,2022-03-14_15h07.11.909,analogCatScenes,2020.1.3,MacIntel,60,"[1440,900]","[[[-0.0009005398220486112,-0.19933363172743054],[-0.0009005398220486112,-0.19933363172743054],[-0.0009005398220486112,-0.19933363172743054],[-0.0009005398220486112,-0.19933363172743054],[-0.0009005398220486112,-0.19933363172743054],[-0.0009005398220486112,-0.19933363172743054],[-0.0009005398220486112,-0.19933363172743054],[-0.0009005398220486112,-0.19933363172743054],[-0.0009005398220486112,-0.1990768093532986],[0.0007092963324652777,-0.1959189181857639],[0.0037042236328125,-0.19166259765625],[0.00853176540798611,-0.18630384657118054],[0.014939643012152778,-0.1782940673828125],[0.0211199951171875,-0.1715865749782986],[0.02799994574652778,-0.16471700032552083],[0.035692884657118056,-0.1564590793185764],[0.04471259223090278,-0.14856675889756946],[0.05375264485677083,-0.14065673828125],[0.06213840060763889,-0.13394816080729166],[0.0679885525173611,-0.12857008192274305],[0.07648111979166666,-0.121492919921875],[0.08283426920572917,-0.11708984375],[0.08918741861979167,-0.11221476236979167],[0.09554056803385416,-0.10831461588541667],[0.10120490180121527,-0.1035943603515625],[0.10686930338541667,-0.09934611002604167],[0.1131338840060764,-0.09500203450520833],[0.11947163899739584,-0.09064276801215278],[0.12616414388020833,-0.08660563151041667],[0.13032782660590278,-0.08452379014756944],[0.13500678168402777,-0.08197923448350694],[0.13970418294270834,-0.07986653645833333],[0.14440165201822916,-0.07772291395399306],[0.14850341796875,-0.07608222113715278],[0.15260450575086806,-0.07444179958767361],[0.1561703152126736,-0.07324306911892361],[0.15919603135850693,-0.07173021104600695],[0.16428120930989584,-0.0693927001953125],[0.16743910047743055,-0.067403564453125],[0.17047342936197918,-0.06588643391927083],[0.17151869032118056,-0.0651895480685764],[0.17512641059027778,-0.06338568793402778],[0.1767938910590278,-0.0627239990234375],[0.17887037489149304,-0.06168816460503472],[0.18094075520833333,-0.06064961751302083],[0.183502197265625,-0.059542982313368055],[0.18606465657552082,-0.058435940212673614],[0.1886270480685764,-0.05770826551649306],[0.191661376953125,-0.05657036675347222],[0.19469570583767362,-0.05543253580729167],[0.19773003472222223,-0.05429463704427084],[0.20075391981336804,-0.05353871663411458],[0.2033163113064236,-0.052462565104166664],[0.20540690104166667,-0.0517657470703125],[0.20948649088541665,-0.05065873887803819],[0.2130545383029514,-0.04986928304036458],[0.21662258572048612,-0.04829033745659722],[0.22019063313802084,-0.047090725368923614],[0.2222415500217014,-0.04627037896050347],[0.22527587890625,-0.04513251410590278],[0.22982733832465277,-0.04285678439670139],[0.2328616672092014,-0.041339586046006946],[0.23642971462673612,-0.03976067437065972],[0.24112718370225694,-0.0372068617078993],[0.24469523111979166,-0.03562791612413194],[0.2497333441840278,-0.032857394748263886],[0.2565584988064236,-0.0294293212890625],[0.2607222493489583,-0.027788560655381944],[0.2654196506076389,-0.02523474799262153],[0.2727617730034722,-0.022209574381510416],[0.27892930772569446,-0.019315422905815973],[0.28375067816840277,-0.017612779405381945],[0.2892917887369792,-0.015345221625434028],[0.2945848931206597,-0.013139784071180556],[0.29928236219618054,-0.011847398546006945],[0.3033841281467014,-0.010206705729166666],[0.3074858940972222,-0.00856601291232639],[0.31155856662326387,-0.006936984592013889],[0.31563266330295137,-0.0053073459201388885],[0.31917643229166665,-0.003738132052951389],[0.3222107611762153,-0.0026002332899305557],[0.32429246690538194,-0.0019063313802083334],[0.32556233723958333,-0.001589016384548611],[0.32648430718315974,-0.001589016384548611],[0.32705790201822915,-0.001589016384548611],[0.3276314290364583,-0.001589016384548611],[0.3279031032986111,-0.001589016384548611],[0.3279031032986111,-0.001589016384548611],[0.3279031032986111,-0.001589016384548611],[0.3279031032986111,-0.001589016384548611],[0.3279031032986111,-0.001589016384548611],[0.3279031032986111,-0.001589016384548611],[0.3279031032986111,-0.001589016384548611],[0.3279031032986111,-0.001589016384548611],[0.3279031032986111,-0.001589016384548611],[0.3279031032986111,-0.001589016384548611],[0.3279031032986111,-0.001589016384548611],[0.3279031032986111,-0.001589016384548611]]]",1,[98],space,17.8374,space,1.7019,0,3,3,5,1,right_2.jpg,right_2_path.jpg,,,,,,,,,,,,,,,,
Image_List_4,,,,,,,,,,,,,,,,46466,2022-03-14_15h07.11.909,analogCatScenes,2020.1.3,MacIntel,60,"[1440,900]","[[[0.007678290473090278,-0.19368326822916668],[0.007678290473090278,-0.19368326822916668],[0.007678290473090278,-0.19368326822916668],[0.007678290473090278,-0.19368326822916668],[0.007678290473090278,-0.19368326822916668],[0.007678290473090278,-0.19212266710069445],[0.007678290473090278,-0.18742526584201388],[0.007678290473090278,-0.1800970458984375],[0.007678290473090278,-0.17048529730902778],[0.006622111002604167,-0.1609792751736111],[0.006026068793402777,-0.14961690266927083],[0.0037970648871527776,-0.13916097005208333],[0.00260498046875,-0.12598558213975694],[-0.0006864420572916666,-0.10740268283420139],[-0.002505832248263889,-0.09482204861111111],[-0.005454983181423611,-0.07509006076388888],[-0.006585015190972222,-0.06944003634982639],[-0.008659600151909723,-0.059863755967881946],[-0.00966552734375,-0.05181586371527778],[-0.010667724609375,-0.04379814995659722],[-0.012145928276909723,-0.03207322862413194],[-0.012587009006076389,-0.02737582736545139],[-0.013499552408854167,-0.021428358289930557],[-0.014380560980902778,-0.016142103407118056],[-0.015316094292534723,-0.009539862738715278],[-0.01575717502170139,-0.004246758355034722],[-0.01575717502170139,0.00057464599609375],[-0.01575717502170139,0.006478271484375],[-0.01575717502170139,0.011175672743055556],[-0.016925930447048612,0.016260782877604168],[-0.01733608669704861,0.018311699761284723],[-0.018884141710069444,0.02339687771267361],[-0.019294297960069446,0.025447794596354167],[-0.020114610460069446,0.029549560546875],[-0.02093499077690972,0.033651326497395835],[-0.021693522135416667,0.036685655381944446],[-0.0228314208984375,0.03971998426649306],[-0.023969251844618056,0.044271443684895835],[-0.024344957139756946,0.04782118055555556],[-0.025099555121527777,0.05083957248263889],[-0.025852796766493054,0.0538525390625],[-0.026580471462673613,0.05641499837239583],[-0.02724650065104167,0.058095431857638886],[-0.027939927842881945,0.06017584906684028],[-0.028288370768229168,0.062266370985243055],[-0.028636813693576388,0.06587409125434028],[-0.028636813693576388,0.0669193861219618],[-0.02898525661892361,0.0689985826280382],[-0.02898525661892361,0.06992055257161459],[-0.02927157931857639,0.07049363878038195],[-0.02927157931857639,0.07049363878038195],[-0.02927157931857639,0.07049363878038195],[-0.02927157931857639,0.07049363878038195]],[[0.0027316623263888887,-0.19401496039496527],[0.0027316623263888887,-0.19401496039496527],[0.0027316623263888887,-0.19401496039496527],[0.0027316623263888887,-0.19401496039496527],[0.0027316623263888887,-0.19401496039496527],[0.0027316623263888887,-0.19401496039496527],[0.0027316623263888887,-0.19401496039496527],[0.0027316623263888887,-0.19401496039496527],[0.005895453559027777,-0.19313279893663193],[0.01578640407986111,-0.1876068115234375],[0.027707316080729166,-0.1810503472222222],[0.05150750054253472,-0.1695260959201389],[0.06768059624565972,-0.16050123426649304],[0.09545362684461806,-0.14556538899739582],[0.11039822048611111,-0.1381280517578125],[0.1272580295138889,-0.12938462999131944],[0.13742994520399304,-0.12555291069878471],[0.15481648763020833,-0.118616943359375],[0.1621447075737847,-0.11619493272569445],[0.16941853841145835,-0.11329020182291667],[0.1774664306640625,-0.11077528211805555],[0.18792236328125,-0.10801228841145834],[0.199222412109375,-0.10575229220920139],[0.20883416069878472,-0.10468438042534722],[0.217618408203125,-0.10418138292100694],[0.2249465603298611,-0.10418138292100694],[0.23377644856770832,-0.10364739312065972],[0.24338819715711807,-0.10311347113715277],[0.25024495442708333,-0.10311347113715277],[0.25757310655381943,-0.10311347113715277],[0.26352389865451387,-0.10311347113715277],[0.268218994140625,-0.10311347113715277],[0.2749673122829861,-0.10311347113715277],[0.27853535970052085,-0.10311347113715277],[0.2820924207899306,-0.10311347113715277],[0.28512674967447915,-0.10311347113715277],[0.2872173394097222,-0.10311347113715277],[0.2881393093532986,-0.10311347113715277],[0.2887128363715278,-0.10311347113715277],[0.28928636338975694,-0.10311347113715277],[0.28928636338975694,-0.10311347113715277],[0.28928636338975694,-0.10337741427951389],[0.28928636338975694,-0.10364922417534722],[0.28928636338975694,-0.10364922417534722]]]",2,"[53,44]",space,4.2224,space,1.0452,0,4,4,2,1,ahead_right_2.jpg,ahead_right_2_path.jpg,,,,,,,,,,,,,,,,
Image_List_4,,,,,,,,,,,,,,,,46466,2022-03-14_15h07.11.909,analogCatScenes,2020.1.3,MacIntel,60,"[1440,900]","[[[0.007275661892361111,-0.1954873996310764],[0.007275661892361111,-0.1954873996310764],[0.007275661892361111,-0.1954873996310764],[0.007275661892361111,-0.1954873996310764],[0.007275661892361111,-0.1954873996310764],[0.007275661892361111,-0.1954873996310764],[0.007275661892361111,-0.19192572699652777],[0.008219740125868055,-0.18533033582899305],[0.011082899305555555,-0.17535556369357638],[0.01296420627170139,-0.1678302001953125],[0.015942179361979166,-0.15526007758246527],[0.023175116644965278,-0.13475348578559027],[0.02758049858940972,-0.11969089084201388],[0.03337999131944445,-0.1042669677734375],[0.038144395616319444,-0.09110365125868056],[0.043539971245659725,-0.07855536566840278],[0.050593668619791664,-0.06375861273871528],[0.05715020073784722,-0.05183770073784722],[0.06389309353298611,-0.038978949652777775],[0.07058790418836805,-0.026208428276909723],[0.07698072645399305,-0.015177069769965277],[0.08194166395399305,-0.005286153157552083],[0.08774692111545139,0.005759345160590278],[0.09650126139322916,0.02270297580295139],[0.10226474338107638,0.03366495768229167],[0.10759006076388888,0.042185465494791664],[0.11292989095052083,0.05072926839192708],[0.11890523274739584,0.05940836588541667],[0.12492431640625,0.06870402018229167],[0.13040032280815972,0.0780305650499132],[0.13316657172309027,0.08397328694661459],[0.13763020833333334,0.09390652126736111],[0.14118218315972222,0.10201663547092014],[0.1449187554253472,0.1116253662109375],[0.14919060601128473,0.12123711480034723],[0.154151611328125,0.1311279975043403],[0.15688835991753472,0.13719828287760416],[0.16107476128472223,0.14598124186197917],[0.16239800347222222,0.14862779405381946],[0.1657680935329861,0.15925008138020832],[0.16623494466145833,0.16251834445529514],[0.16752190483940974,0.1678352525499132],[0.16878336588541668,0.17199896918402777],[0.16951104058159722,0.17456142849392361],[0.16979783799913195,0.17611857096354167],[0.16979783799913195,0.176390380859375],[0.16979783799913195,0.176390380859375],[0.16979783799913195,0.176390380859375],[0.16979783799913195,0.17612908257378473],[0.16979783799913195,0.17612908257378473],[0.16979783799913195,0.17612908257378473],[0.16979783799913195,0.17612908257378473]],[[-0.011535237630208334,-0.19583740234375],[-0.011535237630208334,-0.19583740234375],[-0.011535237630208334,-0.19583740234375],[-0.011535237630208334,-0.19583740234375],[-0.011535237630208334,-0.19583740234375],[-0.011535237630208334,-0.19583740234375],[-0.011535237630208334,-0.19583740234375],[-0.011535237630208334,-0.19583740234375],[-0.011535237630208334,-0.19201483832465277],[-0.012059190538194445,-0.18399495442708333],[-0.01544921875,-0.17263258192274306],[-0.01989325629340278,-0.15735975477430555],[-0.0254742431640625,-0.1429067654079861],[-0.03318617078993055,-0.12810994466145834],[-0.038712158203125,-0.11821906195746527],[-0.04392361111111111,-0.11046603732638889],[-0.04924506293402778,-0.10195170084635417],[-0.056465996636284724,-0.08641072591145833],[-0.062264200846354166,-0.07537936740451388],[-0.06707004123263889,-0.06630160861545138],[-0.07030741373697917,-0.06064385308159722],[-0.07566643608940972,-0.05266011555989583],[-0.07944268120659723,-0.04699571397569444],[-0.08265034993489584,-0.041522691514756946],[-0.08607835557725695,-0.03419447157118056],[-0.08909634060329862,-0.02614657931857639],[-0.09295830620659722,-0.01569064670138889],[-0.09597642686631945,-0.00823822021484375],[-0.09905680338541667,-0.0005373128255208333],[-0.10188910590277778,0.005034552680121528],[-0.10393995496961805,0.00913631863064236],[-0.10498528374565973,0.011226874457465277],[-0.10602674696180556,0.013310072157118056],[-0.1067837863498264,0.016398247612847222],[-0.1076348876953125,0.021094801161024305],[-0.10895704481336806,0.029088914659288194],[-0.110721435546875,0.03438201904296875],[-0.11248575846354167,0.039675123426649306],[-0.11453253851996528,0.043766615125868054],[-0.11667616102430556,0.04846405029296875],[-0.118564453125,0.05400519476996528],[-0.11988776312934028,0.05882656521267361],[-0.12209323459201389,0.06411966959635416],[-0.1237957763671875,0.06881710476345486],[-0.12584330240885416,0.07250033908420139],[-0.12783243815104167,0.07565819634331597],[-0.12934956868489583,0.07869252522786459],[-0.13155504014756944,0.08398562961154514],[-0.1337527126736111,0.08925537109375],[-0.1354104275173611,0.0929193115234375],[-0.1375540500217014,0.09761671278211806],[-0.14001213921440972,0.1013043212890625],[-0.14328870985243056,0.10662445068359375],[-0.1458907741970486,0.11151007758246528],[-0.14749898274739584,0.11507541232638889],[-0.14967244466145832,0.11989434136284723],[-0.15137498643663194,0.12459181043836806],[-0.15301567925347223,0.1286935763888889],[-0.15415317111545138,0.13172726101345486],[-0.15522935655381945,0.13428968641493055],[-0.15595703125,0.1368521457248264],[-0.15665384928385417,0.13894263373480903],[-0.1570022922092014,0.14103318956163194],[-0.15766832139756945,0.14271365695529514],[-0.1583028835720486,0.1440451388888889],[-0.15858968098958334,0.14496710883246527],[-0.15858968098958334,0.14525387234157985],[-0.15858968098958334,0.14525387234157985],[-0.15858968098958334,0.14525387234157985],[-0.15858968098958334,0.14525387234157985],[-0.15858968098958334,0.14525387234157985]]]",2,"[52,71]",space,6.5175,space,1.0328,0,5,5,6,1,right_left_2.jpg,right_left_2_path.jpg,,,,,,,,,,,,,,,,
Image_List_4,,,,,,,,,,,,,,,,46466,2022-03-14_15h07.11.909,analogCatScenes,2020.1.3,MacIntel,60,"[1440,900]","[[[0.010129055447048611,-0.1917264133029514],[0.010129055447048611,-0.1917264133029514],[0.010129055447048611,-0.1917264133029514],[0.010129055447048611,-0.1917264133029514],[0.010129055447048611,-0.1917264133029514],[0.010129055447048611,-0.1917264133029514],[0.010129055447048611,-0.19120863172743055],[0.010129055447048611,-0.1870449490017361],[0.011042209201388889,-0.18109415690104166],[0.012506171332465277,-0.17384446885850693],[0.014164971245659722,-0.1634146457248264],[0.015259195963541666,-0.15300577799479168],[0.01729607476128472,-0.13479844835069443],[0.01999111599392361,-0.11659111870659722],[0.021369764539930555,-0.09629855685763888],[0.023138631184895835,-0.08342522515190973],[0.024304673936631944,-0.06948655870225695],[0.025999688042534722,-0.05818644205729167],[0.0276947021484375,-0.04688639322916666],[0.02938388400607639,-0.03561513264973958],[0.031643880208333336,-0.024315049913194445],[0.033944091796875,-0.012229071723090278],[0.03614203559027778,-0.0017731391059027778],[0.03780598958333333,0.008682759602864583],[0.03922214084201389,0.014757622612847222],[0.041231486002604165,0.026153089735243055],[0.042206488715277775,0.033481275770399305],[0.04427008734809028,0.042269761827256946],[0.04590304904513889,0.05272566053602431],[0.04687038845486111,0.06013176812065972],[0.04787631564670139,0.0681796603732639],[0.04886583116319444,0.07614149305555555],[0.04886583116319444,0.08246453179253473],[0.049368828667534725,0.0897927517361111],[0.05043680826822917,0.09940450032552084],[0.0515667724609375,0.11070454915364583],[0.05254177517361111,0.11803276909722223],[0.053044772677951386,0.12794630262586806],[0.053044772677951386,0.1299814181857639],[0.053044772677951386,0.1335494656032986],[0.053044772677951386,0.1356399875217014],[0.053044772677951386,0.13818603515625],[0.053044772677951386,0.14027655707465278],[0.053044772677951386,0.14182915581597222],[0.053044772677951386,0.14182915581597222],[0.053044772677951386,0.14182915581597222],[0.053044772677951386,0.14182915581597222]],[[-0.0013371446397569444,-0.1961425103081597],[-0.0013371446397569444,-0.1961425103081597],[-0.0013371446397569444,-0.1961425103081597],[-0.0013371446397569444,-0.1961425103081597],[-0.0013371446397569444,-0.1961425103081597],[-0.0013371446397569444,-0.1961425103081597],[-0.0013371446397569444,-0.1961425103081597],[-0.0013371446397569444,-0.1961425103081597],[-0.003905300564236111,-0.19573235405815972],[-0.012511325412326389,-0.19033033582899306],[-0.05470004611545139,-0.16796766493055557],[-0.08250847710503473,-0.1563500298394097],[-0.103861083984375,-0.1495560031467014],[-0.14701524522569445,-0.13825303819444446],[-0.1724755859375,-0.13364942762586807],[-0.19183939615885418,-0.131612548828125],[-0.19929185655381945,-0.1306374782986111],[-0.2073812527126736,-0.12963446723090277],[-0.21333204481336807,-0.12828023274739583],[-0.21690009223090279,-0.12749077690972221],[-0.2199344211154514,-0.1267322455512153],[-0.22202412923177084,-0.12603569878472223],[-0.22294609917534722,-0.12571804470486111],[-0.22351962619357638,-0.12543131510416666],[-0.22380635579427083,-0.12543131510416666],[-0.22380635579427083,-0.12543131510416666],[-0.22380635579427083,-0.12543131510416666],[-0.22380635579427083,-0.12543131510416666],[-0.22380635579427083,-0.12543131510416666],[-0.22380635579427083,-0.12543131510416666],[-0.22380635579427083,-0.12543131510416666]]]",2,"[47,31]",space,3.6096,space,0.8092,0,6,6,1,1,ahead_left_2.jpg,ahead_left_2_path.jpg,,,,,,,,,,,,,,,,
Image_List_4,,,,,,,,,,,,,,,,46466,2022-03-14_15h07.11.909,analogCatScenes,2020.1.3,MacIntel,60,"[1440,900]","[[[-0.003006591796875,-0.19208428276909723],[-0.003006591796875,-0.19208428276909723],[-0.003006591796875,-0.19208428276909723],[-0.003006591796875,-0.19208428276909723],[-0.003006591796875,-0.19208428276909723],[-0.003006591796875,-0.19208428276909723],[-0.003006591796875,-0.19208428276909723],[-0.003006591796875,-0.19208428276909723],[-0.00045118543836805556,-0.19208428276909723],[0.002644992404513889,-0.19208428276909723],[0.00821682400173611,-0.18884175618489582],[0.015692681206597222,-0.18189988878038194],[0.024447089301215277,-0.17320760091145834],[0.032357109917534724,-0.16416748046875],[0.03948506673177083,-0.15590955946180557],[0.046265055338541666,-0.1468695068359375],[0.05342129177517361,-0.13861470540364584],[0.060766330295138886,-0.1290096706814236],[0.0722836642795139,-0.11460517035590277],[0.0801751708984375,-0.10558634440104167],[0.08733412000868056,-0.09732842339409722],[0.09473110622829861,-0.08993136935763889],[0.10323744032118055,-0.08142510308159723],[0.1111474609375,-0.07238505045572917],[0.11920789930555556,-0.06257710774739583],[0.1283971489800347,-0.05156867133246528],[0.1357421875,-0.04252861870659722],[0.14287007649739583,-0.03427066379123264],[0.14909200032552083,-0.027514784071180555],[0.15447007921006944,-0.021664632161458332],[0.15965569390190973,-0.015503879123263889],[0.16378017849392362,-0.010938313802083334],[0.1689725070529514,-0.005745985243055555],[0.17240851508246527,-0.0023409016927083332],[0.17640936957465278,0.0016599527994791666],[0.18277031792534723,0.008020968967013889],[0.18731174045138888,0.01212124294704861],[0.19245415581597222,0.0167999267578125],[0.19749226888020832,0.02007347954644097],[0.20249776204427083,0.02370025634765625],[0.20559393988715277,0.025627644856770833],[0.20727437337239582,0.02629367404513889],[0.20819620768229166,0.026897854275173612],[0.20876953125,0.026897854275173612],[0.20876953125,0.027184617784288195],[0.20876953125,0.027184617784288195],[0.20876953125,0.027184617784288195],[0.20876953125,0.027184617784288195],[0.20876953125,0.027184617784288195],[0.20876953125,0.027184617784288195],[0.20876953125,0.027184617784288195],[0.20876953125,0.027184617784288195],[0.20876953125,0.027184617784288195]]]",1,[53],,,,,,,,,,,,space,4.3636,restaurant8.jpg,space,2.2348,0,0,0,83,1,readingroom1.jpg,sculpturegarden1.jpg,promenadeDeck6.jpg,readingroom2.jpg,,
Image_List_4,,,,,,,,,,,,,,,,46466,2022-03-14_15h07.11.909,analogCatScenes,2020.1.3,MacIntel,60,"[1440,900]","[[[-0.0008498128255208334,-0.20757419162326388],[-0.0008498128255208334,-0.20757419162326388],[-0.0008498128255208334,-0.20757419162326388],[-0.0008498128255208334,-0.20757419162326388],[-0.0008498128255208334,-0.20757419162326388],[-0.0008498128255208334,-0.20757419162326388],[-0.0008498128255208334,-0.20757419162326388],[-0.0008498128255208334,-0.20757419162326388],[-0.0008498128255208334,-0.2029571533203125],[0.00021816677517361112,-0.19484707302517362],[0.00416748046875,-0.17767103407118057],[0.004887898763020833,-0.16205810546875],[0.004887898763020833,-0.14279452853732638],[0.004887898763020833,-0.11633375379774305],[0.004887898763020833,-0.10043158637152778],[0.004887898763020833,-0.08434950086805555],[0.004887898763020833,-0.06490247938368056],[0.004887898763020833,-0.04772650824652778],[0.0053599717881944444,-0.036896904839409723],[0.006049262152777778,-0.025195414225260417],[0.006049262152777778,-0.017161390516493055],[0.006049262152777778,-0.0118682861328125],[0.006049262152777778,-0.007170850965711806],[0.006049262152777778,-0.002473415798611111],[0.006049262152777778,0.001078762478298611],[0.006049262152777778,0.004113091362847222],[0.006049262152777778,0.00538299560546875],[0.006049262152777778,0.006304965549045139],[0.006049262152777778,0.006591729058159722],[0.006049262152777778,0.006591729058159722],[0.006049262152777778,0.006854044596354167],[0.006049262152777778,0.006854044596354167],[0.006049262152777778,0.006854044596354167],[0.006049262152777778,0.006854044596354167],[0.006049262152777778,0.006854044596354167],[0.006049262152777778,0.006854044596354167],[0.006049262152777778,0.006854044596354167],[0.006049262152777778,0.006854044596354167],[0.006049262152777778,0.006854044596354167],[0.006049262152777778,0.006854044596354167]]]",1,[40],,,,,,,,,,,,,,winebarrel3.jpg,space,3.0623,0,1,1,97,1,warehouseoutside4.jpg,wineVineyard2.jpg,waitingroom4.jpg,warehouseoutside3.jpg,,
Image_List_4,,,,,,,,,,,,,,,,46466,2022-03-14_15h07.11.909,analogCatScenes,2020.1.3,MacIntel,60,"[1440,900]","[[[0.007774658203125,-0.20005018446180556],[0.007774658203125,-0.20005018446180556],[0.007774658203125,-0.20005018446180556],[0.007774658203125,-0.20005018446180556],[0.007774658203125,-0.20005018446180556],[0.007774658203125,-0.20005018446180556],[0.007774658203125,-0.20005018446180556],[0.007774658203125,-0.20005018446180556],[0.007774658203125,-0.20005018446180556],[0.007774658203125,-0.20005018446180556],[0.007774658203125,-0.20005018446180556],[0.007774658203125,-0.20005018446180556],[0.008409898546006945,-0.1991586642795139],[0.010592990451388888,-0.1973239474826389],[0.01399807400173611,-0.193887939453125],[0.016684095594618056,-0.1915503607855903],[0.01955532497829861,-0.1882689751519097],[0.0229913330078125,-0.1848638916015625],[0.02513495551215278,-0.18016642252604168],[0.027495049370659722,-0.1735580105251736],[0.029289822048611112,-0.16873914930555556],[0.03193637424045139,-0.16079949273003472],[0.033164265950520834,-0.1567043728298611],[0.03445543077256944,-0.1520128716362847],[0.03577684190538195,-0.14595296223958334],[0.037038302951388886,-0.1417892116970486],[0.03792046440972222,-0.13649610731336806],[0.0387408447265625,-0.13239434136284722],[0.03952046712239583,-0.12887532552083333],[0.04030951605902778,-0.12530938042534723],[0.04030951605902778,-0.12174140082465278],[0.04030951605902778,-0.11704393174913194],[0.04030951605902778,-0.1129421657986111],[0.04030951605902778,-0.10937411838107639],[0.04030951605902778,-0.10580607096354167],[0.04030951605902778,-0.10277174207899306],[0.03989935980902778,-0.09866997612847223],[0.03866902669270833,-0.0924566650390625],[0.037852783203125,-0.0883755154079861],[0.037032470703125,-0.08427374945746528],[0.03627387152777778,-0.08123942057291667],[0.03548441569010417,-0.07767137315538195],[0.03466410319010416,-0.07356960720486111],[0.03387464735243056,-0.07000155978732639],[0.033085191514756945,-0.06643351236979167],[0.03194729275173611,-0.06339918348524305],[0.03125047471788194,-0.06130862765842014],[0.030236070421006945,-0.05962822808159722],[0.029541422526041666,-0.05754431830512153],[0.028844536675347223,-0.05545376247829861],[0.028119913736979165,-0.052900390625],[0.02745415581597222,-0.05122043185763889],[0.02713656955295139,-0.0502984619140625],[0.02713656955295139,-0.05002688937717014],[0.02713656955295139,-0.05002688937717014],[0.02713656955295139,-0.05002688937717014],[0.02713656955295139,-0.05002688937717014]],[[0.011070624457465279,-0.20315144856770834],[0.011070624457465279,-0.20315144856770834],[0.011070624457465279,-0.20315144856770834],[0.011070624457465279,-0.20315144856770834],[0.011070624457465279,-0.20315144856770834],[0.011070624457465279,-0.20315144856770834],[0.011070624457465279,-0.20315144856770834],[0.011070624457465279,-0.20315144856770834],[0.011070624457465279,-0.20315144856770834],[0.011070624457465279,-0.20315144856770834],[0.011070624457465279,-0.20315144856770834],[0.011070624457465279,-0.20315144856770834],[0.011070624457465279,-0.20315144856770834],[0.01236904568142361,-0.20315144856770834],[0.017724134657118057,-0.20315144856770834],[0.027398139105902778,-0.202021484375],[0.04441053602430556,-0.19976142035590277],[0.05752360026041667,-0.1973772515190972],[0.06888597276475694,-0.1951171875],[0.08199903700086805,-0.19213704427083333],[0.09417765299479167,-0.1886614990234375],[0.10460761176215277,-0.1859063042534722],[0.1142193603515625,-0.18377034505208334],[0.12226732042100695,-0.18125542534722222],[0.13031521267361112,-0.17924343532986112],[0.13836317274305557,-0.17622551812065973],[0.14641106499565973,-0.17320760091145834],[0.15445902506510417,-0.17018961588541667],[0.16175801595052083,-0.16727708604600694],[0.16974202473958333,-0.16477810329861112],[0.1770702446831597,-0.16185302734375],[0.1846151394314236,-0.15833204481336804],[0.19556037055121528,-0.1523651123046875],[0.2023855929904514,-0.14893703884548612],[0.2087387424045139,-0.1450369601779514],[0.21533976236979166,-0.14267998589409722],[0.22016120062934028,-0.14097730848524306],[0.22545430501302083,-0.13877183702256946],[0.23070570203993054,-0.1365872531467014],[0.2368731689453125,-0.13325202094184027],[0.24143941243489583,-0.13004014756944443],[0.24522386338975694,-0.12757907443576388],[0.25076497395833336,-0.12480848524305556],[0.25743550618489586,-0.12147325303819445],[0.2627286105685764,-0.11882670084635416],[0.2686758083767361,-0.11608913845486112],[0.27295172797309025,-0.11354383680555556],[0.2776491292317708,-0.110989990234375],[0.28133036295572916,-0.10894327799479167],[0.2832954237196181,-0.10732591417100694],[0.28421739366319443,-0.10703911675347222],[0.28450419108072916,-0.10703911675347222],[0.28450419108072916,-0.10703911675347222],[0.28450419108072916,-0.10703911675347222],[0.28450419108072916,-0.10703911675347222]],[[-0.0031878662109375,-0.19861009385850695],[-0.0031878662109375,-0.19861009385850695],[-0.0031878662109375,-0.19861009385850695],[-0.0031878662109375,-0.19861009385850695],[-0.0031878662109375,-0.19861009385850695],[-0.0031878662109375,-0.19861009385850695],[-0.0037051052517361113,-0.19861009385850695],[-0.016557210286458332,-0.19861009385850695],[-0.021363050672743057,-0.19861009385850695],[-0.047363959418402775,-0.19861009385850695],[-0.09226359049479167,-0.19861009385850695],[-0.12228285047743055,-0.19861009385850695],[-0.16047749837239583,-0.1951036919487847],[-0.18273607042100695,-0.18672627766927083],[-0.20409912109375,-0.17716749403211807],[-0.2188958740234375,-0.1700826687282986],[-0.22892801920572917,-0.16726704915364585],[-0.23157457139756946,-0.16682596842447917],[-0.23627200656467015,-0.1663848876953125],[-0.23930107964409722,-0.1663848876953125],[-0.24186353895399307,-0.1663848876953125],[-0.24441636827256943,-0.1663848876953125],[-0.24745069715711807,-0.1663848876953125],[-0.2504772271050347,-0.1663848876953125],[-0.2545556640625,-0.1663848876953125],[-0.2566402180989583,-0.1663848876953125],[-0.2575616455078125,-0.1663848876953125],[-0.25784840901692707,-0.1663848876953125]]]",3,"[57,55,28]",,,,,,,,,,,,,,igloo4.jpg,space,7.0283,0,2,2,58,1,highway7.jpg,lab1.jpg,hedgemaze1.jpg,grocerystore2.jpg,,
Image_List_4,,,,,,,,,,,,,,,,46466,2022-03-14_15h07.11.909,analogCatScenes,2020.1.3,MacIntel,60,"[1440,900]","[[[-0.0016973876953125,-0.1989651150173611],[-0.0016973876953125,-0.1989651150173611],[-0.0016973876953125,-0.1989651150173611],[-0.0016973876953125,-0.1989651150173611],[-0.0016973876953125,-0.1989651150173611],[-0.0016973876953125,-0.1989651150173611],[-0.0016973876953125,-0.1989651150173611],[-0.0016973876953125,-0.1989651150173611],[-0.0016973876953125,-0.1989651150173611],[-0.0016973876953125,-0.1989651150173611],[-0.0016973876953125,-0.1989651150173611],[-0.0031877305772569442,-0.1958749050564236],[-0.007993842230902777,-0.18748562282986111],[-0.01565544976128472,-0.17247111002604168],[-0.021740587022569445,-0.15976671006944446],[-0.03011074490017361,-0.14562811957465277],[-0.045827229817708336,-0.12246602376302083],[-0.05729688856336806,-0.10764309353298611],[-0.06883402506510417,-0.09204081217447917],[-0.08180257161458333,-0.0733084445529514],[-0.09167683919270833,-0.05942226833767361],[-0.10445936414930555,-0.04529568142361111],[-0.11793477376302083,-0.03247850206163194],[-0.13488633897569444,-0.016303609212239584],[-0.145428466796875,-0.00629547119140625],[-0.15699639214409722,0.005930650499131944],[-0.16792548285590278,0.016294759114583335],[-0.17166341145833333,0.019498664008246527],[-0.17685574001736112,0.024218953450520834],[-0.18013414171006945,0.02708794487847222],[-0.1830054389105903,0.029959208170572918],[-0.1842757839626736,0.03122958713107639],[-0.18551534016927082,0.032786729600694446],[-0.1860889350043403,0.03307352701822917],[-0.1863756646050347,0.03336032443576389],[-0.18666239420572917,0.03364708794487847],[-0.1869491916232639,0.03422064887152778],[-0.1872359890407986,0.034794209798177086],[-0.18780951605902776,0.035367770724826386],[-0.18838311089409723,0.03594133165147569],[-0.1889566379123264,0.036514892578125],[-0.1892434353298611,0.037088453504774306],[-0.18984632703993057,0.038007405598958335],[-0.1904814995659722,0.03927781846788195],[-0.19140346950954862,0.04019978841145833],[-0.19200778537326388,0.041121758355034725],[-0.19261216905381945,0.04175693088107639],[-0.1931857638888889,0.0423304918077257],[-0.19375929090711805,0.042617255316840276],[-0.1943328857421875,0.043190850151909724],[-0.19519321017795138,0.0434776136610243],[-0.19576673719618057,0.04376437717013889],[-0.19633931477864583,0.044050157335069444],[-0.19662604437934028,0.044050157335069444],[-0.19662604437934028,0.044050157335069444],[-0.19662604437934028,0.044050157335069444],[-0.19662604437934028,0.044050157335069444]],[[0.0038868543836805556,-0.19116373697916667],[0.0038868543836805556,-0.19116373697916667],[0.0038868543836805556,-0.19116373697916667],[0.0038868543836805556,-0.19116373697916667],[0.0038868543836805556,-0.19116373697916667],[0.0038868543836805556,-0.19116373697916667],[0.0038868543836805556,-0.19116373697916667],[0.0038868543836805556,-0.19090643988715278],[0.0038868543836805556,-0.18425096299913193],[0.0038868543836805556,-0.1657351345486111],[0.004881795247395833,-0.12579576280381943],[0.0068081325954861115,-0.09283528645833333],[0.0068081325954861115,-0.053106689453125],[0.0068081325954861115,-0.023591240776909723],[0.0068081325954861115,-0.009588555230034723],[0.0068081325954861115,0.0025981309678819444],[0.0068081325954861115,0.013054063585069444],[0.007373114691840278,0.024354112413194445],[0.0079071044921875,0.031209174262152778],[0.008379109700520833,0.037811652289496525],[0.008379109700520833,0.04250908745659722],[0.008379109700520833,0.04605760362413194],[0.008379109700520833,0.04962565104166667],[0.008379109700520833,0.0521881103515625],[0.008379109700520833,0.05427863226996528],[0.008379109700520833,0.05520039876302083],[0.008379109700520833,0.05548719618055555],[0.008379109700520833,0.05575893825954861],[0.008379109700520833,0.05575893825954861],[0.008379109700520833,0.05658521864149305],[0.008379109700520833,0.05658521864149305]],[[0.002809855143229167,-0.20144856770833333],[0.002809855143229167,-0.20144856770833333],[0.002809855143229167,-0.20144856770833333],[0.002809855143229167,-0.20144856770833333],[0.002809855143229167,-0.20144856770833333],[0.0056396484375,-0.20021803114149306],[0.009741007486979167,-0.19568135579427084],[0.0190301513671875,-0.187646484375],[0.033506062825520835,-0.17385986328125],[0.0503277587890625,-0.15703816731770834],[0.07312160915798611,-0.13750054253472221],[0.09799167209201388,-0.11757466634114583],[0.12849677191840278,-0.09433159722222222],[0.16082472059461805,-0.07032803005642362],[0.1897522650824653,-0.050166422526041664],[0.20667249891493056,-0.03876169840494792],[0.225467529296875,-0.02648227267795139],[0.23619818793402778,-0.019986673990885415],[0.24964111328125,-0.013044772677951389],[0.25431715223524304,-0.010501641167534723],[0.2574728054470486,-0.008556654188368056],[0.25962517632378473,-0.007162882486979167],[0.2605471462673611,-0.00655853271484375],[0.2611206732855903,-0.005984971788194444],[0.26169413248697915,-0.005984971788194444],[0.26169413248697915,-0.005984971788194444],[0.26169413248697915,-0.005984971788194444],[0.26169413248697915,-0.005984971788194444],[0.26169413248697915,-0.005984971788194444],[0.26169413248697915,-0.005984971788194444],[0.26169413248697915,-0.005984971788194444],[0.26169413248697915,-0.005984971788194444],[0.26169413248697915,-0.005984971788194444],[0.26169413248697915,-0.005984971788194444]],[[-0.0014554850260416667,-0.19322618272569445],[-0.0014554850260416667,-0.19322618272569445],[-0.0014554850260416667,-0.19322618272569445],[-0.0014554850260416667,-0.19322618272569445],[-0.0014554850260416667,-0.19322618272569445],[-0.0014554850260416667,-0.19322618272569445],[-0.0014554850260416667,-0.19322618272569445],[-0.0014554850260416667,-0.19322618272569445],[-0.0014554850260416667,-0.19322618272569445],[-0.0014554850260416667,-0.19322618272569445],[-0.006070217556423611,-0.19322618272569445],[-0.010094129774305556,-0.19322618272569445],[-0.01976813422309028,-0.19322618272569445],[-0.03111050075954861,-0.19322618272569445],[-0.057727186414930555,-0.19322618272569445],[-0.10433369954427084,-0.1882345920138889],[-0.12687323676215279,-0.18569864908854167],[-0.14016357421875,-0.18491685655381945],[-0.1690506320529514,-0.18351555718315973],[-0.17988023546006945,-0.18351555718315973],[-0.18948777940538195,-0.18244852701822917],[-0.1961251491970486,-0.18244852701822917],[-0.20079881456163196,-0.18160196940104167],[-0.20435858832465278,-0.18081461588541667],[-0.2069210476345486,-0.1800869411892361],[-0.20859903971354166,-0.1797393120659722],[-0.21027947319878473,-0.17907328287760416],[-0.21195482042100694,-0.17872490776909722],[-0.21322523328993057,-0.17872490776909722],[-0.21449557834201388,-0.1784072536892361],[-0.21541734483506944,-0.17812052408854168],[-0.21633931477864585,-0.17812052408854168],[-0.21661126030815972,-0.17812052408854168],[-0.2175332302517361,-0.17812052408854168],[-0.21845499674479166,-0.17812052408854168],[-0.22042222764756944,-0.17812052408854168],[-0.22169264051649307,-0.17812052408854168],[-0.22337307400173612,-0.17812052408854168],[-0.22546366373697915,-0.17812052408854168],[-0.22802530924479167,-0.17812052408854168],[-0.23058444552951388,-0.17812052408854168],[-0.23361880832248264,-0.17812052408854168],[-0.23662807888454862,-0.17812052408854168],[-0.2391905042860243,-0.178499755859375],[-0.24128106011284722,-0.17884819878472222],[-0.2422030300564236,-0.17913499620225695],[-0.2422030300564236,-0.17942179361979166],[-0.2422030300564236,-0.1796942816840278],[-0.2422030300564236,-0.1796942816840278]],[[0.0030265977647569446,-0.2023681640625],[0.0030265977647569446,-0.2023681640625],[0.0030265977647569446,-0.2023681640625],[0.0030265977647569446,-0.2023681640625],[0.0030265977647569446,-0.2023681640625],[0.0030265977647569446,-0.2023681640625],[0.0030265977647569446,-0.2023681640625],[0.0030265977647569446,-0.2023681640625],[0.0030265977647569446,-0.2023681640625],[0.007261013454861111,-0.2023681640625],[0.01537109375,-0.2023681640625],[0.0381640625,-0.2023681640625],[0.0690042453342014,-0.20061503092447916],[0.09831068250868055,-0.19654473198784722],[0.1290249294704861,-0.1924118381076389],[0.14874009874131944,-0.18889851888020834],[0.16932318793402779,-0.18598537868923612],[0.18643663194444443,-0.18269436306423611],[0.20051852756076388,-0.18084404839409723],[0.20912590874565973,-0.17983784993489582],[0.2171738009982639,-0.17883192274305557],[0.2218712700737847,-0.17842169867621527],[0.22542195638020834,-0.17804673936631946],[0.22710245768229168,-0.17772915310329862],[0.2280215793185764,-0.1774129909939236],[0.2288818359375,-0.1771261935763889],[0.22945529513888888,-0.1771261935763889],[0.2297420925564236,-0.17683946397569444],[0.2297420925564236,-0.17683946397569444],[0.2297420925564236,-0.17683946397569444],[0.2297420925564236,-0.17683946397569444],[0.2297420925564236,-0.17683946397569444],[0.2297420925564236,-0.17683946397569444]]]",5,"[57,31,34,49,33]",,,,,,,,,,,,,,soccerfield.jpg,space,10.6655,0,3,3,88,1,rooftop1.jpg,track.jpg,sculpturegarden4.jpg,sandbox.jpg,,
Image_List_4,,,,,,,,,,,,,,,,46466,2022-03-14_15h07.11.909,analogCatScenes,2020.1.3,MacIntel,60,"[1440,900]","[[[-0.0026268853081597224,-0.19811821831597223],[-0.0026268853081597224,-0.19811821831597223],[-0.0026268853081597224,-0.19811821831597223],[-0.0026268853081597224,-0.19811821831597223],[-0.0026268853081597224,-0.19811821831597223],[-0.0026268853081597224,-0.19811821831597223],[-0.0026268853081597224,-0.19811821831597223],[-0.0026268853081597224,-0.19811821831597223],[-0.004934963650173611,-0.19811821831597223],[-0.012263115776909722,-0.19811821831597223],[-0.024469672309027777,-0.19755323621961807],[-0.05168904622395833,-0.19106899685329862],[-0.07786410861545139,-0.18221293131510416],[-0.12465257432725695,-0.16013359917534722],[-0.14657267252604167,-0.14438286675347223],[-0.16655978732638888,-0.13135030110677084],[-0.19945183648003473,-0.10917351616753472],[-0.2089154052734375,-0.10457295735677083],[-0.2175213623046875,-0.09973598904079861],[-0.22287651909722223,-0.09749959309895834],[-0.22588148328993055,-0.0959970431857639],[-0.2271445041232639,-0.0953656005859375],[-0.2280648464626736,-0.09508043077256945],[-0.22863837348090277,-0.09508043077256945],[-0.2289251708984375,-0.09508043077256945],[-0.22919704861111112,-0.09508043077256945],[-0.2294635009765625,-0.09508043077256945],[-0.2294635009765625,-0.09508043077256945],[-0.2294635009765625,-0.09508043077256945],[-0.2294635009765625,-0.09508043077256945],[-0.2294635009765625,-0.09508043077256945],[-0.2294635009765625,-0.09508043077256945],[-0.2294635009765625,-0.09508043077256945]],[[-0.0025577799479166666,-0.1973598904079861],[-0.0025577799479166666,-0.1973598904079861],[-0.0025577799479166666,-0.1973598904079861],[-0.0025577799479166666,-0.1973598904079861],[-0.0025577799479166666,-0.1973598904079861],[-0.0025577799479166666,-0.1973598904079861],[-0.0025577799479166666,-0.1973598904079861],[-0.0025577799479166666,-0.1973598904079861],[0.0014030626085069445,-0.1973598904079861],[0.017758246527777778,-0.19798692491319445],[0.03844462076822917,-0.19798692491319445],[0.06915886773003473,-0.19967759874131943],[0.09086452907986112,-0.2002420383029514],[0.11973246256510417,-0.2002420383029514],[0.14019015842013888,-0.200931396484375],[0.15839748806423612,-0.20158955891927083],[0.17344828287760417,-0.20221666124131946],[0.18573343912760418,-0.20337259928385418],[0.19403001573350695,-0.204378662109375],[0.20135823567708333,-0.2053537326388889],[0.207939453125,-0.20629387749565972],[0.21329454210069446,-0.20717603895399306],[0.22062269422743055,-0.20815104166666668],[0.22719590928819444,-0.20909003363715278],[0.231976318359375,-0.20993550618489584],[0.23992533365885416,-0.21083984375],[0.24402235243055556,-0.21125],[0.24658481174045138,-0.21125],[0.24826395670572918,-0.21125],[0.24883748372395834,-0.21153679741753473],[0.24941087510850696,-0.21153679741753473],[0.24941087510850696,-0.21153679741753473],[0.24941087510850696,-0.21180338541666666],[0.24941087510850696,-0.21180338541666666],[0.24941087510850696,-0.21180338541666666]]]",2,"[33,35]",,,,,,,,,,,,,,baggageClaim1.jpg,space,3.1598,0,4,4,6,1,ATM1.jpg,banquetHall2.jpg,auto_showroom5.jpg,apartmentBuilding3.jpg,,
Image_List_4,,,,,,,,,,,,,,,,46466,2022-03-14_15h07.11.909,analogCatScenes,2020.1.3,MacIntel,60,"[1440,900]","[[[0.000005086263020833333,-0.194368896484375],[0.000005086263020833333,-0.194368896484375],[0.000005086263020833333,-0.194368896484375],[0.000005086263020833333,-0.194368896484375],[0.000005086263020833333,-0.194368896484375],[0.000005086263020833333,-0.194368896484375],[0.000005086263020833333,-0.194368896484375],[-0.0002517361111111111,-0.194368896484375],[-0.0029994032118055556,-0.1919696044921875],[-0.007562798394097223,-0.18784735785590279],[-0.015597669813368055,-0.17855821397569444],[-0.031070556640625,-0.16089274088541666],[-0.04885816786024306,-0.14166422526041667],[-0.0615594482421875,-0.1287841796875],[-0.07565748426649306,-0.11255588107638889],[-0.08819478352864583,-0.0993292236328125],[-0.09913553873697917,-0.08647596571180556],[-0.10913465711805556,-0.07397711859809028],[-0.11853610568576389,-0.06144141303168403],[-0.12709818522135416,-0.049805840386284723],[-0.13441691080729168,-0.0407958984375],[-0.14249593098958332,-0.030704854329427083],[-0.1472998046875,-0.024451429578993055],[-0.15167195638020833,-0.018098280164930557],[-0.15422573513454862,-0.013400811089409723],[-0.15797627766927083,-0.007775065104166667],[-0.16043735080295138,-0.004493679470486111],[-0.16183112250434029,-0.00234130859375],[-0.16284552680121528,-0.0006608412000868055],[-0.16341912163628472,-0.0000872802734375],[-0.16370585123697917,0.00048628065321180557],[-0.16370585123697917,0.0010592990451388888],[-0.16370585123697917,0.0016944715711805555],[-0.16370585123697917,0.0016944715711805555],[-0.16370585123697917,0.0016944715711805555]]]",1,[35],,,,,,,,,,,,,,boardwalk4.jpg,space,2.6999,0,5,5,13,1,balconyIN2.jpg,bowlingalley3.jpg,beach2.jpg,backyard6.jpg,,
Image_List_4,,,,,,,,,,,,,,,,46466,2022-03-14_15h07.11.909,analogCatScenes,2020.1.3,MacIntel,60,"[1440,900]","[[[-0.004579332139756944,-0.19585401746961806],[-0.004579332139756944,-0.19585401746961806],[-0.004579332139756944,-0.19585401746961806],[-0.004579332139756944,-0.19585401746961806],[-0.004579332139756944,-0.19585401746961806],[-0.004579332139756944,-0.19585401746961806],[-0.004579332139756944,-0.19585401746961806],[-0.004579332139756944,-0.19585401746961806],[-0.004579332139756944,-0.19585401746961806],[-0.004579332139756944,-0.19585401746961806],[-0.004579332139756944,-0.19585401746961806],[-0.004579332139756944,-0.19585401746961806],[-0.0028053114149305556,-0.19585401746961806],[0.0012964545355902777,-0.19585401746961806],[0.006651543511284722,-0.19585401746961806],[0.016263292100694444,-0.19585401746961806],[0.02762566460503472,-0.19645005967881946],[0.03892578125,-0.19758009168836804],[0.050225830078125,-0.19871005588107638],[0.06152594672309028,-0.19871005588107638],[0.07282599555121527,-0.19871005588107638],[0.08328192816840278,-0.19871005588107638],[0.09691765679253472,-0.19610215928819444],[0.10574747721354166,-0.19402818467881944],[0.11457729763454862,-0.19145128038194445],[0.12337015787760416,-0.18782280815972222],[0.13244791666666667,-0.18355095757378473],[0.1415090603298611,-0.17875542534722222],[0.152275390625,-0.173043212890625],[0.16163235134548612,-0.1675482855902778],[0.1718023681640625,-0.1613332790798611],[0.18084242078993057,-0.15455322265625],[0.1898824734157986,-0.14777323404947917],[0.19975545247395834,-0.13965481228298612],[0.2101678466796875,-0.12986952039930555],[0.2205755615234375,-0.12008890787760416],[0.23066548665364583,-0.11119113498263888],[0.23892340766059028,-0.10403211805555555],[0.24781134711371527,-0.09709269205729167],[0.25516357421875,-0.0913425021701389],[0.26082797580295136,-0.08662224663628472],[0.26718112521701387,-0.08174709743923611],[0.2735342746310764,-0.07737501356336805],[0.2779359944661458,-0.07430379231770834],[0.28406629774305553,-0.07056532118055556],[0.28841566297743054,-0.06791863335503472],[0.2909647623697917,-0.06681830512152778],[0.292645263671875,-0.06612141927083333],[0.29321879069010415,-0.06554789225260417],[0.2935055881076389,-0.06554789225260417],[0.2935055881076389,-0.06554789225260417],[0.2935055881076389,-0.06554789225260417],[0.2935055881076389,-0.06554789225260417]],[[0.0017851426866319444,-0.1935116916232639],[0.0017851426866319444,-0.1935116916232639],[0.0017851426866319444,-0.1935116916232639],[0.0017851426866319444,-0.1935116916232639],[0.0017851426866319444,-0.1935116916232639],[0.0017851426866319444,-0.1935116916232639],[0.0017851426866319444,-0.1935116916232639],[0.0017851426866319444,-0.1935116916232639],[0.0017851426866319444,-0.1935116916232639],[0.0017851426866319444,-0.1935116916232639],[0.0017851426866319444,-0.1935116916232639],[0.0017851426866319444,-0.1935116916232639],[0.0017851426866319444,-0.1935116916232639],[0.0007496473524305555,-0.1935116916232639],[-0.003936360677083334,-0.1935116916232639],[-0.009887152777777778,-0.1935116916232639],[-0.021947157118055557,-0.1950177001953125],[-0.041811998155381946,-0.19717942979600694],[-0.056018812391493054,-0.19906087239583334],[-0.07422614203559028,-0.20106662326388888],[-0.0903082275390625,-0.20297899034288194],[-0.10525410970052083,-0.20484286838107638],[-0.11836717393663194,-0.20663099500868057],[-0.12956278483072917,-0.20831556532118056],[-0.1383926052517361,-0.20935248480902777],[-0.14800435384114582,-0.21042046440972223],[-0.15605224609375,-0.2114263916015625],[-0.16557929144965278,-0.21195095486111112],[-0.17164096408420138,-0.21286248101128472],[-0.17829610188802084,-0.2138039822048611],[-0.18424689398871527,-0.2147170681423611],[-0.19169928656684027,-0.215692138671875],[-0.19765007866753473,-0.216605224609375],[-0.20511800130208332,-0.2178976101345486],[-0.2103985595703125,-0.21877766927083334],[-0.2145562744140625,-0.2195965576171875],[-0.21812432183159722,-0.2200067138671875],[-0.22068413628472222,-0.2203542751736111],[-0.22277262369791667,-0.2203542751736111],[-0.22404296875,-0.22067186143663195],[-0.22531270345052085,-0.22098944769965279],[-0.22623467339409722,-0.22130703396267362],[-0.2271566433376736,-0.22159383138020833],[-0.22883707682291668,-0.2222597927517361],[-0.23010748969184028,-0.22289496527777777],[-0.23137786865234375,-0.22353013780381945],[-0.23233062744140626,-0.22448296440972224],[-0.23233062744140626,-0.22448296440972224],[-0.23233062744140626,-0.22448296440972224],[-0.23233062744140626,-0.22448296440972224],[-0.23233062744140626,-0.22448296440972224],[-0.23233062744140626,-0.22448296440972224],[-0.23233062744140626,-0.22448296440972224],[-0.23233062744140626,-0.22448296440972224],[-0.23233062744140626,-0.22448296440972224]]]",2,"[53,55]",,,,,,,,,,,,,,golfcourse7.jpg,space,4.5662,0,6,6,48,1,frontDoor2.jpg,golfcourse6.jpg,fittingroom5.jpg,fabricstore2.jpg,,
Image_List_4,,,,,,,,,,,,,,,,46466,2022-03-14_15h07.11.909,analogCatScenes,2020.1.3,MacIntel,60,"[1440,900]","[[[-0.0096533203125,-0.20012376573350693],[-0.0096533203125,-0.20012376573350693],[-0.0096533203125,-0.20012376573350693],[-0.0096533203125,-0.20012376573350693],[-0.0096533203125,-0.20012376573350693],[-0.0096533203125,-0.20012376573350693],[-0.0096533203125,-0.20012376573350693],[-0.0096533203125,-0.19934597439236112],[-0.0096533203125,-0.19399088541666668],[-0.0096533203125,-0.18141018337673612],[-0.0096533203125,-0.15973320855034723],[-0.008870442708333334,-0.13439853244357639],[-0.008870442708333334,-0.119097900390625],[-0.008870442708333334,-0.10196519639756944],[-0.008870442708333334,-0.08791239420572916],[-0.008870442708333334,-0.06418789333767361],[-0.008870442708333334,-0.05082526312934028],[-0.008870442708333334,-0.038964335123697916],[-0.008870442708333334,-0.0276019287109375],[-0.008870442708333334,-0.020931430392795138],[-0.008870442708333334,-0.017897101508246527],[-0.009505615234375,-0.016627977159288196],[-0.009505615234375,-0.01605441623263889],[-0.009792412651909723,-0.015767618815104165],[-0.010064290364583334,-0.015495775010850695],[-0.010064290364583334,-0.015229356553819445],[-0.010351087782118056,-0.015229356553819445],[-0.010351087782118056,-0.015229356553819445],[-0.010614963107638889,-0.015229356553819445],[-0.010614963107638889,-0.015229356553819445],[-0.010614963107638889,-0.015229356553819445],[-0.010614963107638889,-0.015229356553819445],[-0.010614963107638889,-0.015229356553819445],[-0.010873819986979167,-0.015229356553819445],[-0.010873819986979167,-0.015229356553819445],[-0.010873819986979167,-0.015229356553819445],[-0.010873819986979167,-0.015229356553819445],[-0.010873819986979167,-0.015229356553819445],[-0.010873819986979167,-0.015229356553819445],[-0.010873819986979167,-0.015229356553819445]]]",1,[40],,,,,,,,,,,,,,churchInside3.jpg,space,2.0291,0,7,7,26,1,campusquad2.jpg,cornfield4.jpg,church4.jpg,botanicalGarden7.jpg,,
Image_List_4,,,,,,,,,,,,,,,,46466,2022-03-14_15h07.11.909,analogCatScenes,2020.1.3,MacIntel,60,"[1440,900]","[[[0.0009757486979166666,-0.20385701497395833],[0.0009757486979166666,-0.20385701497395833],[0.0009757486979166666,-0.20385701497395833],[0.0009757486979166666,-0.20385701497395833],[0.0009757486979166666,-0.20385701497395833],[0.0009757486979166666,-0.20385701497395833],[0.0009757486979166666,-0.20385701497395833],[0.0040700276692708336,-0.20385701497395833],[0.013293728298611111,-0.20251322428385415],[0.027405124240451387,-0.19868726942274306],[0.0449542236328125,-0.19194959852430554],[0.05687669542100694,-0.1864914279513889],[0.0727362060546875,-0.17790337456597222],[0.08787502712673612,-0.16934672037760418],[0.10224093967013889,-0.1602047390407986],[0.114442138671875,-0.15230333116319444],[0.12730082194010417,-0.1461874728732639],[0.14015957302517362,-0.13947564019097222],[0.15267652723524305,-0.13411126030815973],[0.16578952365451388,-0.12934285481770832],[0.17799608018663193,-0.12469868977864583],[0.19017598470052083,-0.12006422254774306],[0.20147603352864582,-0.1155441623263889],[0.21586744520399306,-0.10914801703559028],[0.2215151638454861,-0.106414794921875],[0.22765157063802083,-0.10311062282986111],[0.23134318033854168,-0.10064954969618056],[0.2334955512152778,-0.09925577799479167],[0.2347637939453125,-0.09830403645833333],[0.23533677842881945,-0.09801730685763889],[0.23533677842881945,-0.09773050944010417],[0.23533677842881945,-0.09773050944010417],[0.23533677842881945,-0.09773050944010417]],[[0.0024100748697916665,-0.20113009982638888],[0.0024100748697916665,-0.20113009982638888],[0.0024100748697916665,-0.20113009982638888],[0.0024100748697916665,-0.20113009982638888],[0.0024100748697916665,-0.20113009982638888],[0.0024100748697916665,-0.20113009982638888],[0.0024100748697916665,-0.20113009982638888],[0.0024100748697916665,-0.20061279296875],[0.004174465603298611,-0.19531968858506946],[0.006913791232638889,-0.18936896430121528],[0.0090264892578125,-0.18467149522569445],[0.012547471788194445,-0.17662360297309027],[0.014335191514756944,-0.171820068359375],[0.016161431206597222,-0.16586927625868056],[0.01804653591579861,-0.15921108669704861],[0.0194317626953125,-0.15366997612847222],[0.021667683919270833,-0.1452975802951389],[0.022487386067708334,-0.14113789876302082],[0.022487386067708334,-0.13810356987847222],[0.022487386067708334,-0.13506924099392362],[0.022487386067708334,-0.13297871907552083],[0.022487386067708334,-0.13088812934027777],[0.022108086480034723,-0.12832573784722223],[0.020970255533854166,-0.12529134114583335],[0.019456990559895835,-0.12226487901475694],[0.018063557942708332,-0.12017469618055555],[0.016136203342013888,-0.11748874240451389],[0.013953043619791666,-0.11565402560763889],[0.011584608289930555,-0.11287543402777778],[0.008055894639756945,-0.10846455891927083],[0.005594685872395833,-0.10521382649739583],[0.0031522623697916668,-0.10155327690972223],[0.0002872721354166667,-0.09828016493055555],[-0.0028303358289930554,-0.09400316026475694],[-0.0042852783203125,-0.091441650390625],[-0.005676812065972222,-0.08935438368055555],[-0.006342841254340278,-0.08767388237847222],[-0.006978013780381945,-0.08640353732638889],[-0.007295600043402778,-0.08548204210069445],[-0.0075676812065972225,-0.08521002875434028],[-0.0075676812065972225,-0.08492323133680556],[-0.00783908420138889,-0.0846517605251736],[-0.008110894097222222,-0.08409315321180555],[-0.008110894097222222,-0.08409315321180555],[-0.00837734646267361,-0.08382676866319444],[-0.00837734646267361,-0.08382676866319444],[-0.00837734646267361,-0.08382676866319444],[-0.00837734646267361,-0.08382676866319444],[-0.00837734646267361,-0.08382676866319444],[-0.00837734646267361,-0.08382676866319444]],[[-0.00005113389756944444,-0.20171454535590277],[-0.00005113389756944444,-0.20171454535590277],[-0.00005113389756944444,-0.20171454535590277],[-0.00005113389756944444,-0.20171454535590277],[-0.00005113389756944444,-0.20171454535590277],[-0.00005113389756944444,-0.20171454535590277],[-0.00005113389756944444,-0.20171454535590277],[-0.00005113389756944444,-0.20171454535590277],[-0.00005113389756944444,-0.20171454535590277],[-0.0037428114149305556,-0.20171454535590277],[-0.012572699652777778,-0.20171454535590277],[-0.02311245388454861,-0.20230692545572918],[-0.04712185329861111,-0.20455912272135415],[-0.07508341471354167,-0.20778415256076388],[-0.10503797743055555,-0.20858954535590277],[-0.12337042914496528,-0.20858954535590277],[-0.15105977376302082,-0.20858954535590277],[-0.1642352294921875,-0.20858954535590277],[-0.1716876220703125,-0.20858954535590277],[-0.1790158420138889,-0.20858954535590277],[-0.18707872178819446,-0.20858954535590277],[-0.1930295138888889,-0.20858954535590277],[-0.19784281412760416,-0.2094388156467014],[-0.20312174479166667,-0.20987752278645833],[-0.2078191460503472,-0.20987752278645833],[-0.2113846164279514,-0.20987752278645833],[-0.21441107855902777,-0.20987752278645833],[-0.21697353786892362,-0.20987752278645833],[-0.21953389485677083,-0.20987752278645833],[-0.22256822374131943,-0.20987752278645833],[-0.22566297743055555,-0.208770751953125],[-0.22868699815538193,-0.20763807508680557],[-0.23323849148220485,-0.206500244140625],[-0.23578959147135417,-0.2061518012152778],[-0.23882392035590277,-0.20577250162760416],[-0.24138637966579862,-0.20504482693142362],[-0.24394880506727432,-0.20431708441840277],[-0.2456292724609375,-0.203651123046875],[-0.2473097398546007,-0.20333346896701388],[-0.24788316514756945,-0.203046875],[-0.24816992865668402,-0.203046875],[-0.24816992865668402,-0.203046875],[-0.24816992865668402,-0.203046875],[-0.24816992865668402,-0.203046875],[-0.24816992865668402,-0.203046875],[-0.24816992865668402,-0.203046875],[-0.24816992865668402,-0.203046875],[-0.24816992865668402,-0.203046875],[-0.24816992865668402,-0.203046875],[-0.24816992865668402,-0.203046875],[-0.24816992865668402,-0.203046875],[-0.24816992865668402,-0.203046875],[-0.24816992865668402,-0.203046875],[-0.24816992865668402,-0.203046875],[-0.2502025010850694,-0.203046875],[-0.25436621771918405,-0.2013443332248264],[-0.2607193671332465,-0.19744425455729167],[-0.267072516547309,-0.19307210286458334],[-0.2717313300238715,-0.1894192843967014],[-0.27738922119140624,-0.184891357421875],[-0.28180013020833333,-0.18136271158854167],[-0.28508154975043404,-0.17849141438802082],[-0.28833977593315974,-0.17563761393229166],[-0.2917533704969618,-0.17222398546006945],[-0.29238810221354167,-0.17158921983506945],[-0.2947870212131076,-0.16919033474392361],[-0.29573937310112847,-0.1679208034939236],[-0.29669216579861113,-0.166650390625],[-0.29729651557074654,-0.16572848849826388],[-0.2979008992513021,-0.16480645073784722],[-0.2985052490234375,-0.16388454861111112],[-0.2990788099500868,-0.16331095377604166],[-0.2993656073676215,-0.16273735894097222],[-0.29996941460503473,-0.16181654188368055],[-0.3002558390299479,-0.16124335394965278],[-0.3008601888020833,-0.1603213840060764],[-0.30114698621961805,-0.15974778917100693],[-0.3014645724826389,-0.15882581922743055],[-0.30206892225477433,-0.15790384928385418],[-0.30238389756944445,-0.1566387261284722],[-0.30238389756944445,-0.15606560601128472],[-0.30270148383246526,-0.15514363606770834],[-0.30298824734157986,-0.15428595648871526],[-0.3032738918728299,-0.15371351453993057],[-0.3032738918728299,-0.15342678493923612],[-0.3032738918728299,-0.15342678493923612],[-0.3032738918728299,-0.15342678493923612],[-0.3032738918728299,-0.15342678493923612],[-0.3032738918728299,-0.15342678493923612],[-0.3032738918728299,-0.15342678493923612],[-0.3032738918728299,-0.15342678493923612],[-0.3032738918728299,-0.15342678493923612]]]",3,"[33,50,92]",,,,,,,,,,,,,,nursery4.jpg,space,5.751,0,8,8,73,1,musicStore3.jpg,photographer_studio2.jpg,nursery.jpg,library_aisle9.jpg,,
Image_List_4,,,,,,,,,,,,,,,,46466,2022-03-14_15h07.11.909,analogCatScenes,2020.1.3,MacIntel,60,"[1440,900]","[[[-0.007849460177951389,-0.19875454372829862],[-0.007849460177951389,-0.19875454372829862],[-0.007849460177951389,-0.19875454372829862],[-0.007849460177951389,-0.19875454372829862],[-0.007849460177951389,-0.19875454372829862],[-0.007849460177951389,-0.19875454372829862],[-0.008107028537326389,-0.19875454372829862],[-0.010669487847222223,-0.19875454372829862],[-0.013765665690104166,-0.19793416341145834],[-0.020436197916666666,-0.19459893120659721],[-0.02898017035590278,-0.18919698079427083],[-0.03645595974392361,-0.18278910319010416],[-0.04470587836371528,-0.17620205349392362],[-0.053900824652777776,-0.1664731174045139],[-0.05877597384982639,-0.160592041015625],[-0.06255221896701389,-0.15445556640625],[-0.06707716200086805,-0.14741712782118055],[-0.06990424262152778,-0.14076036241319445],[-0.07354960123697916,-0.13362447102864583],[-0.07569322374131944,-0.128927001953125],[-0.07877326117621528,-0.12081692165798612],[-0.08160542805989583,-0.11420850965711805],[-0.08453050401475694,-0.10688028971354167],[-0.08710740831163194,-0.09805046929253472],[-0.09062839084201389,-0.09000257703993056],[-0.09364630805121528,-0.08195461697048612],[-0.09578993055555556,-0.07725721571180555],[-0.09842108832465278,-0.07199483235677083],[-0.10010342068142361,-0.06735799153645833],[-0.10215433756510417,-0.0632562255859375],[-0.10478515625,-0.055124782986111114],[-0.10648261176215278,-0.050440029568142364],[-0.10771308051215278,-0.04633826361762153],[-0.10875840928819444,-0.04424770779079861],[-0.10939358181423611,-0.04297732883029514],[-0.10968031141493055,-0.042690565321180554],[-0.10968031141493055,-0.042418891059027776],[-0.10968031141493055,-0.042418891059027776],[-0.10968031141493055,-0.042418891059027776],[-0.10968031141493055,-0.042418891059027776],[-0.10968031141493055,-0.042418891059027776]]]",1,[41],,,,,,,,,,,,,,labClass7.jpg,space,2.2658,0,9,9,65,1,igloo5.jpg,newsstand7.jpg,laundromat2.jpeg,homeoffice8.jpg,,
Image_List_4,,,,,,,,,,,,,,,,46466,2022-03-14_15h07.11.909,analogCatScenes,2020.1.3,MacIntel,60,"[1440,900]","[[[0.0006845431857638889,-0.20648973253038194],[0.0006845431857638889,-0.20648973253038194],[0.0006845431857638889,-0.20648973253038194],[0.0006845431857638889,-0.20648973253038194],[0.0006845431857638889,-0.20648973253038194],[0.0006845431857638889,-0.20648973253038194],[0.0006845431857638889,-0.20648973253038194],[0.0006845431857638889,-0.20648973253038194],[0.0006845431857638889,-0.20648973253038194],[0.0006845431857638889,-0.20648973253038194],[0.0006845431857638889,-0.20648973253038194],[0.0006845431857638889,-0.20648973253038194],[0.0006845431857638889,-0.20358588324652777],[-0.0019234212239583332,-0.1954757351345486],[-0.009098307291666666,-0.17730021158854167],[-0.0220599365234375,-0.14530320909288194],[-0.04410285101996528,-0.10221930609809028],[-0.06402072482638889,-0.07011928982204861],[-0.09267015245225695,-0.03254625108506944],[-0.11546190049913195,-0.004432305230034722],[-0.1287469482421875,0.010231458875868056],[-0.14177232530381945,0.02533542209201389],[-0.1507442898220486,0.03549947102864583],[-0.15448689778645833,0.04106655544704861],[-0.15838704427083333,0.04741970486111111],[-0.15914557562934029,0.050454033745659724],[-0.15914557562934029,0.050454033745659724],[-0.15914557562934029,0.050454033745659724],[-0.15914557562934029,0.050454033745659724]],[[0.005900404188368055,-0.1980077446831597],[0.005900404188368055,-0.1980077446831597],[0.005900404188368055,-0.1980077446831597],[0.005900404188368055,-0.1980077446831597],[0.005900404188368055,-0.1980077446831597],[0.005900404188368055,-0.19748908148871527],[0.012338935004340277,-0.1894921196831597],[0.03404507107204861,-0.15832716200086805],[0.054837849934895835,-0.1312405734592014],[0.08017788357204861,-0.10222371419270833],[0.10553738064236111,-0.08109076605902778],[0.12202033148871527,-0.06946607801649306],[0.13862677680121527,-0.05837436252170139],[0.14930589463975694,-0.05000067816840278],[0.15355441623263888,-0.04534200032552083],[0.15714511447482638,-0.040930989583333334],[0.1585950385199653,-0.03837680392795139],[0.15891262478298612,-0.03669633653428819],[0.15891262478298612,-0.03577436659071181],[0.15891262478298612,-0.0352008056640625],[0.15891262478298612,-0.0352008056640625],[0.15891262478298612,-0.0352008056640625],[0.15891262478298612,-0.0352008056640625]]]",2,"[29,23]",,,,,,,,,,,,,,park2.jpg,space,2.4622,0,10,10,76,1,parkinggarage.jpg,playroom4.jpg,parkinggarage3.jpg,lookout4.jpg,,
Image_List_4,,,,,,,,,,,,,,,,46466,2022-03-14_15h07.11.909,analogCatScenes,2020.1.3,MacIntel,60,"[1440,900]","[[[0.003501654730902778,-0.19886956108940973],[0.003501654730902778,-0.19886956108940973],[0.003501654730902778,-0.19886956108940973],[0.003501654730902778,-0.19886956108940973],[0.003501654730902778,-0.19886956108940973],[0.003501654730902778,-0.19886956108940973],[0.003501654730902778,-0.19434461805555556],[0.004507581922743056,-0.1862966579861111],[0.0071775309244791665,-0.1766849093967014],[0.010381401909722223,-0.16707316080729168],[0.015522732204861112,-0.15099107530381944],[0.021149766710069445,-0.1360030788845486],[0.025915391710069444,-0.1228976779513889],[0.034904852973090275,-0.10050177680121528],[0.04411180284288194,-0.07670159233940972],[0.05529676649305556,-0.04881710476345486],[0.05909322102864583,-0.03896670871310764],[0.06320522732204861,-0.03020867241753472],[0.06503146701388889,-0.024257914225260416],[0.0662286376953125,-0.02069980197482639],[0.06736653645833333,-0.01766547309027778],[0.06803249782986111,-0.015984971788194444],[0.06835008409288194,-0.014714626736111111],[0.0686221652560764,-0.014442579481336806],[0.0686221652560764,-0.014442579481336806],[0.0686221652560764,-0.014442579481336806],[0.0686221652560764,-0.014442579481336806],[0.0686221652560764,-0.014442579481336806],[0.0686221652560764,-0.014442579481336806]]]",1,[29],,,,,,,,,,,,,,forestpath4.jpg,space,1.8616,0,11,11,45,1,fittingroom2.jpg,frontFoyer7.jpg,factory1.jpg,dock4.jpg,,
Image_List_4,,,,,,,,,,,,,,,,46466,2022-03-14_15h07.11.909,analogCatScenes,2020.1.3,MacIntel,60,"[1440,900]","[[[-0.0024974229600694445,-0.19774285210503473],[-0.0024974229600694445,-0.19774285210503473],[-0.0024974229600694445,-0.19774285210503473],[-0.0024974229600694445,-0.19774285210503473],[-0.0024974229600694445,-0.19774285210503473],[-0.0024974229600694445,-0.19774285210503473],[-0.0014435492621527777,-0.19774285210503473],[0.002720133463541667,-0.19774285210503473],[0.008631456163194445,-0.19774285210503473],[0.019931504991319446,-0.19774285210503473],[0.030387437608506946,-0.1966128200954861],[0.040843370225694446,-0.19441487630208334],[0.05129923502604167,-0.19108690049913193],[0.06097323947482639,-0.18731791178385418],[0.07098470052083333,-0.1817559814453125],[0.08429667154947916,-0.1717409939236111],[0.08889322916666667,-0.16717542860243056],[0.09589769151475694,-0.15945088704427082],[0.10042555067274306,-0.15322794596354167],[0.10376085069444445,-0.14706047905815972],[0.10737474229600695,-0.13823065863715278],[0.11317423502604167,-0.12214850531684028],[0.1175332302517361,-0.10878594292534723],[0.12138922797309028,-0.092703857421875],[0.12383551703559027,-0.07862196180555556],[0.12628180609809028,-0.06454003228081598],[0.12747389051649305,-0.051427001953125],[0.12872592502170138,-0.036402587890625],[0.12935302734375,-0.01685085720486111],[0.12935302734375,-0.003488226996527778],[0.12935302734375,0.013625217013888889],[0.12935302734375,0.02970730251736111],[0.1262796359592014,0.05131456163194444],[0.12426764594184028,0.05961046006944445],[0.12173970540364583,0.067657470703125],[0.11890740288628472,0.0743280029296875],[0.11714307996961805,0.07962110731336805],[0.1148138427734375,0.08629160563151042],[0.11355238172743055,0.090455322265625],[0.11232184516059028,0.09455708821614583],[0.11124565972222222,0.09670945909288195],[0.11067213270399305,0.09699622260199653],[0.11067213270399305,0.09699622260199653],[0.11067213270399305,0.09699622260199653],[0.11067213270399305,0.09699622260199653],[0.11067213270399305,0.09699622260199653],[0.11067213270399305,0.09699622260199653],[0.11067213270399305,0.09699622260199653],[0.11067213270399305,0.09699622260199653],[0.11067213270399305,0.09699622260199653],[0.11067213270399305,0.09699622260199653],[0.11067213270399305,0.09699622260199653],[0.11067213270399305,0.09699622260199653],[0.11067213270399305,0.09699622260199653],[0.11067213270399305,0.09699622260199653]]]",1,[55],,,,,,,,,,,,,,attic4.jpg,space,2.18,0,12,12,5,1,artStudio3.jpg,bambooforest.jpg,auto_showroom4.jpg,amusement3.jpg,,
Image_List_4,,,,,,,,,,,,,,,,46466,2022-03-14_15h07.11.909,analogCatScenes,2020.1.3,MacIntel,60,"[1440,900]","[[[-0.008479682074652778,-0.19326307508680557],[-0.008479682074652778,-0.19326307508680557],[-0.008479682074652778,-0.19326307508680557],[-0.008479682074652778,-0.19326307508680557],[-0.008479682074652778,-0.19326307508680557],[-0.008479682074652778,-0.19326307508680557],[-0.008479682074652778,-0.19326307508680557],[-0.008479682074652778,-0.19326307508680557],[-0.008479682074652778,-0.19326307508680557],[-0.008479682074652778,-0.19097235785590277],[-0.008479682074652778,-0.1888817681206597],[-0.009994710286458333,-0.18622884114583332],[-0.013051689995659723,-0.18282341851128472],[-0.020162421332465277,-0.1752716742621528],[-0.0270953369140625,-0.16780619303385416],[-0.034223225911458335,-0.16008226182725693],[-0.040817192925347225,-0.1518243408203125],[-0.046002061631944445,-0.14403143988715278],[-0.050684000651041665,-0.13573560926649306],[-0.05483188205295139,-0.12690578884548612],[-0.05979281955295139,-0.11701483832465277],[-0.06381679958767361,-0.10896694607204861],[-0.06784071180555555,-0.10142198350694444],[-0.07123786078559027,-0.09456583658854166],[-0.07475877549913194,-0.08702094184027778],[-0.07758375379774306,-0.0757208251953125],[-0.07927558051215278,-0.06445298936631945],[-0.0802505832248264,-0.05712483723958333],[-0.08125162760416667,-0.04911600748697917],[-0.08125162760416667,-0.04385318332248264],[-0.08204115125868056,-0.03613739013671875],[-0.08204115125868056,-0.02948208279079861],[-0.08204115125868056,-0.023620334201388888],[-0.08204115125868056,-0.01702297634548611],[-0.08204115125868056,-0.01220157199435764],[-0.08204115125868056,-0.006908467610677083],[-0.08204115125868056,-0.00280670166015625],[-0.08163099500868055,0.0007613457573784722],[-0.08128255208333333,0.002851901584201389],[-0.0809649658203125,0.004122280544704861],[-0.0809649658203125,0.00504425048828125],[-0.0809649658203125,0.005331013997395833],[-0.0809649658203125,0.005331013997395833],[-0.0809649658203125,0.005331013997395833],[-0.0809649658203125,0.005331013997395833],[-0.0809649658203125,0.005331013997395833]],[[0.0002164035373263889,-0.18991834852430556],[0.0002164035373263889,-0.18991834852430556],[0.0002164035373263889,-0.18991834852430556],[0.0002164035373263889,-0.18991834852430556],[0.0002164035373263889,-0.18991834852430556],[0.0002164035373263889,-0.18991834852430556],[0.0002164035373263889,-0.18991834852430556],[0.0002164035373263889,-0.18991834852430556],[0.004039306640625,-0.18991834852430556],[0.0144952392578125,-0.18991834852430556],[0.026701795789930555,-0.18991834852430556],[0.04791151258680556,-0.190732421875],[0.07587307400173611,-0.19314337836371528],[0.0944559054904514,-0.19449110243055556],[0.11613288031684028,-0.1981246609157986],[0.13324632432725694,-0.2007574462890625],[0.14835957845052083,-0.20326592339409721],[0.16147257486979166,-0.2044580078125],[0.1727200656467014,-0.20558281792534722],[0.18224697536892362,-0.2066413031684028],[0.1958327907986111,-0.208709716796875],[0.20466261121961807,-0.21028062608506945],[0.2142743598090278,-0.21134860568576389],[0.22034918891059027,-0.2122616916232639],[0.22629998101128473,-0.21317484537760417],[0.23099249945746528,-0.213583984375],[0.23402682834201388,-0.2139632839626736],[0.2357073296440972,-0.2139632839626736],[0.2377978515625,-0.21431172688802083],[0.24136589898003472,-0.21431172688802083],[0.24546766493055555,-0.21431172688802083],[0.25076076931423613,-0.2147528076171875],[0.25558213975694444,-0.21522481282552083],[0.260875244140625,-0.2156658935546875],[0.26555372450086806,-0.21607611762152779],[0.270628662109375,-0.21607611762152779],[0.2727176242404514,-0.21607611762152779],[0.2743980577256944,-0.21607611762152779],[0.2756684705946181,-0.21607611762152779],[0.27693881564670136,-0.21575846354166667],[0.27751241048177083,-0.21547173394097222],[0.27808553059895835,-0.2151849365234375],[0.27837232801649303,-0.2148992919921875],[0.27837232801649303,-0.2148992919921875],[0.27837232801649303,-0.2148992919921875]]]",2,"[46,45]",,,,,,,,,,,,,,cave5.jpg,space,4.8976,0,13,13,21,1,botanicalGarden6.jpg,cemetery6.jpg,campusquad3.jpg,beach1.jpeg,,
Image_List_4,,,,,,,,,,,,,,,,46466,2022-03-14_15h07.11.909,analogCatScenes,2020.1.3,MacIntel,60,"[1440,900]","[[[-0.0072538926866319445,-0.18905239529079862],[-0.0072538926866319445,-0.18905239529079862],[-0.0072538926866319445,-0.18905239529079862],[-0.0072538926866319445,-0.18905239529079862],[-0.0072538926866319445,-0.18905239529079862],[-0.0072538926866319445,-0.18905239529079862],[-0.0072538926866319445,-0.18905239529079862],[-0.0072538926866319445,-0.18905239529079862],[-0.0072538926866319445,-0.18853644476996528],[-0.011153971354166667,-0.18218329535590277],[-0.017710435655381943,-0.1702623833550347],[-0.028672417534722223,-0.1457086181640625],[-0.048426649305555555,-0.10231892903645834],[-0.06449144151475694,-0.07018934461805555],[-0.08071702745225695,-0.04358544243706597],[-0.09562255859375,-0.02085137261284722],[-0.10649658203125,-0.005934516059027777],[-0.1145452880859375,0.0028339979383680556],[-0.1177566867404514,0.008312717013888889],[-0.12030042860243055,0.01299106174045139],[-0.12276150173611111,0.016682671440972224],[-0.12521314832899305,0.019951578776041666],[-0.12767333984375,0.02323187934027778],[-0.12985649956597223,0.02506659613715278],[-0.1311880154079861,0.02674655490451389],[-0.1321408420138889,0.02769931369357639],[-0.13280442979600696,0.02937503390842014],[-0.1337881130642361,0.03070709228515625],[-0.1347100830078125,0.031629062228732636],[-0.13531439887152777,0.03255103217230903],[-0.13591878255208334,0.03347296820746528],[-0.1361907280815972,0.03374491373697917],[-0.1361907280815972,0.03374491373697917],[-0.1361907280815972,0.03374491373697917],[-0.1361907280815972,0.03374491373697917],[-0.1361907280815972,0.03374491373697917],[-0.1361907280815972,0.03374491373697917],[-0.1361907280815972,0.03374491373697917],[-0.1361907280815972,0.03374491373697917],[-0.1361907280815972,0.03374491373697917]],[[-0.005555352105034723,-0.19423000759548611],[-0.005555352105034723,-0.19423000759548611],[-0.005555352105034723,-0.19423000759548611],[-0.005555352105034723,-0.19423000759548611],[-0.005555352105034723,-0.19423000759548611],[-0.005555352105034723,-0.19423000759548611],[-0.005555352105034723,-0.19423000759548611],[0.0002747938368055556,-0.18810275607638888],[0.012112969292534722,-0.17494920518663196],[0.02521023220486111,-0.159783935546875],[0.04475246853298611,-0.13867560492621528],[0.081387939453125,-0.100335693359375],[0.09414557562934028,-0.08832967122395834],[0.110748291015625,-0.07392686631944445],[0.12397494845920139,-0.062078857421875],[0.13359931098090277,-0.04856743706597222],[0.14120340983072915,-0.033271552191840276],[0.14503363715277778,-0.017301127115885415],[0.1469460720486111,-0.0021879069010416665],[0.14810743543836805,0.01076694064670139],[0.14810743543836805,0.020326944986979168],[0.14810743543836805,0.02993869357638889],[0.14870347764756944,0.04214525010850694],[0.14870347764756944,0.05525824652777778],[0.14870347764756944,0.06270863850911458],[0.14870347764756944,0.07002794053819444],[0.14832661946614584,0.07358615451388889],[0.14687120225694444,0.07614861382378472],[0.14405598958333332,0.07861538357204861],[0.14215949164496527,0.08127041286892361],[0.14017042371961805,0.08442830403645833],[0.13877671983506945,0.08651885986328126],[0.13738301595052083,0.08860941569010417],[0.13636854383680555,0.09028988308376736],[0.13538492838541666,0.09197035047743056],[0.1347188991970486,0.09365081787109375],[0.13408372667100693,0.09492119683159722],[0.13351019965277777,0.09549475775824653],[0.13322340223524307,0.09606831868489583],[0.1329519314236111,0.09633982340494791],[0.1329519314236111,0.09633982340494791],[0.13268798828125,0.09660373263888888],[0.13241624620225695,0.09687547471788194],[0.13214402940538195,0.09687547471788194],[0.1318722195095486,0.09714735243055556],[0.13160569932725694,0.09714735243055556],[0.13131890190972223,0.09743411593967014],[0.1310321044921875,0.09743411593967014],[0.1307656521267361,0.09743411593967014],[0.1307656521267361,0.09743411593967014],[0.1307656521267361,0.09743411593967014]]]",2,"[40,51]",,,,,,,,,,,,,,driveway7.jpg,space,3.414,0,14,14,37,1,dining_car.jpg,driveway4.jpg,dinosaur4.jpg,citystreet9.jpg,,
Image_List_4,,,,,,,,,,,,,,,,46466,2022-03-14_15h07.11.909,analogCatScenes,2020.1.3,MacIntel,60,"[1440,900]","[[[0.0026021999782986113,-0.19718899197048612],[0.0026021999782986113,-0.19718899197048612],[0.0026021999782986113,-0.19718899197048612],[0.0026021999782986113,-0.19718899197048612],[0.0026021999782986113,-0.19718899197048612],[0.0026021999782986113,-0.19718899197048612],[0.0026021999782986113,-0.1928308783637153],[0.0026021999782986113,-0.18400105794270832],[0.002130194769965278,-0.1767001681857639],[-0.0005088975694444444,-0.1677459038628472],[-0.0034269883897569443,-0.15553941514756944],[-0.006910129123263889,-0.1433327907986111],[-0.009580010308159722,-0.13372111002604167],[-0.011840006510416667,-0.12242099338107638],[-0.014131062825520834,-0.11021443684895833],[-0.01570217556423611,-0.10191786024305556],[-0.01677008734809028,-0.09381049262152778],[-0.0182171630859375,-0.08713996039496527],[-0.0193524169921875,-0.08411092122395833],[-0.020426432291666668,-0.08050950792100695],[-0.0207440185546875,-0.07882907443576388],[-0.021030748155381945,-0.0779071044921875],[-0.021317545572916666,-0.07698513454861111],[-0.02163479275173611,-0.07606377495659722],[-0.021921590169270835,-0.07514180501302083],[-0.022239176432291667,-0.07346137152777778],[-0.02258761935763889,-0.07178087022569445],[-0.022905205620659723,-0.07051140679253472],[-0.022905205620659723,-0.06993781195746528],[-0.022905205620659723,-0.06936455620659722],[-0.022905205620659723,-0.06803253173828125],[-0.022905205620659723,-0.06803253173828125]],[[0.007458767361111111,-0.19620374891493056],[0.007458767361111111,-0.19620374891493056],[0.007458767361111111,-0.19620374891493056],[0.007458767361111111,-0.19620374891493056],[0.007458767361111111,-0.19620374891493056],[0.007458767361111111,-0.19620374891493056],[0.008239678276909723,-0.19620374891493056],[0.014187893337673611,-0.19620374891493056],[0.02151611328125,-0.19620374891493056],[0.043168606228298614,-0.19620374891493056],[0.07253797743055555,-0.19535841200086806],[0.10913560655381944,-0.19266608344184027],[0.139849853515625,-0.19182074652777778],[0.16067620171440972,-0.19182074652777778],[0.18125922309027778,-0.19182074652777778],[0.19630011664496527,-0.19182074652777778],[0.20675604926215277,-0.19069078233506945],[0.2163677978515625,-0.18855482313368055],[0.22499620225694444,-0.1845053439670139],[0.23210028754340278,-0.17994730631510417],[0.23713792588975693,-0.17582282172309027],[0.2417034912109375,-0.17122626410590278],[0.2451955837673611,-0.16773423936631945],[0.2487242974175347,-0.1633232964409722],[0.2524698215060764,-0.15775146484375],[0.25429606119791665,-0.15180067274305556],[0.2569350179036458,-0.14212666829427084],[0.25997762044270833,-0.1287641059027778],[0.26236178927951387,-0.11565104166666666],[0.2633356391059028,-0.10820576985677083],[0.26386962890625,-0.10011467827690972],[0.26386962890625,-0.09483127170138889],[0.26386962890625,-0.09013624403211806],[0.26386962890625,-0.08710191514756944],[0.26386962890625,-0.08390428331163194],[0.26386962890625,-0.08263671875],[0.26386962890625,-0.08234998914930555],[0.26386962890625,-0.08207838270399305],[0.26386962890625,-0.08207838270399305],[0.26386962890625,-0.08207838270399305],[0.26386962890625,-0.08207838270399305],[0.26386962890625,-0.08207838270399305]]]",2,"[32,42]",,,,,,,,,,,,,,baywindow5.jpg,space,3.03,0,15,15,11,1,backyard2.jpg,basketballcourt4.jpg,bambooforest3.jpg,backyard1.jpg,,
Image_List_4,,,,,,,,,,,,,,,,46466,2022-03-14_15h07.11.909,analogCatScenes,2020.1.3,MacIntel,60,"[1440,900]","[[[0.007732883029513889,-0.19584621853298612],[0.007732883029513889,-0.19584621853298612],[0.007732883029513889,-0.19584621853298612],[0.007732883029513889,-0.19584621853298612],[0.007732883029513889,-0.19584621853298612],[0.0108984375,-0.19584621853298612],[0.01969265407986111,-0.19478617350260416],[0.04090237087673611,-0.18811360677083333],[0.08147908528645834,-0.17584038628472223],[0.12931660970052083,-0.15956068250868055],[0.17716206868489584,-0.14124294704861112],[0.20603312174479166,-0.12752794053819444],[0.23975572374131945,-0.11143853081597223],[0.24871697319878472,-0.10661322699652778],[0.25997083875868054,-0.0963629150390625],[0.2646731228298611,-0.09072014702690973],[0.26624735514322917,-0.08716145833333333],[0.2672607421875,-0.08501017252604166],[0.2678959147135417,-0.08373982747395833],[0.26846944173177084,-0.08316623263888889],[0.26846944173177084,-0.08288031684027777],[0.26846944173177084,-0.082613525390625],[0.26846944173177084,-0.082613525390625],[0.26846944173177084,-0.082613525390625],[0.26846944173177084,-0.082613525390625]],[[-0.0018508572048611112,-0.2038595241970486],[-0.0018508572048611112,-0.2038595241970486],[-0.0018508572048611112,-0.2038595241970486],[-0.0018508572048611112,-0.2038595241970486],[-0.0018508572048611112,-0.2038595241970486],[-0.0018508572048611112,-0.2038595241970486],[-0.0018508572048611112,-0.2038595241970486],[-0.006197102864583333,-0.2038595241970486],[-0.014245062934027778,-0.20687750922309028],[-0.024700995551215278,-0.21073947482638888],[-0.04162570529513889,-0.21769599066840278],[-0.06688686794704861,-0.22534681532118056],[-0.09093953450520834,-0.23211154513888888],[-0.1089529758029514,-0.23497626410590278],[-0.13048305935329862,-0.23783989800347222],[-0.14735792371961806,-0.23849806043836805],[-0.1678335910373264,-0.23908949110243055],[-0.1782895236545139,-0.23908949110243055],[-0.18787068684895833,-0.23908949110243055],[-0.19748243543836805,-0.23908949110243055],[-0.20709418402777777,-0.240157470703125],[-0.21586798773871527,-0.240157470703125],[-0.22303521050347222,-0.240157470703125],[-0.23036336263020835,-0.23968546549479167],[-0.2369374254014757,-0.2373400200737847],[-0.24497049967447918,-0.23432766384548612],[-0.2510248141818576,-0.23200602213541666],[-0.2576953464084201,-0.22917371961805555],[-0.2623927815755208,-0.22661994086371529],[-0.2658205159505208,-0.22322584364149306],[-0.26859910753038196,-0.22044725206163193],[-0.26999281141493053,-0.21835673014322918],[-0.27094557020399307,-0.21711717393663194],[-0.27094557020399307,-0.21711717393663194],[-0.27094557020399307,-0.21711717393663194],[-0.27094557020399307,-0.21711717393663194],[-0.27094557020399307,-0.21711717393663194]]]",2,"[25,37]",,,,,,,,,,,,,,lab5.jpg,space,3.1653,0,16,16,64,1,igloo2.jpg,newsstand5.jpg,jewelrystore8.jpg,homegarage2.jpg,,
Image_List_4,,,,,,,,,,,,,,,,46466,2022-03-14_15h07.11.909,analogCatScenes,2020.1.3,MacIntel,60,"[1440,900]","[[[-0.010470106336805556,-0.19695407443576388],[-0.010470106336805556,-0.19695407443576388],[-0.010470106336805556,-0.19695407443576388],[-0.010470106336805556,-0.19695407443576388],[-0.010470106336805556,-0.19695407443576388],[-0.010470106336805556,-0.19695407443576388],[-0.010470106336805556,-0.19695407443576388],[-0.013037855360243055,-0.19695407443576388],[-0.020366007486979167,-0.19594807942708334],[-0.031728379991319444,-0.19481804741753472],[-0.05968994140625,-0.19002733018663195],[-0.09181199815538195,-0.18157416449652777],[-0.1259991455078125,-0.17105509440104166],[-0.14773939344618056,-0.1615289306640625],[-0.16838026258680555,-0.15050360785590278],[-0.17701158311631945,-0.143753662109375],[-0.18448737250434027,-0.13681186252170138],[-0.18935655381944444,-0.13040215386284723],[-0.1927850341796875,-0.12461310492621527],[-0.19574110243055556,-0.11728488498263889],[-0.1969098578559028,-0.11371683756510417],[-0.19801683213975693,-0.11010911729600695],[-0.19801683213975693,-0.10982231987847223],[-0.19801683213975693,-0.10982231987847223],[-0.19801683213975693,-0.10982231987847223]],[[0.0052862548828125,-0.1954721408420139],[0.0052862548828125,-0.1954721408420139],[0.0052862548828125,-0.1954721408420139],[0.0052862548828125,-0.1954721408420139],[0.0052862548828125,-0.1954721408420139],[0.005543958875868056,-0.1954721408420139],[0.012872178819444444,-0.1954721408420139],[0.022546183268229165,-0.1954721408420139],[0.05047200520833333,-0.1954721408420139],[0.07405843098958333,-0.19209086100260417],[0.1047409396701389,-0.1846480984157986],[0.12970404730902776,-0.17084581163194446],[0.1430312771267361,-0.1606972927517361],[0.15181084526909722,-0.14815497504340278],[0.1613534884982639,-0.1271017795138889],[0.16809115939670138,-0.10955268012152777],[0.1742951117621528,-0.09025146484375],[0.17795220269097223,-0.07585469563802083],[0.1830935329861111,-0.05977261013454861],[0.1846335177951389,-0.05166252983940972],[0.1861690945095486,-0.043572184244791666],[0.18660739474826388,-0.03889139811197917],[0.18660739474826388,-0.036328938802083335],[0.18660739474826388,-0.03540696885850694],[0.18660739474826388,-0.03540696885850694]]]",2,"[25,25]",,,,,,,,,,,,,,cemetery.jpg,space,2.7144,0,17,17,22,1,bowlingalley5.jpg,church6.jpg,cargo5.jpg,bistrooutdoor6.jpg,,
Image_List_4,,,,,,,,,,,,,,,,46466,2022-03-14_15h07.11.909,analogCatScenes,2020.1.3,MacIntel,60,"[1440,900]","[[[0.006749810112847222,-0.19712754991319445],[0.006749810112847222,-0.19712754991319445],[0.006749810112847222,-0.19712754991319445],[0.006749810112847222,-0.19712754991319445],[0.006749810112847222,-0.19712754991319445],[0.010118408203125,-0.19712754991319445],[0.014814724392361112,-0.19671766493055556],[0.027395426432291668,-0.19373704698350694],[0.04832071940104166,-0.18578050401475693],[0.0728725857204861,-0.17732523600260416],[0.09179673936631945,-0.16880174424913194],[0.10865648057725695,-0.16005832248263888],[0.12366672092013889,-0.14927761501736111],[0.13775946723090277,-0.13358751085069445],[0.14387593587239583,-0.1216650390625],[0.15045457628038195,-0.10456047905815972],[0.15349690755208334,-0.09047858344184027],[0.15647711859809027,-0.07736558702256945],[0.15817023383246528,-0.06608462863498264],[0.15977213541666666,-0.05647288004557292],[0.1603061252170139,-0.0468611314561632],[0.1603061252170139,-0.03886783175998264],[0.1603061252170139,-0.030866156684027778],[0.1603061252170139,-0.027831827799479167],[0.15995768229166665,-0.026499769422743055],[0.15967095269097223,-0.02592624240451389],[0.15909749348958332,-0.02592624240451389],[0.15909749348958332,-0.02592624240451389]],[[-0.006484646267361111,-0.19285603841145835],[-0.006484646267361111,-0.19285603841145835],[-0.006484646267361111,-0.19285603841145835],[-0.006484646267361111,-0.19285603841145835],[-0.006484646267361111,-0.19285603841145835],[-0.006484646267361111,-0.19285603841145835],[-0.006484646267361111,-0.19285603841145835],[-0.007531670464409722,-0.19285603841145835],[-0.016361558702256945,-0.1939239501953125],[-0.027723931206597222,-0.19671800401475695],[-0.04083502875434028,-0.1996978759765625],[-0.06745171440972222,-0.20517774793836804],[-0.09677442762586806,-0.20686347113715278],[-0.12339111328125,-0.20686347113715278],[-0.14878472222222222,-0.19815809461805556],[-0.16509270562065972,-0.1909743923611111],[-0.17732428656684027,-0.1836043972439236],[-0.1877737087673611,-0.17604207356770835],[-0.19902635362413196,-0.16262803819444444],[-0.20585747612847222,-0.1439223904079861],[-0.20918212890625,-0.12671766493055556],[-0.21331617567274305,-0.10742519802517361],[-0.21781392415364584,-0.09139655219184027],[-0.2204464382595486,-0.08233201768663194],[-0.22408528645833334,-0.06975138346354166],[-0.22558946397569443,-0.0617413330078125],[-0.22609246148003473,-0.05441311306423611],[-0.22609246148003473,-0.049058024088541666],[-0.22609246148003473,-0.04376491970486111],[-0.22609246148003473,-0.0407305908203125],[-0.22609246148003473,-0.038640034993489586],[-0.22609246148003473,-0.03708285861545139],[-0.22609246148003473,-0.03679609510633681],[-0.22609246148003473,-0.03679609510633681],[-0.22609246148003473,-0.03679609510633681],[-0.22609246148003473,-0.03679609510633681],[-0.22609246148003473,-0.03679609510633681],[-0.22609246148003473,-0.03679609510633681],[-0.22609246148003473,-0.03679609510633681],[-0.22609246148003473,-0.03679609510633681]]]",2,"[28,40]",,,,,,,,,,,,,,museum4.jpg,space,3.0979,0,18,18,72,1,museum5.jpg,pharmacy4.jpg,musicStore1.jpg,kindergarten_classroom.jpg,,
Image_List_4,,,,,,,,,,,,,,,,46466,2022-03-14_15h07.11.909,analogCatScenes,2020.1.3,MacIntel,60,"[1440,900]","[[[-0.009947781032986111,-0.1907235378689236],[-0.009947781032986111,-0.1907235378689236],[-0.009947781032986111,-0.1907235378689236],[-0.009947781032986111,-0.1907235378689236],[-0.009947781032986111,-0.1907235378689236],[-0.009947781032986111,-0.1907235378689236],[-0.011969197591145833,-0.1907235378689236],[-0.016666666666666666,-0.1898413764105903],[-0.027727186414930556,-0.184547119140625],[-0.059422471788194445,-0.16544325086805556],[-0.07038228352864584,-0.1576148139105903],[-0.09552992078993056,-0.13665140787760416],[-0.12709676106770834,-0.10179585774739583],[-0.14400702582465277,-0.07949842664930555],[-0.17001383463541667,-0.0403631591796875],[-0.18964314778645833,-0.008211127387152777],[-0.2019363064236111,0.009334581163194444],[-0.21224527994791667,0.026661512586805554],[-0.2175234646267361,0.03401373969184028],[-0.2242487250434028,0.04470126681857639],[-0.226697998046875,0.048783365885416666],[-0.22840047200520833,0.0534808349609375],[-0.22996514214409722,0.05702036539713542],[-0.23160586886935763,0.06112213134765625],[-0.233594970703125,0.06469017876519097],[-0.2355783420138889,0.06784037272135417],[-0.2366544935438368,0.06999274359809028],[-0.2372896999782986,0.0713248019748264],[-0.2372896999782986,0.07195288764105903],[-0.2372896999782986,0.07195288764105903],[-0.2372896999782986,0.07195288764105903]],[[0.004900919596354167,-0.19597412109375],[0.004900919596354167,-0.19597412109375],[0.004900919596354167,-0.19597412109375],[0.004900919596354167,-0.19597412109375],[0.004900919596354167,-0.19597412109375],[0.004900919596354167,-0.19597412109375],[0.004900919596354167,-0.19597412109375],[0.00979824490017361,-0.19597412109375],[0.02025410970052083,-0.19597412109375],[0.04345831976996528,-0.19516038682725695],[0.06954684787326389,-0.1920907931857639],[0.10877848307291667,-0.1894610595703125],[0.1438421630859375,-0.18858445909288193],[0.16702399359809028,-0.18858445909288193],[0.18870096842447917,-0.1871434868706597],[0.197308349609375,-0.18554124620225695],[0.2039788818359375,-0.18365308973524305],[0.20666490342881944,-0.18207411024305556],[0.2079336886935764,-0.1811220974392361],[0.20850728352864584,-0.18083536783854168],[0.20906582302517362,-0.18054857042100694],[0.20933756510416668,-0.18054857042100694],[0.20990919325086804,-0.18054857042100694],[0.2101959228515625,-0.18054857042100694],[0.2101959228515625,-0.18054857042100694]],[[-0.002167697482638889,-0.19407524956597222],[-0.002167697482638889,-0.19407524956597222],[-0.002167697482638889,-0.19407524956597222],[-0.002167697482638889,-0.19407524956597222],[-0.002167697482638889,-0.19407524956597222],[-0.002167697482638889,-0.19407524956597222],[-0.002167697482638889,-0.19407524956597222],[-0.002167697482638889,-0.19407524956597222],[-0.002167697482638889,-0.19041680230034722],[-0.0031061469184027776,-0.1838473849826389],[-0.006403130425347223,-0.17339152018229168],[-0.01264404296875,-0.1532900661892361],[-0.022412855360243056,-0.12398356119791666],[-0.034027642144097224,-0.08829386393229166],[-0.04298136393229167,-0.05169630262586806],[-0.05037421332465278,-0.029517686631944446],[-0.05654717339409722,-0.010153876410590278],[-0.060223253038194445,-0.001199612087673611],[-0.06437120225694444,0.007127244737413194],[-0.06770643446180556,0.013294745551215278],[-0.06981913248697917,0.01799221462673611],[-0.07145982530381945,0.022093980577256943],[-0.07297702365451389,0.026707288953993054],[-0.07364305284288195,0.02838775634765625],[-0.07424716525607639,0.029309217664930557],[-0.07516913519965278,0.02962680392795139],[-0.0757415771484375,0.03019924587673611],[-0.07701009114583333,0.030833502875434026],[-0.07868448893229167,0.03184488932291667],[-0.08036492241753472,0.03285936143663194],[-0.08204542371961805,0.03419138590494792],[-0.08296522352430556,0.03511121961805556],[-0.08325202094184028,0.03568467881944445],[-0.083538818359375,0.03625827365451389],[-0.083538818359375,0.03683074951171875],[-0.083538818359375,0.03775271945529514],[-0.083538818359375,0.03902187771267361],[-0.083538818359375,0.04029222276475695],[-0.08158053927951389,0.04215796576605903],[-0.07559048122829862,0.045655924479166665],[-0.07142673068576388,0.04735846625434028],[-0.06673455132378472,0.049059244791666665],[-0.06371832953559028,0.05019259982638889],[-0.06156595865885417,0.0508894517686632],[-0.06064398871527778,0.05120703803168403],[-0.06007059733072917,0.051493665907118055],[-0.05978379991319444,0.051493665907118055],[-0.059225056966145835,0.051493665907118055],[-0.059225056966145835,0.051493665907118055],[-0.059225056966145835,0.051493665907118055],[-0.059225056966145835,0.051493665907118055],[-0.059225056966145835,0.051493665907118055],[-0.059225056966145835,0.051493665907118055],[-0.059225056966145835,0.051493665907118055]]]",3,"[31,25,54]",,,,,,,,,,,,,,poolhall5.jpg,space,5.7661,0,19,19,80,1,pavilion2.jpg,racecarcourse2.jpg,porch.jpg,parkinggarage4.jpg,,
Image_List_4,,,,,,,,,,,,,,,,46466,2022-03-14_15h07.11.909,analogCatScenes,2020.1.3,MacIntel,60,"[1440,900]","[[[-0.003850640190972222,-0.20495557996961805],[-0.003850640190972222,-0.20495557996961805],[-0.003850640190972222,-0.20495557996961805],[-0.003850640190972222,-0.20495557996961805],[-0.003850640190972222,-0.20495557996961805],[-0.003850640190972222,-0.20495557996961805],[-0.003850640190972222,-0.20495557996961805],[-0.003850640190972222,-0.20495557996961805],[-0.003850640190972222,-0.20495557996961805],[-0.003850640190972222,-0.20495557996961805],[-0.003850640190972222,-0.20495557996961805],[-0.003850640190972222,-0.20495557996961805],[-0.003850640190972222,-0.20495557996961805],[-0.003850640190972222,-0.20495557996961805],[-0.003850640190972222,-0.20495557996961805],[-0.003850640190972222,-0.20495557996961805],[-0.003850640190972222,-0.20495557996961805],[-0.003850640190972222,-0.20495557996961805],[-0.003850640190972222,-0.20495557996961805],[-0.003850640190972222,-0.20495557996961805],[-0.003850640190972222,-0.20495557996961805],[-0.003850640190972222,-0.20495557996961805],[-0.009120076497395834,-0.20495557996961805],[-0.01656161838107639,-0.2045144992404514],[-0.03264370388454861,-0.2012856716579861],[-0.053226793077256945,-0.19705607096354166],[-0.08692423502604167,-0.18997836642795138],[-0.12051710340711806,-0.1822454155815972],[-0.1555807834201389,-0.17347954644097222],[-0.1753228759765625,-0.16917833116319445],[-0.19678229437934028,-0.164886474609375],[-0.21183302137586807,-0.16300516764322917],[-0.219276123046875,-0.16203165690104165],[-0.22588460286458334,-0.161087646484375],[-0.23058200412326388,-0.1593851047092014],[-0.23415008544921875,-0.1578061252170139],[-0.23633290608723959,-0.1559716796875],[-0.23788642035590277,-0.15441813151041667],[-0.23845781114366318,-0.1541335720486111],[-0.23845781114366318,-0.1541335720486111],[-0.23845781114366318,-0.1541335720486111],[-0.23845781114366318,-0.1541335720486111],[-0.23845781114366318,-0.1541335720486111],[-0.23845781114366318,-0.1541335720486111]],[[0.006166449652777778,-0.19592196994357639],[0.006166449652777778,-0.19592196994357639],[0.006166449652777778,-0.19592196994357639],[0.006166449652777778,-0.19592196994357639],[0.006166449652777778,-0.1956644015842014],[0.0081671142578125,-0.1890164523654514],[0.0123150634765625,-0.18018663194444445],[0.01636318630642361,-0.16798000759548612],[0.02300326877170139,-0.14514655219184028],[0.027637939453125,-0.11981187608506945],[0.027637939453125,-0.09709181043836805],[0.027637939453125,-0.07554456922743055],[0.018707614474826387,-0.05755940755208333],[0.010300699869791667,-0.046768256293402775],[0.0037054443359375,-0.038732774522569444],[-0.002392578125,-0.032162679036458336],[-0.006115247938368056,-0.029639723036024305],[-0.008267550998263888,-0.02856357150607639],[-0.009189520941840277,-0.027959187825520832],[-0.009461263020833333,-0.027959187825520832]]]",2,"[44,20]",,,,,,,,,,,,,,appleorchard2.jpg,space,3.1641,0,20,20,3,1,apartmentBuilding2.jpg,attic1.jpg,aquarium1.jpg,alley3.jpg,,
