image_list,key_resp_intructions.keys,key_resp_intructions.rt,key_resp_intructions_3.keys,key_resp_intructions_3.rt,PracticeComplete_2.keys,PracticeComplete_2.rt,PracticeComplete_3.keys,PracticeComplete_3.rt,demo_trials.thisRepN,demo_trials.thisTrialN,demo_trials.thisN,demo_trials.thisIndex,demo_trials.ran,demo_images,path_images,participant,date,expName,psychopyVersion,OS,frameRate,windowSize,drawing,numDrawings,drawingSizes,practice_complete.keys,practice_complete.rt,PracticeComplete.keys,PracticeComplete.rt,practice_trials.thisRepN,practice_trials.thisTrialN,practice_trials.thisN,practice_trials.thisIndex,practice_trials.ran,practice_images,feedback_images,key_resp_intructions_2.keys,key_resp_intructions_2.rt,Image_List_5,trial_complete.keys,trial_complete.rt,trials.thisRepN,trials.thisTrialN,trials.thisN,trials.thisIndex,trials.ran,Image_List_1,Image_List_2,Image_List_3,Image_List_4,key_resp.keys,key_resp.rt
Image_List_5,space,28.773,space,7.087,space,3.037,space,1.686,0,0,0,1,1,ahead_left.jpg,ahead_left_path.jpg,46463,2022-02-03_13h13.47.217,analogCatScenes,2020.1.3,MacIntel,60,,,,,,,,,,,,,,,,,,,,,,,,,,,,,,,
Image_List_5,,,,,space,0.973,space,2.234,0,1,1,3,1,ahead_right_left.jpg,ahead_right_left_path.jpg,46463,2022-02-03_13h13.47.217,analogCatScenes,2020.1.3,MacIntel,60,,,,,,,,,,,,,,,,,,,,,,,,,,,,,,,
Image_List_5,,,,,space,1.151,space,0.665,0,2,2,5,1,right.jpg,right_path.jpg,46463,2022-02-03_13h13.47.217,analogCatScenes,2020.1.3,MacIntel,60,,,,,,,,,,,,,,,,,,,,,,,,,,,,,,,
Image_List_5,,,,,space,0.852,space,1.393,0,3,3,0,1,ahead.jpg,ahead_path.jpg,46463,2022-02-03_13h13.47.217,analogCatScenes,2020.1.3,MacIntel,60,,,,,,,,,,,,,,,,,,,,,,,,,,,,,,,
Image_List_5,,,,,space,0.659,space,0.942,0,4,4,4,1,left.jpg,left_path.jpg,46463,2022-02-03_13h13.47.217,analogCatScenes,2020.1.3,MacIntel,60,,,,,,,,,,,,,,,,,,,,,,,,,,,,,,,
Image_List_5,,,,,space,0.671,space,1.616,0,5,5,6,1,right_left.jpg,right_left_path.jpg,46463,2022-02-03_13h13.47.217,analogCatScenes,2020.1.3,MacIntel,60,,,,,,,,,,,,,,,,,,,,,,,,,,,,,,,
Image_List_5,,,,,space,1.696,space,0.813,0,6,6,2,1,ahead_right.jpg,ahead_right_path.jpg,46463,2022-02-03_13h13.47.217,analogCatScenes,2020.1.3,MacIntel,60,,,,,,,,,,,,,,,,,,,,,,,,,,,,,,,
Image_List_5,,,,,,,,,,,,,,,,46463,2022-02-03_13h13.47.217,analogCatScenes,2020.1.3,MacIntel,60,"[1440,900]",[],0,[],space,0.903,space,1.045,0,0,0,6,1,right_left_2.jpg,right_left_2_path.jpg,,,,,,,,,,,,,,,,
Image_List_5,,,,,,,,,,,,,,,,46463,2022-02-03_13h13.47.217,analogCatScenes,2020.1.3,MacIntel,60,"[1440,900]","[[[0.0044444444444444444,-0.20222222222222222],[0.0044444444444444444,-0.20222222222222222],[0.0044444444444444444,-0.20222222222222222],[0.0044444444444444444,-0.20222222222222222],[0.0044444444444444444,-0.20222222222222222],[0.0044444444444444444,-0.20222222222222222],[0.0044444444444444444,-0.20222222222222222],[0.0044444444444444444,-0.20222222222222222],[0.0044444444444444444,-0.20222222222222222],[0.0044444444444444444,-0.20222222222222222],[0.0044444444444444444,-0.20222222222222222],[0.0044444444444444444,-0.20222222222222222],[0.0044444444444444444,-0.20222222222222222],[0.0044444444444444444,-0.20222222222222222],[0.0022222222222222222,-0.2],[-0.0022222222222222222,-0.19555555555555557],[-0.01,-0.19],[-0.017777777777777778,-0.18222222222222223],[-0.03222222222222222,-0.17],[-0.04,-0.16333333333333333],[-0.04777777777777778,-0.15666666666666668],[-0.052222222222222225,-0.15333333333333332],[-0.057777777777777775,-0.14888888888888888],[-0.06333333333333334,-0.14333333333333334],[-0.06777777777777778,-0.1411111111111111],[-0.07333333333333333,-0.13666666666666666],[-0.07666666666666666,-0.13444444444444445],[-0.0811111111111111,-0.13111111111111112],[-0.08777777777777777,-0.12666666666666668],[-0.09222222222222222,-0.12333333333333334],[-0.09666666666666666,-0.12111111111111111],[-0.1,-0.11888888888888889],[-0.10222222222222223,-0.11666666666666667],[-0.10555555555555556,-0.11444444444444445],[-0.11,-0.11333333333333333],[-0.11555555555555555,-0.1111111111111111],[-0.12333333333333334,-0.10888888888888888],[-0.13,-0.10555555555555556],[-0.14333333333333334,-0.10222222222222223],[-0.15333333333333332,-0.1],[-0.16555555555555557,-0.09777777777777778],[-0.18222222222222223,-0.09444444444444444],[-0.19666666666666666,-0.09],[-0.20555555555555555,-0.08666666666666667],[-0.21333333333333335,-0.08333333333333333],[-0.22,-0.0811111111111111],[-0.22333333333333333,-0.07888888888888888],[-0.22555555555555556,-0.07777777777777778],[-0.22777777777777777,-0.07666666666666666],[-0.2288888888888889,-0.07666666666666666],[-0.2288888888888889,-0.07666666666666666],[-0.23,-0.07555555555555556],[-0.2311111111111111,-0.07555555555555556],[-0.2311111111111111,-0.07555555555555556],[-0.23222222222222222,-0.07555555555555556],[-0.23333333333333334,-0.07555555555555556],[-0.23444444444444446,-0.07444444444444444],[-0.23666666666666666,-0.07444444444444444],[-0.23777777777777778,-0.07444444444444444],[-0.2411111111111111,-0.07333333333333333],[-0.24444444444444444,-0.07333333333333333],[-0.2477777777777778,-0.07222222222222222],[-0.25,-0.07222222222222222],[-0.25222222222222224,-0.07222222222222222],[-0.25333333333333335,-0.07222222222222222],[-0.2544444444444444,-0.07222222222222222],[-0.25555555555555554,-0.07222222222222222],[-0.25555555555555554,-0.07222222222222222],[-0.25666666666666665,-0.07333333333333333],[-0.25666666666666665,-0.07333333333333333],[-0.2588888888888889,-0.07333333333333333],[-0.2588888888888889,-0.07333333333333333],[-0.26,-0.07333333333333333],[-0.26,-0.07333333333333333],[-0.26,-0.07333333333333333],[-0.26,-0.07333333333333333],[-0.2611111111111111,-0.07333333333333333],[-0.26222222222222225,-0.07333333333333333],[-0.2633333333333333,-0.07444444444444444],[-0.26666666666666666,-0.07444444444444444],[-0.2688888888888889,-0.07444444444444444],[-0.27111111111111114,-0.07444444444444444],[-0.27444444444444444,-0.07444444444444444],[-0.2777777777777778,-0.07444444444444444],[-0.28,-0.07444444444444444],[-0.2822222222222222,-0.07444444444444444],[-0.2833333333333333,-0.07444444444444444],[-0.28555555555555556,-0.07444444444444444],[-0.2866666666666667,-0.07444444444444444],[-0.2877777777777778,-0.07333333333333333],[-0.28888888888888886,-0.07333333333333333],[-0.28888888888888886,-0.07333333333333333],[-0.29,-0.07333333333333333],[-0.29,-0.07333333333333333],[-0.29,-0.07333333333333333],[-0.29,-0.07333333333333333],[-0.29,-0.07333333333333333],[-0.29,-0.07333333333333333],[-0.29,-0.07333333333333333],[-0.29,-0.07333333333333333],[-0.29,-0.07333333333333333],[-0.28888888888888886,-0.07333333333333333],[-0.2877777777777778,-0.07444444444444444],[-0.28555555555555556,-0.07444444444444444],[-0.28444444444444444,-0.07444444444444444],[-0.2822222222222222,-0.07444444444444444],[-0.28,-0.07444444444444444],[-0.27666666666666667,-0.07444444444444444],[-0.27111111111111114,-0.07444444444444444],[-0.2644444444444444,-0.07555555555555556],[-0.25,-0.07888888888888888],[-0.23777777777777778,-0.08222222222222222],[-0.22444444444444445,-0.08555555555555555],[-0.2088888888888889,-0.08888888888888889],[-0.19333333333333333,-0.09222222222222222],[-0.17888888888888888,-0.09666666666666666],[-0.16444444444444445,-0.1],[-0.15222222222222223,-0.10333333333333333],[-0.14222222222222222,-0.10666666666666667],[-0.13333333333333333,-0.11],[-0.12444444444444444,-0.11333333333333333],[-0.11,-0.12],[-0.10111111111111111,-0.12444444444444444],[-0.09222222222222222,-0.13],[-0.08555555555555555,-0.13444444444444445],[-0.07777777777777778,-0.14],[-0.07,-0.14444444444444443],[-0.06333333333333334,-0.14888888888888888],[-0.058888888888888886,-0.15222222222222223],[-0.05333333333333334,-0.15555555555555556],[-0.05,-0.15888888888888889],[-0.044444444444444446,-0.1622222222222222],[-0.04111111111111111,-0.16444444444444445],[-0.03777777777777778,-0.16666666666666666],[-0.034444444444444444,-0.1688888888888889],[-0.03,-0.17222222222222222],[-0.027777777777777776,-0.17444444444444446],[-0.025555555555555557,-0.17555555555555555],[-0.023333333333333334,-0.17777777777777778],[-0.021111111111111112,-0.17888888888888888],[-0.02,-0.18],[-0.017777777777777778,-0.18222222222222223],[-0.016666666666666666,-0.18222222222222223],[-0.015555555555555555,-0.18333333333333332],[-0.014444444444444444,-0.18333333333333332],[-0.013333333333333334,-0.18444444444444444],[-0.012222222222222223,-0.18555555555555556],[-0.011111111111111112,-0.18555555555555556],[-0.01,-0.18666666666666668],[-0.01,-0.18666666666666668],[-0.0077777777777777776,-0.18777777777777777],[-0.006666666666666667,-0.18888888888888888],[-0.005555555555555556,-0.19],[-0.0044444444444444444,-0.19111111111111112],[-0.0044444444444444444,-0.19111111111111112],[-0.0033333333333333335,-0.1922222222222222],[-0.0033333333333333335,-0.1922222222222222],[-0.0022222222222222222,-0.19333333333333333],[-0.0022222222222222222,-0.19444444444444445],[-0.0011111111111111111,-0.19444444444444445],[-0.0011111111111111111,-0.19555555555555557],[0,-0.19666666666666666],[0,-0.19666666666666666],[0,-0.19666666666666666],[0,-0.19777777777777777],[0,-0.19777777777777777],[0,-0.19777777777777777],[0,-0.19777777777777777],[0,-0.19777777777777777],[0,-0.19777777777777777],[0,-0.19777777777777777],[0,-0.19777777777777777],[0,-0.19777777777777777],[0,-0.19777777777777777],[0,-0.19777777777777777],[0,-0.19777777777777777],[0,-0.19777777777777777],[0,-0.19777777777777777],[0,-0.19777777777777777],[0,-0.19777777777777777],[0,-0.19777777777777777],[0,-0.19777777777777777],[0,-0.19777777777777777],[0,-0.19777777777777777],[0,-0.19777777777777777],[0,-0.19777777777777777],[0,-0.1988888888888889],[0,-0.1988888888888889],[0,-0.1988888888888889],[0,-0.1988888888888889],[0,-0.1988888888888889],[0,-0.1988888888888889],[0,-0.1988888888888889]],[[0.0033333333333333335,-0.2088888888888889],[0.0033333333333333335,-0.2088888888888889],[0.0033333333333333335,-0.2088888888888889],[0.0033333333333333335,-0.2088888888888889],[0.0033333333333333335,-0.2088888888888889],[0.0033333333333333335,-0.2088888888888889],[0.0033333333333333335,-0.2088888888888889],[0.0033333333333333335,-0.2088888888888889],[0.0033333333333333335,-0.2088888888888889],[0.0033333333333333335,-0.2088888888888889],[0.0033333333333333335,-0.2088888888888889],[0.0033333333333333335,-0.2088888888888889],[0.0033333333333333335,-0.2088888888888889],[0.0033333333333333335,-0.2088888888888889],[0.0033333333333333335,-0.2088888888888889],[0.005555555555555556,-0.20444444444444446],[0.0077777777777777776,-0.2],[0.013333333333333334,-0.19444444444444445],[0.017777777777777778,-0.18888888888888888],[0.023333333333333334,-0.18222222222222223],[0.03,-0.17666666666666667],[0.03333333333333333,-0.17222222222222222],[0.03777777777777778,-0.16777777777777778],[0.043333333333333335,-0.16111111111111112],[0.04555555555555556,-0.15777777777777777],[0.052222222222222225,-0.15222222222222223],[0.05555555555555555,-0.14777777777777779],[0.058888888888888886,-0.14444444444444443],[0.06222222222222222,-0.1411111111111111],[0.06444444444444444,-0.13777777777777778],[0.06777777777777778,-0.13444444444444445],[0.07,-0.13111111111111112],[0.07222222222222222,-0.1288888888888889],[0.07555555555555556,-0.12666666666666668],[0.07777777777777778,-0.12333333333333334],[0.08222222222222222,-0.12],[0.08555555555555555,-0.11666666666666667],[0.08888888888888889,-0.11333333333333333],[0.09333333333333334,-0.11],[0.09888888888888889,-0.10555555555555556],[0.10333333333333333,-0.1],[0.10888888888888888,-0.09444444444444444],[0.11555555555555555,-0.08888888888888889],[0.12111111111111111,-0.08444444444444445],[0.1288888888888889,-0.08],[0.13444444444444445,-0.07555555555555556],[0.1411111111111111,-0.07111111111111111],[0.14444444444444443,-0.06888888888888889],[0.14777777777777779,-0.06666666666666667],[0.1511111111111111,-0.06444444444444444],[0.15444444444444444,-0.06333333333333334],[0.15555555555555556,-0.06222222222222222],[0.15888888888888889,-0.06111111111111111],[0.16,-0.06],[0.1622222222222222,-0.058888888888888886],[0.16333333333333333,-0.057777777777777775],[0.16444444444444445,-0.057777777777777775],[0.16555555555555557,-0.056666666666666664],[0.16555555555555557,-0.056666666666666664],[0.16666666666666666,-0.056666666666666664],[0.16666666666666666,-0.056666666666666664],[0.16666666666666666,-0.056666666666666664],[0.16666666666666666,-0.056666666666666664],[0.16666666666666666,-0.056666666666666664],[0.16666666666666666,-0.056666666666666664],[0.16666666666666666,-0.056666666666666664],[0.16666666666666666,-0.056666666666666664],[0.16666666666666666,-0.056666666666666664],[0.16666666666666666,-0.05555555555555555],[0.16777777777777778,-0.05555555555555555],[0.16777777777777778,-0.05555555555555555],[0.16777777777777778,-0.05555555555555555],[0.16777777777777778,-0.05555555555555555],[0.16777777777777778,-0.05555555555555555],[0.16777777777777778,-0.05555555555555555],[0.16777777777777778,-0.05555555555555555],[0.16777777777777778,-0.05555555555555555],[0.16777777777777778,-0.05555555555555555],[0.16777777777777778,-0.05555555555555555],[0.16777777777777778,-0.05555555555555555],[0.16777777777777778,-0.05555555555555555],[0.16777777777777778,-0.05555555555555555],[0.1688888888888889,-0.05555555555555555],[0.1688888888888889,-0.05555555555555555],[0.17,-0.05444444444444444],[0.17,-0.05444444444444444],[0.17222222222222222,-0.05333333333333334],[0.17444444444444446,-0.052222222222222225],[0.17555555555555555,-0.051111111111111114],[0.17777777777777778,-0.051111111111111114],[0.17888888888888888,-0.051111111111111114],[0.17888888888888888,-0.05],[0.18,-0.05],[0.18,-0.05],[0.1811111111111111,-0.05],[0.1811111111111111,-0.05],[0.18222222222222223,-0.04888888888888889],[0.18222222222222223,-0.04888888888888889],[0.18222222222222223,-0.04888888888888889],[0.18222222222222223,-0.04888888888888889],[0.18222222222222223,-0.04888888888888889],[0.18222222222222223,-0.04888888888888889],[0.18222222222222223,-0.04888888888888889],[0.18222222222222223,-0.04888888888888889],[0.18222222222222223,-0.04888888888888889],[0.18222222222222223,-0.04888888888888889],[0.18222222222222223,-0.04888888888888889],[0.18222222222222223,-0.04888888888888889],[0.18222222222222223,-0.04888888888888889],[0.18222222222222223,-0.04888888888888889],[0.18222222222222223,-0.04888888888888889],[0.18222222222222223,-0.04888888888888889],[0.18222222222222223,-0.04888888888888889],[0.18222222222222223,-0.04888888888888889],[0.18222222222222223,-0.04888888888888889],[0.18222222222222223,-0.04888888888888889],[0.18222222222222223,-0.04888888888888889],[0.18222222222222223,-0.04888888888888889]]]",2,"[193,118]",space,17.718,space,2.13,0,1,1,3,1,ahead_right_left_2.jpg,ahead_right_left_2_path.jpg,,,,,,,,,,,,,,,,
Image_List_5,,,,,,,,,,,,,,,,46463,2022-02-03_13h13.47.217,analogCatScenes,2020.1.3,MacIntel,60,"[1440,900]","[[[0.006666666666666667,-0.1988888888888889],[0.006666666666666667,-0.1988888888888889],[0.006666666666666667,-0.1988888888888889],[0.006666666666666667,-0.1988888888888889],[0.006666666666666667,-0.1988888888888889],[0.006666666666666667,-0.1988888888888889],[0.006666666666666667,-0.1988888888888889],[0.006666666666666667,-0.1988888888888889],[0.006666666666666667,-0.1988888888888889],[0.006666666666666667,-0.1988888888888889],[0.006666666666666667,-0.19777777777777777],[0.006666666666666667,-0.1922222222222222],[0.006666666666666667,-0.18222222222222223],[0.006666666666666667,-0.16666666666666666],[0.006666666666666667,-0.14555555555555555],[0.006666666666666667,-0.13333333333333333],[0.006666666666666667,-0.1111111111111111],[0.0033333333333333335,-0.09222222222222222],[-0.0033333333333333335,-0.07],[-0.01,-0.05444444444444444],[-0.017777777777777778,-0.042222222222222223],[-0.025555555555555557,-0.03222222222222222],[-0.03333333333333333,-0.024444444444444446],[-0.05,-0.011111111111111112],[-0.06888888888888889,0.0033333333333333335],[-0.09444444444444444,0.024444444444444446],[-0.11,0.03777777777777778],[-0.12333333333333334,0.05],[-0.13333333333333333,0.056666666666666664],[-0.14222222222222222,0.06333333333333334],[-0.15,0.06888888888888889],[-0.15777777777777777,0.07333333333333333],[-0.16333333333333333,0.07666666666666666],[-0.1688888888888889,0.08],[-0.17555555555555555,0.08444444444444445],[-0.18222222222222223,0.09],[-0.18666666666666668,0.09333333333333334],[-0.18888888888888888,0.09555555555555556],[-0.19111111111111112,0.09777777777777778],[-0.1922222222222222,0.09888888888888889],[-0.19333333333333333,0.1],[-0.19444444444444445,0.10111111111111111],[-0.19555555555555557,0.10111111111111111],[-0.19555555555555557,0.10222222222222223],[-0.19666666666666666,0.10222222222222223],[-0.19777777777777777,0.10222222222222223],[-0.2,0.10333333333333333],[-0.20222222222222222,0.10333333333333333],[-0.20333333333333334,0.10333333333333333],[-0.20555555555555555,0.10444444444444445],[-0.20666666666666667,0.10555555555555556],[-0.2088888888888889,0.10666666666666667],[-0.21,0.10666666666666667],[-0.21222222222222223,0.10777777777777778],[-0.21444444444444444,0.10888888888888888],[-0.21555555555555556,0.11],[-0.21888888888888888,0.1111111111111111],[-0.22111111111111112,0.11222222222222222],[-0.22333333333333333,0.11333333333333333],[-0.22333333333333333,0.11444444444444445],[-0.22555555555555556,0.11555555555555555],[-0.22555555555555556,0.11666666666666667],[-0.22555555555555556,0.11666666666666667],[-0.22666666666666666,0.11666666666666667],[-0.22666666666666666,0.11777777777777777],[-0.22666666666666666,0.11777777777777777],[-0.22666666666666666,0.11777777777777777],[-0.22666666666666666,0.11777777777777777],[-0.22666666666666666,0.11777777777777777],[-0.22666666666666666,0.11777777777777777],[-0.22666666666666666,0.11777777777777777],[-0.22666666666666666,0.11777777777777777],[-0.22666666666666666,0.11777777777777777],[-0.22666666666666666,0.11777777777777777],[-0.22666666666666666,0.11777777777777777],[-0.22666666666666666,0.11777777777777777],[-0.22666666666666666,0.11777777777777777],[-0.22666666666666666,0.11777777777777777],[-0.22666666666666666,0.11777777777777777],[-0.22666666666666666,0.11777777777777777],[-0.22666666666666666,0.11777777777777777],[-0.22666666666666666,0.11777777777777777],[-0.22666666666666666,0.11777777777777777],[-0.22555555555555556,0.11777777777777777],[-0.22555555555555556,0.11777777777777777],[-0.22555555555555556,0.11777777777777777],[-0.22555555555555556,0.11666666666666667],[-0.22555555555555556,0.11666666666666667],[-0.22555555555555556,0.11666666666666667],[-0.22555555555555556,0.11666666666666667],[-0.22555555555555556,0.11666666666666667],[-0.22555555555555556,0.11666666666666667],[-0.22555555555555556,0.11666666666666667],[-0.22555555555555556,0.11666666666666667],[-0.22555555555555556,0.11666666666666667],[-0.22555555555555556,0.11666666666666667],[-0.22555555555555556,0.11666666666666667],[-0.22555555555555556,0.11666666666666667],[-0.22555555555555556,0.11666666666666667],[-0.22555555555555556,0.11666666666666667],[-0.22555555555555556,0.11666666666666667],[-0.22555555555555556,0.11666666666666667],[-0.22555555555555556,0.11666666666666667],[-0.22555555555555556,0.11666666666666667],[-0.22555555555555556,0.11666666666666667],[-0.22555555555555556,0.11666666666666667],[-0.22555555555555556,0.11666666666666667],[-0.22555555555555556,0.11555555555555555],[-0.22555555555555556,0.11555555555555555],[-0.22555555555555556,0.11555555555555555],[-0.22555555555555556,0.11555555555555555],[-0.22555555555555556,0.11555555555555555],[-0.22555555555555556,0.11555555555555555],[-0.22555555555555556,0.11555555555555555],[-0.22555555555555556,0.11555555555555555],[-0.22555555555555556,0.11555555555555555],[-0.22555555555555556,0.11555555555555555],[-0.22555555555555556,0.11555555555555555],[-0.22555555555555556,0.11555555555555555],[-0.22555555555555556,0.11555555555555555],[-0.22555555555555556,0.11555555555555555],[-0.22555555555555556,0.11555555555555555],[-0.22555555555555556,0.11555555555555555],[-0.22555555555555556,0.11555555555555555],[-0.22555555555555556,0.11555555555555555],[-0.22555555555555556,0.11555555555555555],[-0.22555555555555556,0.11555555555555555],[-0.22555555555555556,0.11555555555555555],[-0.22555555555555556,0.11555555555555555],[-0.22555555555555556,0.11555555555555555],[-0.22555555555555556,0.11555555555555555],[-0.22555555555555556,0.11555555555555555],[-0.22555555555555556,0.11555555555555555],[-0.22555555555555556,0.11555555555555555],[-0.22555555555555556,0.11555555555555555],[-0.22555555555555556,0.11555555555555555],[-0.22555555555555556,0.11555555555555555],[-0.22555555555555556,0.11555555555555555],[-0.22555555555555556,0.11555555555555555],[-0.22555555555555556,0.11555555555555555],[-0.22555555555555556,0.11555555555555555],[-0.22555555555555556,0.11555555555555555],[-0.22555555555555556,0.11555555555555555],[-0.22555555555555556,0.11555555555555555],[-0.22555555555555556,0.11555555555555555],[-0.22555555555555556,0.11555555555555555],[-0.22555555555555556,0.11555555555555555],[-0.22444444444444445,0.11555555555555555],[-0.22333333333333333,0.11555555555555555],[-0.21777777777777776,0.1111111111111111]]]",1,[150],space,4.762,space,1.211,0,2,2,4,1,left_2.jpg,left_2_path.jpg,,,,,,,,,,,,,,,,
Image_List_5,,,,,,,,,,,,,,,,46463,2022-02-03_13h13.47.217,analogCatScenes,2020.1.3,MacIntel,60,"[1440,900]","[[[0.0044444444444444444,-0.19333333333333333],[0.0044444444444444444,-0.19333333333333333],[0.0044444444444444444,-0.19333333333333333],[0.0044444444444444444,-0.19333333333333333],[0.0044444444444444444,-0.19333333333333333],[0.0044444444444444444,-0.19333333333333333],[0.0044444444444444444,-0.19333333333333333],[0.0044444444444444444,-0.19333333333333333],[0.0044444444444444444,-0.19333333333333333],[0.011111111111111112,-0.18888888888888888],[0.017777777777777778,-0.18333333333333332],[0.02666666666666667,-0.17555555555555555],[0.03666666666666667,-0.16666666666666666],[0.04777777777777778,-0.15777777777777777],[0.057777777777777775,-0.15],[0.06666666666666667,-0.14222222222222222],[0.07444444444444444,-0.13555555555555557],[0.08222222222222222,-0.1288888888888889],[0.08777777777777777,-0.12444444444444444],[0.09777777777777778,-0.11555555555555555],[0.10444444444444445,-0.10888888888888888],[0.12222222222222222,-0.09222222222222222],[0.13333333333333333,-0.08222222222222222],[0.14444444444444443,-0.07333333333333333],[0.15333333333333332,-0.06555555555555556],[0.16111111111111112,-0.06],[0.17,-0.05333333333333334],[0.18,-0.04777777777777778],[0.18555555555555556,-0.044444444444444446],[0.1922222222222222,-0.04],[0.2,-0.034444444444444444],[0.20333333333333334,-0.03333333333333333],[0.2111111111111111,-0.028888888888888888],[0.21777777777777776,-0.025555555555555557],[0.2222222222222222,-0.023333333333333334],[0.23,-0.02],[0.23444444444444446,-0.017777777777777778],[0.2388888888888889,-0.015555555555555555],[0.24444444444444444,-0.012222222222222223],[0.25333333333333335,-0.01],[0.2644444444444444,-0.0044444444444444444],[0.2733333333333333,-0.0022222222222222222],[0.2833333333333333,0.0022222222222222222],[0.28888888888888886,0.0044444444444444444],[0.29444444444444445,0.006666666666666667],[0.29777777777777775,0.006666666666666667],[0.29888888888888887,0.0077777777777777776],[0.3011111111111111,0.0077777777777777776],[0.3022222222222222,0.008888888888888889],[0.30444444444444446,0.008888888888888889],[0.30777777777777776,0.01],[0.31,0.011111111111111112],[0.3111111111111111,0.011111111111111112],[0.31333333333333335,0.012222222222222223],[0.31333333333333335,0.012222222222222223],[0.31444444444444447,0.012222222222222223],[0.31444444444444447,0.012222222222222223],[0.31444444444444447,0.012222222222222223],[0.31555555555555553,0.013333333333333334],[0.31555555555555553,0.013333333333333334],[0.31555555555555553,0.013333333333333334],[0.31666666666666665,0.014444444444444444],[0.31777777777777777,0.014444444444444444],[0.31777777777777777,0.014444444444444444],[0.31777777777777777,0.014444444444444444],[0.3188888888888889,0.014444444444444444],[0.3188888888888889,0.014444444444444444],[0.3188888888888889,0.014444444444444444],[0.3188888888888889,0.014444444444444444],[0.32,0.015555555555555555],[0.3211111111111111,0.015555555555555555],[0.3211111111111111,0.015555555555555555],[0.32222222222222224,0.015555555555555555],[0.3233333333333333,0.015555555555555555],[0.3233333333333333,0.015555555555555555],[0.3233333333333333,0.015555555555555555],[0.3233333333333333,0.015555555555555555],[0.3233333333333333,0.015555555555555555],[0.3233333333333333,0.015555555555555555],[0.3233333333333333,0.015555555555555555],[0.3233333333333333,0.015555555555555555],[0.3233333333333333,0.015555555555555555],[0.3233333333333333,0.015555555555555555],[0.3233333333333333,0.015555555555555555],[0.3233333333333333,0.015555555555555555],[0.3233333333333333,0.015555555555555555],[0.3233333333333333,0.015555555555555555],[0.3233333333333333,0.015555555555555555],[0.3233333333333333,0.016666666666666666]]]",1,[89],space,4.089,space,0.878,0,3,3,5,1,right_2.jpg,right_2_path.jpg,,,,,,,,,,,,,,,,
Image_List_5,,,,,,,,,,,,,,,,46463,2022-02-03_13h13.47.217,analogCatScenes,2020.1.3,MacIntel,60,"[1440,900]","[[[0.0077777777777777776,-0.19777777777777777],[0.0077777777777777776,-0.19777777777777777],[0.0077777777777777776,-0.19777777777777777],[0.0077777777777777776,-0.19777777777777777],[0.0077777777777777776,-0.19777777777777777],[0.0077777777777777776,-0.19777777777777777],[0.0077777777777777776,-0.19444444444444445],[0.0077777777777777776,-0.18222222222222223],[0.0077777777777777776,-0.16444444444444445],[0.0077777777777777776,-0.15],[0.0077777777777777776,-0.1322222222222222],[0.0077777777777777776,-0.10777777777777778],[0.0077777777777777776,-0.08555555555555555],[0.0077777777777777776,-0.06555555555555556],[0.0077777777777777776,-0.04777777777777778],[0.0077777777777777776,-0.034444444444444444],[0.0077777777777777776,-0.023333333333333334],[0.0077777777777777776,-0.016666666666666666],[0.0077777777777777776,-0.011111111111111112],[0.0077777777777777776,-0.0044444444444444444],[0.008888888888888889,0.0044444444444444444],[0.011111111111111112,0.016666666666666666],[0.013333333333333334,0.023333333333333334],[0.016666666666666666,0.03],[0.01888888888888889,0.034444444444444444],[0.022222222222222223,0.04111111111111111],[0.024444444444444446,0.04666666666666667],[0.02666666666666667,0.05333333333333334],[0.027777777777777776,0.057777777777777775],[0.03,0.06222222222222222],[0.03111111111111111,0.06888888888888889],[0.03333333333333333,0.07444444444444444],[0.035555555555555556,0.08333333333333333],[0.035555555555555556,0.08888888888888889],[0.03666666666666667,0.09444444444444444],[0.03666666666666667,0.1],[0.03666666666666667,0.10777777777777778],[0.03666666666666667,0.11222222222222222],[0.03666666666666667,0.11555555555555555],[0.035555555555555556,0.11888888888888889],[0.035555555555555556,0.12],[0.035555555555555556,0.12222222222222222],[0.035555555555555556,0.12333333333333334],[0.035555555555555556,0.12666666666666668],[0.035555555555555556,0.12777777777777777],[0.03666666666666667,0.1288888888888889],[0.03777777777777778,0.13],[0.03888888888888889,0.13111111111111112],[0.04,0.1322222222222222],[0.04111111111111111,0.1322222222222222],[0.042222222222222223,0.13333333333333333],[0.042222222222222223,0.13333333333333333],[0.042222222222222223,0.13333333333333333],[0.042222222222222223,0.13333333333333333],[0.042222222222222223,0.13333333333333333],[0.042222222222222223,0.13333333333333333],[0.043333333333333335,0.13333333333333333],[0.043333333333333335,0.13333333333333333],[0.043333333333333335,0.13333333333333333],[0.043333333333333335,0.13333333333333333],[0.043333333333333335,0.13333333333333333],[0.044444444444444446,0.13333333333333333],[0.044444444444444446,0.13333333333333333],[0.04555555555555556,0.13333333333333333],[0.04555555555555556,0.13333333333333333],[0.04555555555555556,0.13333333333333333],[0.04555555555555556,0.13333333333333333],[0.04555555555555556,0.13333333333333333],[0.04555555555555556,0.13333333333333333],[0.04555555555555556,0.13333333333333333],[0.04555555555555556,0.13333333333333333],[0.04555555555555556,0.13333333333333333],[0.04555555555555556,0.13333333333333333],[0.04555555555555556,0.13333333333333333],[0.04555555555555556,0.13333333333333333],[0.043333333333333335,0.13444444444444445],[0.043333333333333335,0.13444444444444445],[0.043333333333333335,0.13444444444444445],[0.043333333333333335,0.13555555555555557],[0.043333333333333335,0.1388888888888889],[0.043333333333333335,0.14444444444444443],[0.043333333333333335,0.1511111111111111],[0.044444444444444446,0.16],[0.04777777777777778,0.1688888888888889],[0.052222222222222225,0.1811111111111111],[0.05444444444444444,0.18777777777777777],[0.05555555555555555,0.19444444444444445],[0.056666666666666664,0.2],[0.057777777777777775,0.20444444444444446],[0.058888888888888886,0.2088888888888889],[0.058888888888888886,0.21333333333333335],[0.06,0.21555555555555556],[0.06,0.21777777777777776],[0.06,0.21888888888888888],[0.06,0.22],[0.06,0.22],[0.06,0.22],[0.06,0.22],[0.06,0.22],[0.06,0.22],[0.06,0.22],[0.06,0.22],[0.06,0.22],[0.06,0.22],[0.06,0.22],[0.06,0.22],[0.06,0.22],[0.06111111111111111,0.22],[0.06111111111111111,0.22]]]",1,[109],space,5.351,space,0.971,0,4,4,1,1,ahead_left_2.jpg,ahead_left_2_path.jpg,,,,,,,,,,,,,,,,
Image_List_5,,,,,,,,,,,,,,,,46463,2022-02-03_13h13.47.217,analogCatScenes,2020.1.3,MacIntel,60,"[1440,900]","[[[0.0044444444444444444,-0.20222222222222222],[0.0044444444444444444,-0.20222222222222222],[0.0044444444444444444,-0.20222222222222222],[0.0044444444444444444,-0.20222222222222222],[0.0044444444444444444,-0.20222222222222222],[0.0044444444444444444,-0.20222222222222222],[0.0044444444444444444,-0.2011111111111111],[0.0044444444444444444,-0.18666666666666668],[0.0044444444444444444,-0.16444444444444445],[0.0044444444444444444,-0.1388888888888889],[0.0044444444444444444,-0.11222222222222222],[0.0044444444444444444,-0.09555555555555556],[0.0044444444444444444,-0.06333333333333334],[0.0044444444444444444,-0.03777777777777778],[0.0044444444444444444,-0.01],[0.0044444444444444444,0.0022222222222222222],[0.0044444444444444444,0.021111111111111112],[0.0044444444444444444,0.02666666666666667],[0.0044444444444444444,0.027777777777777776],[0.0033333333333333335,0.03],[0.0022222222222222222,0.03222222222222222],[0,0.03666666666666667],[-0.0022222222222222222,0.043333333333333335],[-0.005555555555555556,0.04888888888888889],[-0.008888888888888889,0.05555555555555555],[-0.011111111111111112,0.06111111111111111],[-0.013333333333333334,0.06444444444444444],[-0.015555555555555555,0.06555555555555556],[-0.015555555555555555,0.06666666666666667],[-0.015555555555555555,0.06666666666666667],[-0.016666666666666666,0.06777777777777778],[-0.017777777777777778,0.06888888888888889],[-0.017777777777777778,0.07],[-0.017777777777777778,0.07111111111111111],[-0.01888888888888889,0.07222222222222222],[-0.01888888888888889,0.07444444444444444],[-0.02,0.07666666666666666],[-0.02,0.08],[-0.021111111111111112,0.08333333333333333],[-0.021111111111111112,0.08444444444444445],[-0.021111111111111112,0.08444444444444445],[-0.021111111111111112,0.08444444444444445],[-0.021111111111111112,0.08444444444444445],[-0.021111111111111112,0.08444444444444445],[-0.021111111111111112,0.08444444444444445],[-0.021111111111111112,0.08444444444444445],[-0.021111111111111112,0.08444444444444445],[-0.021111111111111112,0.08444444444444445],[-0.021111111111111112,0.08444444444444445],[-0.021111111111111112,0.08444444444444445],[-0.021111111111111112,0.08333333333333333],[-0.02,0.0811111111111111],[-0.02,0.08],[-0.01888888888888889,0.07666666666666666],[-0.017777777777777778,0.07444444444444444],[-0.017777777777777778,0.07111111111111111],[-0.014444444444444444,0.06222222222222222],[-0.01,0.04777777777777778],[-0.0022222222222222222,0.014444444444444444],[0.0044444444444444444,-0.006666666666666667],[0.01,-0.028888888888888888],[0.015555555555555555,-0.05],[0.021111111111111112,-0.06888888888888889],[0.02666666666666667,-0.08555555555555555],[0.03111111111111111,-0.09888888888888889],[0.034444444444444444,-0.11],[0.03666666666666667,-0.12],[0.03888888888888889,-0.1322222222222222],[0.04,-0.1388888888888889],[0.04111111111111111,-0.14888888888888888],[0.04111111111111111,-0.15888888888888889],[0.042222222222222223,-0.16666666666666666],[0.042222222222222223,-0.17555555555555555],[0.042222222222222223,-0.18222222222222223],[0.042222222222222223,-0.18777777777777777],[0.042222222222222223,-0.19333333333333333],[0.042222222222222223,-0.19777777777777777],[0.04,-0.20333333333333334],[0.04,-0.20555555555555555],[0.03777777777777778,-0.20777777777777778],[0.03666666666666667,-0.2088888888888889],[0.034444444444444444,-0.2111111111111111],[0.03111111111111111,-0.21333333333333335],[0.028888888888888888,-0.21444444444444444],[0.025555555555555557,-0.21666666666666667],[0.024444444444444446,-0.21777777777777776],[0.021111111111111112,-0.21888888888888888],[0.017777777777777778,-0.21888888888888888],[0.016666666666666666,-0.22],[0.014444444444444444,-0.22],[0.014444444444444444,-0.22],[0.013333333333333334,-0.22],[0.013333333333333334,-0.22],[0.013333333333333334,-0.22],[0.013333333333333334,-0.22],[0.013333333333333334,-0.22],[0.013333333333333334,-0.22],[0.013333333333333334,-0.22],[0.013333333333333334,-0.22],[0.013333333333333334,-0.22],[0.013333333333333334,-0.22],[0.013333333333333334,-0.22],[0.013333333333333334,-0.22],[0.013333333333333334,-0.22]],[[0.011111111111111112,-0.19444444444444445],[0.011111111111111112,-0.19444444444444445],[0.011111111111111112,-0.19444444444444445],[0.011111111111111112,-0.19444444444444445],[0.011111111111111112,-0.19444444444444445],[0.011111111111111112,-0.19444444444444445],[0.011111111111111112,-0.19333333333333333],[0.014444444444444444,-0.19],[0.025555555555555557,-0.1811111111111111],[0.057777777777777775,-0.15333333333333332],[0.08555555555555555,-0.13555555555555557],[0.11333333333333333,-0.11888888888888889],[0.13666666666666666,-0.10555555555555556],[0.16111111111111112,-0.09333333333333334],[0.17666666666666667,-0.08666666666666667],[0.2011111111111111,-0.07666666666666666],[0.22,-0.06888888888888889],[0.23333333333333334,-0.06333333333333334],[0.2511111111111111,-0.058888888888888886],[0.27111111111111114,-0.052222222222222225],[0.2822222222222222,-0.04888888888888889],[0.2877777777777778,-0.04888888888888889],[0.2922222222222222,-0.04777777777777778],[0.29444444444444445,-0.04666666666666667],[0.2966666666666667,-0.04666666666666667],[0.2966666666666667,-0.04666666666666667],[0.2966666666666667,-0.04666666666666667],[0.2966666666666667,-0.04666666666666667],[0.2966666666666667,-0.04666666666666667],[0.2966666666666667,-0.04666666666666667],[0.2966666666666667,-0.04666666666666667],[0.2966666666666667,-0.04666666666666667],[0.2966666666666667,-0.04666666666666667],[0.2966666666666667,-0.04666666666666667],[0.2966666666666667,-0.04666666666666667]]]",2,"[104,35]",space,5.55,space,0.827,0,5,5,2,1,ahead_right_2.jpg,ahead_right_2_path.jpg,,,,,,,,,,,,,,,,
Image_List_5,,,,,,,,,,,,,,,,46463,2022-02-03_13h13.47.217,analogCatScenes,2020.1.3,MacIntel,60,"[1440,900]","[[[-0.0011111111111111111,-0.2011111111111111],[-0.0011111111111111111,-0.2011111111111111],[-0.0011111111111111111,-0.2011111111111111],[-0.0011111111111111111,-0.2011111111111111],[-0.0011111111111111111,-0.1988888888888889],[-0.0011111111111111111,-0.18888888888888888],[-0.0011111111111111111,-0.17333333333333334],[-0.0011111111111111111,-0.15222222222222223],[-0.0011111111111111111,-0.1288888888888889],[-0.0011111111111111111,-0.10111111111111111],[-0.0011111111111111111,-0.052222222222222225],[-0.0011111111111111111,-0.022222222222222223],[-0.0011111111111111111,0.015555555555555555],[-0.0011111111111111111,0.025555555555555557],[-0.0011111111111111111,0.044444444444444446],[-0.0011111111111111111,0.04777777777777778],[-0.0011111111111111111,0.05],[-0.0011111111111111111,0.05333333333333334],[0,0.06222222222222222],[0.0011111111111111111,0.07333333333333333],[0.0033333333333333335,0.08222222222222222],[0.0044444444444444444,0.09111111111111111],[0.005555555555555556,0.09444444444444444],[0.005555555555555556,0.09666666666666666],[0.008888888888888889,0.10222222222222223],[0.011111111111111112,0.10666666666666667],[0.012222222222222223,0.11],[0.014444444444444444,0.11333333333333333],[0.015555555555555555,0.11888888888888889],[0.016666666666666666,0.12222222222222222],[0.01888888888888889,0.12777777777777777],[0.02,0.13333333333333333],[0.021111111111111112,0.1388888888888889],[0.022222222222222223,0.14666666666666667],[0.022222222222222223,0.15222222222222223],[0.022222222222222223,0.15888888888888889],[0.022222222222222223,0.16111111111111112],[0.022222222222222223,0.1622222222222222],[0.022222222222222223,0.1622222222222222],[0.022222222222222223,0.1622222222222222],[0.022222222222222223,0.1622222222222222],[0.022222222222222223,0.1622222222222222],[0.021111111111111112,0.16333333333333333],[0.021111111111111112,0.16333333333333333],[0.021111111111111112,0.16333333333333333],[0.021111111111111112,0.16444444444444445],[0.02,0.16444444444444445],[0.02,0.16555555555555557],[0.02,0.16555555555555557],[0.02,0.16555555555555557],[0.02,0.16555555555555557],[0.02,0.16555555555555557],[0.02,0.16555555555555557],[0.02,0.16555555555555557],[0.02,0.16555555555555557],[0.02,0.16555555555555557],[0.02,0.16444444444444445],[0.02,0.16444444444444445]]]",1,[58],space,4.906,space,0.886,0,6,6,0,1,ahead_2.jpg,ahead_2_path.jpg,,,,,,,,,,,,,,,,
Image_List_5,,,,,,,,,,,,,,,,46463,2022-02-03_13h13.47.217,analogCatScenes,2020.1.3,MacIntel,60,"[1440,900]","[[[0.0033333333333333335,-0.19444444444444445],[0.0033333333333333335,-0.19444444444444445],[0.0033333333333333335,-0.19444444444444445],[0.0033333333333333335,-0.19444444444444445],[0.0033333333333333335,-0.19444444444444445],[0.0033333333333333335,-0.19444444444444445],[0.0033333333333333335,-0.19444444444444445],[0.0033333333333333335,-0.19444444444444445],[0.0033333333333333335,-0.19444444444444445],[0.0033333333333333335,-0.19444444444444445],[0.0033333333333333335,-0.19444444444444445],[0.0044444444444444444,-0.19444444444444445],[0.0077777777777777776,-0.19444444444444445],[0.017777777777777778,-0.18888888888888888],[0.027777777777777776,-0.18444444444444444],[0.04111111111111111,-0.18],[0.07111111111111111,-0.1688888888888889],[0.08555555555555555,-0.16444444444444445],[0.11444444444444445,-0.15888888888888889],[0.14222222222222222,-0.15333333333333332],[0.17444444444444446,-0.14888888888888888],[0.21,-0.14444444444444443],[0.25,-0.14],[0.27555555555555555,-0.13777777777777778],[0.3022222222222222,-0.13555555555555557],[0.31444444444444447,-0.13444444444444445],[0.32555555555555554,-0.13444444444444445],[0.33,-0.13444444444444445],[0.3322222222222222,-0.13444444444444445],[0.3322222222222222,-0.13444444444444445],[0.3333333333333333,-0.13444444444444445],[0.3333333333333333,-0.13444444444444445],[0.3333333333333333,-0.13444444444444445],[0.3333333333333333,-0.13444444444444445],[0.3333333333333333,-0.13444444444444445],[0.3333333333333333,-0.13444444444444445],[0.3333333333333333,-0.13444444444444445],[0.3333333333333333,-0.13444444444444445],[0.3333333333333333,-0.13444444444444445],[0.3333333333333333,-0.13444444444444445]]]",1,[40],,,,,,,,,,,,space,4.623,gasstation2.jpg,space,2.991,0,0,0,56,1,grocerystore5.jpg,hut3.jpg,golfcourse10.jpg,hut1.jpg,,
Image_List_5,,,,,,,,,,,,,,,,46463,2022-02-03_13h13.47.217,analogCatScenes,2020.1.3,MacIntel,60,"[1440,900]","[[[0.0033333333333333335,-0.21222222222222223],[0.0033333333333333335,-0.21222222222222223],[0.0033333333333333335,-0.21222222222222223],[0.0033333333333333335,-0.2111111111111111],[0.0033333333333333335,-0.20444444444444446],[0.0033333333333333335,-0.18777777777777777],[0.0033333333333333335,-0.15333333333333332],[0.0033333333333333335,-0.11777777777777777],[0.0033333333333333335,-0.06777777777777778],[0.0033333333333333335,-0.008888888888888889],[0.0033333333333333335,0.06111111111111111],[0.0033333333333333335,0.08666666666666667],[0.0011111111111111111,0.09888888888888889],[0,0.10888888888888888],[0,0.11222222222222222],[0,0.11555555555555555],[0,0.11777777777777777],[-0.0011111111111111111,0.12111111111111111],[-0.0011111111111111111,0.12333333333333334],[-0.0011111111111111111,0.12444444444444444],[-0.0011111111111111111,0.12444444444444444],[-0.0011111111111111111,0.12444444444444444],[-0.0022222222222222222,0.12444444444444444]]]",1,[23],,,,,,,,,,,,,,sidewalk3.jpg,space,2.405,0,1,1,91,1,shoestore2.jpg,trainStation5.jpg,skatepark5.jpg,ticket_counter6.jpg,,
Image_List_5,,,,,,,,,,,,,,,,46463,2022-02-03_13h13.47.217,analogCatScenes,2020.1.3,MacIntel,60,"[1440,900]","[[[0.0011111111111111111,-0.20222222222222222],[0.0011111111111111111,-0.20222222222222222],[0.0011111111111111111,-0.20222222222222222],[0.0011111111111111111,-0.20222222222222222],[0.0011111111111111111,-0.20222222222222222],[0.0011111111111111111,-0.20222222222222222],[0.0011111111111111111,-0.20222222222222222],[0.0011111111111111111,-0.20222222222222222],[0.0011111111111111111,-0.20222222222222222],[0.0011111111111111111,-0.20222222222222222],[0.0011111111111111111,-0.20222222222222222],[0.0011111111111111111,-0.20222222222222222],[0.0011111111111111111,-0.20222222222222222],[0.0011111111111111111,-0.20222222222222222],[0.0011111111111111111,-0.20222222222222222],[0.0011111111111111111,-0.20222222222222222],[0.0011111111111111111,-0.20222222222222222],[0.0011111111111111111,-0.20222222222222222],[0.0011111111111111111,-0.20222222222222222],[0.0011111111111111111,-0.20222222222222222],[0.0022222222222222222,-0.2011111111111111],[0.0044444444444444444,-0.2011111111111111],[0.005555555555555556,-0.2011111111111111],[0.013333333333333334,-0.1988888888888889],[0.025555555555555557,-0.19444444444444445],[0.07555555555555556,-0.17888888888888888],[0.13,-0.17],[0.17222222222222222,-0.16555555555555557],[0.23555555555555555,-0.1622222222222222],[0.2811111111111111,-0.1622222222222222],[0.3111111111111111,-0.1622222222222222],[0.3288888888888889,-0.16555555555555557],[0.34444444444444444,-0.1688888888888889],[0.34555555555555556,-0.17333333333333334],[0.32666666666666666,-0.17222222222222222],[0.2833333333333333,-0.1711111111111111],[0.25,-0.1711111111111111],[0.20333333333333334,-0.1711111111111111],[0.14444444444444443,-0.17333333333333334],[0.1111111111111111,-0.17888888888888888],[0.0811111111111111,-0.18555555555555556],[0.06222222222222222,-0.18888888888888888],[0.04888888888888889,-0.19],[0.03666666666666667,-0.1922222222222222],[0.03,-0.19333333333333333],[0.02666666666666667,-0.19333333333333333],[0.024444444444444446,-0.19444444444444445],[0.021111111111111112,-0.19555555555555557],[0.02,-0.19555555555555557],[0.01888888888888889,-0.19555555555555557],[0.01888888888888889,-0.19555555555555557],[0.01888888888888889,-0.19555555555555557],[0.017777777777777778,-0.19666666666666666],[0.017777777777777778,-0.19666666666666666],[0.017777777777777778,-0.19666666666666666],[0.017777777777777778,-0.19666666666666666],[0.017777777777777778,-0.19666666666666666],[0.016666666666666666,-0.19666666666666666],[0.013333333333333334,-0.19666666666666666],[0.011111111111111112,-0.19666666666666666],[0.008888888888888889,-0.19666666666666666],[0.006666666666666667,-0.19666666666666666],[0.005555555555555556,-0.19666666666666666],[0.005555555555555556,-0.19666666666666666],[0.0044444444444444444,-0.19666666666666666],[0.0044444444444444444,-0.19666666666666666],[0.0044444444444444444,-0.19666666666666666],[0.0033333333333333335,-0.19666666666666666],[-0.0022222222222222222,-0.19666666666666666],[-0.011111111111111112,-0.19666666666666666],[-0.023333333333333334,-0.19666666666666666],[-0.04888888888888889,-0.19444444444444445],[-0.09333333333333334,-0.18777777777777777],[-0.1411111111111111,-0.17555555555555555],[-0.2,-0.15444444444444444],[-0.23666666666666666,-0.13777777777777778],[-0.26222222222222225,-0.12666666666666668],[-0.2777777777777778,-0.12111111111111111],[-0.29,-0.11555555555555555],[-0.2922222222222222,-0.11444444444444445],[-0.2922222222222222,-0.11444444444444445],[-0.2922222222222222,-0.11444444444444445],[-0.2922222222222222,-0.11444444444444445],[-0.2911111111111111,-0.11444444444444445],[-0.29,-0.11444444444444445],[-0.28888888888888886,-0.11555555555555555]]]",1,[86],,,,,,,,,,,,,,applestore2.jpg,space,3.028,0,2,2,7,1,attic2.jpg,banquetHall4.jpg,backstage1.jpg,baggageClaim3.jpg,,
Image_List_5,,,,,,,,,,,,,,,,46463,2022-02-03_13h13.47.217,analogCatScenes,2020.1.3,MacIntel,60,"[1440,900]","[[[-0.008888888888888889,-0.2],[-0.008888888888888889,-0.2],[-0.008888888888888889,-0.2],[-0.008888888888888889,-0.2],[-0.008888888888888889,-0.2],[-0.013333333333333334,-0.2],[-0.03888888888888889,-0.2],[-0.10555555555555556,-0.2],[-0.16,-0.19555555555555557],[-0.22555555555555556,-0.1811111111111111],[-0.26,-0.17444444444444446],[-0.29555555555555557,-0.16777777777777778],[-0.30444444444444446,-0.16777777777777778],[-0.31333333333333335,-0.16666666666666666],[-0.31777777777777777,-0.16666666666666666],[-0.32,-0.16666666666666666],[-0.3211111111111111,-0.16666666666666666],[-0.3211111111111111,-0.16666666666666666],[-0.3211111111111111,-0.16666666666666666],[-0.32,-0.16666666666666666],[-0.3188888888888889,-0.16666666666666666],[-0.31777777777777777,-0.16777777777777778],[-0.31666666666666665,-0.16777777777777778],[-0.31666666666666665,-0.16777777777777778],[-0.31555555555555553,-0.16777777777777778]]]",1,[25],,,,,,,,,,,,,,ATM4.jpg,space,2.132,0,3,3,10,1,backstage2.jpg,barbershop3.jpg,ballroom4.jpg,basketballcourt3.jpg,,
Image_List_5,,,,,,,,,,,,,,,,46463,2022-02-03_13h13.47.217,analogCatScenes,2020.1.3,MacIntel,60,"[1440,900]","[[[0,-0.19444444444444445],[0,-0.19444444444444445],[0,-0.19444444444444445],[0,-0.19444444444444445],[0,-0.18444444444444444],[0,-0.16111111111111112],[0,-0.13333333333333333],[0,-0.10444444444444445],[0,-0.07888888888888888],[0,-0.05555555555555555],[0,-0.027777777777777776],[0,-0.012222222222222223],[0,-0.0033333333333333335],[0,0.005555555555555556],[0,0.0077777777777777776],[0,0.0077777777777777776],[0,0.0077777777777777776],[0,0.008888888888888889],[0,0.008888888888888889],[0,0.008888888888888889],[0,0.008888888888888889],[0,0.008888888888888889],[0,0.0077777777777777776],[0,0.006666666666666667],[0.0011111111111111111,0.0033333333333333335],[0.0011111111111111111,0],[0.0022222222222222222,-0.011111111111111112],[0.0033333333333333335,-0.027777777777777776],[0.0044444444444444444,-0.052222222222222225],[0.0044444444444444444,-0.0811111111111111],[0.0044444444444444444,-0.10222222222222223],[0.0044444444444444444,-0.12333333333333334],[0.0044444444444444444,-0.1411111111111111],[0.0044444444444444444,-0.15333333333333332],[0.0044444444444444444,-0.1622222222222222],[0.0033333333333333335,-0.17444444444444446],[0.0022222222222222222,-0.17888888888888888],[0.0022222222222222222,-0.18222222222222223],[0.0022222222222222222,-0.18333333333333332],[0.0022222222222222222,-0.18444444444444444],[0.0022222222222222222,-0.18555555555555556],[0.0011111111111111111,-0.18555555555555556],[0.0011111111111111111,-0.18777777777777777],[0.0011111111111111111,-0.19],[0.0011111111111111111,-0.1922222222222222],[0.0011111111111111111,-0.1922222222222222],[0.0011111111111111111,-0.19444444444444445]]]",1,[47],,,,,,,,,,,,,,lookout4.jpg,space,2.744,0,4,4,76,1,parkinggarage.jpg,playroom4.jpg,parkinggarage3.jpg,park2.jpg,,
Image_List_5,,,,,,,,,,,,,,,,46463,2022-02-03_13h13.47.217,analogCatScenes,2020.1.3,MacIntel,60,"[1440,900]","[[[0.01,-0.19555555555555557],[0.01,-0.19555555555555557],[0.01,-0.19555555555555557],[0.01,-0.19555555555555557],[0.01,-0.19444444444444445],[0.01,-0.18666666666666668],[0.01,-0.15777777777777777],[0.01,-0.13555555555555557],[0.01,-0.1],[0.01,-0.06555555555555556],[0.01,-0.022222222222222223],[0.01,0.024444444444444446],[0.01,0.044444444444444446],[0.01,0.06],[0.01,0.06666666666666667],[0.01,0.06888888888888889],[0.01,0.06888888888888889],[0.01,0.06888888888888889],[0.01,0.06888888888888889],[0.01,0.06888888888888889],[0.01,0.06888888888888889],[0.01,0.06888888888888889],[0.01,0.07],[0.01,0.07],[0.01,0.07444444444444444],[0.011111111111111112,0.07888888888888888],[0.013333333333333334,0.08333333333333333],[0.014444444444444444,0.08777777777777777],[0.015555555555555555,0.09],[0.016666666666666666,0.09111111111111111],[0.016666666666666666,0.09111111111111111],[0.016666666666666666,0.09111111111111111],[0.016666666666666666,0.09111111111111111],[0.016666666666666666,0.09111111111111111],[0.016666666666666666,0.09111111111111111],[0.015555555555555555,0.09111111111111111]]]",1,[36],,,,,,,,,,,,,,airportTerminal6.jpg,space,1.982,0,5,5,2,1,alley1.jpg,arcade1.jpg,applestore6.jpg,apartmentBuilding4.jpg,,
Image_List_5,,,,,,,,,,,,,,,,46463,2022-02-03_13h13.47.217,analogCatScenes,2020.1.3,MacIntel,60,"[1440,900]","[[[-0.0033333333333333335,-0.20666666666666667],[-0.0033333333333333335,-0.20666666666666667],[-0.0033333333333333335,-0.20666666666666667],[-0.0033333333333333335,-0.20666666666666667],[-0.0077777777777777776,-0.20666666666666667],[-0.027777777777777776,-0.20333333333333334],[-0.06222222222222222,-0.2011111111111111],[-0.11666666666666667,-0.2011111111111111],[-0.17555555555555555,-0.2011111111111111],[-0.21333333333333335,-0.2011111111111111],[-0.24,-0.2011111111111111],[-0.26555555555555554,-0.2011111111111111],[-0.27444444444444444,-0.2011111111111111],[-0.2811111111111111,-0.2011111111111111],[-0.2833333333333333,-0.2011111111111111],[-0.2833333333333333,-0.2011111111111111],[-0.2833333333333333,-0.2],[-0.2833333333333333,-0.2],[-0.2811111111111111,-0.1988888888888889],[-0.2788888888888889,-0.19666666666666666],[-0.27666666666666667,-0.19555555555555557],[-0.2733333333333333,-0.1922222222222222],[-0.2633333333333333,-0.18444444444444444],[-0.25,-0.17333333333333334],[-0.22555555555555556,-0.15888888888888889],[-0.17777777777777778,-0.14],[-0.1388888888888889,-0.13444444444444445],[-0.10444444444444445,-0.13333333333333333],[-0.07333333333333333,-0.13333333333333333],[-0.05444444444444444,-0.13777777777777778],[-0.03222222222222222,-0.14666666666666667],[-0.015555555555555555,-0.15555555555555556],[-0.0033333333333333335,-0.16333333333333333],[0.0033333333333333335,-0.16777777777777778],[0.008888888888888889,-0.17333333333333334],[0.015555555555555555,-0.1811111111111111],[0.01888888888888889,-0.18444444444444444],[0.02,-0.18777777777777777],[0.02,-0.19],[0.02,-0.19111111111111112],[0.02,-0.19333333333333333],[0.01888888888888889,-0.19666666666666666],[0.017777777777777778,-0.19777777777777777],[0.012222222222222223,-0.2011111111111111],[0.008888888888888889,-0.20333333333333334],[0.005555555555555556,-0.20444444444444446],[0.0033333333333333335,-0.20555555555555555],[0.0022222222222222222,-0.20555555555555555],[0.0022222222222222222,-0.20555555555555555],[0.0022222222222222222,-0.20555555555555555]],[[0.0022222222222222222,-0.20555555555555555],[0.0022222222222222222,-0.20555555555555555],[0.0022222222222222222,-0.20555555555555555],[0.0022222222222222222,-0.20555555555555555],[0.0022222222222222222,-0.20555555555555555]],[[0.0022222222222222222,-0.20555555555555555],[0.0022222222222222222,-0.20555555555555555],[0.0022222222222222222,-0.20555555555555555],[0.0022222222222222222,-0.20555555555555555],[0.0022222222222222222,-0.20555555555555555],[0.0022222222222222222,-0.20555555555555555],[0.0022222222222222222,-0.20555555555555555],[0.0022222222222222222,-0.20555555555555555],[0.0022222222222222222,-0.20555555555555555],[0.0033333333333333335,-0.20555555555555555],[0.012222222222222223,-0.20555555555555555],[0.03777777777777778,-0.20222222222222222],[0.07666666666666666,-0.19555555555555557],[0.12111111111111111,-0.19111111111111112],[0.15777777777777777,-0.19111111111111112],[0.20444444444444446,-0.19111111111111112],[0.24666666666666667,-0.19111111111111112],[0.2688888888888889,-0.19111111111111112],[0.2822222222222222,-0.19111111111111112],[0.29,-0.1922222222222222],[0.29444444444444445,-0.1922222222222222],[0.29444444444444445,-0.1922222222222222],[0.29555555555555557,-0.1922222222222222],[0.29555555555555557,-0.1922222222222222],[0.29555555555555557,-0.1922222222222222],[0.29555555555555557,-0.1922222222222222],[0.29555555555555557,-0.1922222222222222],[0.29555555555555557,-0.1922222222222222],[0.29555555555555557,-0.1922222222222222],[0.29444444444444445,-0.1922222222222222],[0.29333333333333333,-0.1922222222222222]],[[0.01,-0.2],[0.01,-0.2],[0.01,-0.2],[0.01,-0.2],[0.01,-0.19666666666666666],[0.01,-0.18777777777777777],[0.01,-0.1711111111111111],[0.01,-0.15666666666666668],[0.01,-0.14333333333333334],[0.01,-0.1322222222222222],[0.01,-0.12444444444444444],[0.01,-0.11777777777777777],[0.01,-0.1111111111111111],[0.01,-0.10333333333333333],[0.01,-0.09888888888888889],[0.01,-0.09444444444444444],[0.01,-0.09444444444444444],[0.01,-0.09444444444444444],[0.01,-0.09444444444444444],[0.01,-0.09444444444444444],[0.01,-0.09444444444444444],[0.01,-0.09555555555555556]]]",4,"[50,5,31,22]",,,,,,,,,,,,,,observatory2.jpg,space,5.822,0,6,6,79,1,pasture.jpg,poolhall2.jpeg,playground9.jpg,pier2.jpg,,
Image_List_5,,,,,,,,,,,,,,,,46463,2022-02-03_13h13.47.217,analogCatScenes,2020.1.3,MacIntel,60,"[1440,900]","[[[-0.0022222222222222222,-0.1988888888888889],[-0.0022222222222222222,-0.1988888888888889],[-0.0022222222222222222,-0.1988888888888889],[-0.0022222222222222222,-0.1988888888888889],[-0.005555555555555556,-0.1988888888888889],[-0.03888888888888889,-0.18666666666666668],[-0.10333333333333333,-0.1511111111111111],[-0.14555555555555555,-0.12333333333333334],[-0.18333333333333332,-0.09777777777777778],[-0.22777777777777777,-0.07111111111111111],[-0.25222222222222224,-0.057777777777777775],[-0.2733333333333333,-0.04777777777777778],[-0.2877777777777778,-0.043333333333333335],[-0.29444444444444445,-0.04111111111111111],[-0.30444444444444446,-0.03888888888888889],[-0.30777777777777776,-0.03888888888888889],[-0.31222222222222223,-0.03777777777777778],[-0.31666666666666665,-0.03666666666666667],[-0.32,-0.03666666666666667],[-0.3233333333333333,-0.03666666666666667],[-0.3244444444444444,-0.03666666666666667],[-0.32555555555555554,-0.03666666666666667],[-0.32555555555555554,-0.03666666666666667],[-0.32555555555555554,-0.03666666666666667],[-0.32555555555555554,-0.03666666666666667],[-0.32555555555555554,-0.03666666666666667],[-0.32555555555555554,-0.03666666666666667],[-0.32555555555555554,-0.03666666666666667]]]",1,[28],,,,,,,,,,,,,,elevatorOutside2.jpg,space,3.778,0,7,7,47,1,frontDoor.jpg,gasstation8.jpg,firestation4.jpg,fountain7.jpg,,
Image_List_5,,,,,,,,,,,,,,,,46463,2022-02-03_13h13.47.217,analogCatScenes,2020.1.3,MacIntel,60,"[1440,900]","[[[0.0011111111111111111,-0.20222222222222222],[0.0011111111111111111,-0.20222222222222222],[0.0011111111111111111,-0.20222222222222222],[0.0011111111111111111,-0.20222222222222222],[0.0011111111111111111,-0.20222222222222222],[0.0011111111111111111,-0.20222222222222222],[0.0011111111111111111,-0.2011111111111111],[0.0011111111111111111,-0.18555555555555556],[0.0011111111111111111,-0.09],[0.0011111111111111111,-0.034444444444444444],[0.0011111111111111111,-0.01],[0.0011111111111111111,0.028888888888888888],[0.0011111111111111111,0.051111111111111114],[0.0011111111111111111,0.06222222222222222],[0.0011111111111111111,0.07],[0.0011111111111111111,0.07555555555555556],[0.0011111111111111111,0.0811111111111111],[0.0011111111111111111,0.08555555555555555],[0.0011111111111111111,0.09111111111111111],[0.0011111111111111111,0.09222222222222222],[0.0011111111111111111,0.09333333333333334],[0.0011111111111111111,0.09333333333333334],[0.0011111111111111111,0.09333333333333334],[0.0011111111111111111,0.09333333333333334],[0.0011111111111111111,0.09333333333333334],[0.0022222222222222222,0.09333333333333334],[0.0022222222222222222,0.09222222222222222],[0.0022222222222222222,0.09222222222222222],[0.0022222222222222222,0.09111111111111111]],[[0.0022222222222222222,-0.19333333333333333],[0.0022222222222222222,-0.19333333333333333],[0.0022222222222222222,-0.19333333333333333],[0.0022222222222222222,-0.19333333333333333],[0.0022222222222222222,-0.19333333333333333],[0.0011111111111111111,-0.19333333333333333],[-0.005555555555555556,-0.19],[-0.016666666666666666,-0.18222222222222223],[-0.035555555555555556,-0.16777777777777778],[-0.07,-0.1388888888888889],[-0.1,-0.11222222222222222],[-0.13333333333333333,-0.08333333333333333],[-0.14777777777777779,-0.06888888888888889],[-0.16111111111111112,-0.05333333333333334],[-0.16777777777777778,-0.042222222222222223],[-0.17,-0.03666666666666667],[-0.1711111111111111,-0.028888888888888888],[-0.1711111111111111,-0.024444444444444446],[-0.1711111111111111,-0.022222222222222223],[-0.1711111111111111,-0.02],[-0.1711111111111111,-0.01888888888888889],[-0.17,-0.01888888888888889],[-0.1688888888888889,-0.01888888888888889],[-0.16777777777777778,-0.01888888888888889],[-0.16666666666666666,-0.01888888888888889],[-0.16666666666666666,-0.01888888888888889],[-0.16666666666666666,-0.02]],[[0.01,-0.19666666666666666],[0.01,-0.19666666666666666],[0.01,-0.19666666666666666],[0.01,-0.19666666666666666],[0.01,-0.19666666666666666],[0.01,-0.19666666666666666],[0.01,-0.19666666666666666],[0.01,-0.19666666666666666],[0.011111111111111112,-0.19666666666666666],[0.013333333333333334,-0.19666666666666666],[0.01888888888888889,-0.19666666666666666],[0.028888888888888888,-0.19555555555555557],[0.04,-0.1922222222222222],[0.07333333333333333,-0.1811111111111111],[0.09333333333333334,-0.17333333333333334],[0.11444444444444445,-0.1622222222222222],[0.1388888888888889,-0.14555555555555555],[0.16555555555555557,-0.12444444444444444],[0.19,-0.10111111111111111],[0.20555555555555555,-0.08444444444444445],[0.2222222222222222,-0.06666666666666667],[0.23,-0.056666666666666664],[0.23555555555555555,-0.04888888888888889],[0.24,-0.042222222222222223],[0.2411111111111111,-0.04],[0.24222222222222223,-0.03777777777777778],[0.24222222222222223,-0.034444444444444444],[0.24,-0.03222222222222222]]]",3,"[29,27,28]",,,,,,,,,,,,,,basketballcourt.jpg,space,4.428,0,8,8,19,1,boardwalk2.jpg,casino3.jpg,cafeteria1.jpg,castle4.jpg,,
Image_List_5,,,,,,,,,,,,,,,,46463,2022-02-03_13h13.47.217,analogCatScenes,2020.1.3,MacIntel,60,"[1440,900]","[[[0,-0.19333333333333333],[0,-0.19333333333333333],[0,-0.19333333333333333],[0,-0.19333333333333333],[0,-0.19333333333333333],[0,-0.19333333333333333],[-0.005555555555555556,-0.19333333333333333],[-0.03111111111111111,-0.18888888888888888],[-0.06888888888888889,-0.17888888888888888],[-0.12666666666666668,-0.1622222222222222],[-0.18555555555555556,-0.14222222222222222],[-0.22555555555555556,-0.12444444444444444],[-0.26555555555555554,-0.10333333333333333],[-0.28,-0.09444444444444444],[-0.2922222222222222,-0.08555555555555555],[-0.29555555555555557,-0.08222222222222222],[-0.2966666666666667,-0.0811111111111111],[-0.2966666666666667,-0.08],[-0.2966666666666667,-0.08],[-0.29555555555555557,-0.08],[-0.29555555555555557,-0.08],[-0.29444444444444445,-0.08],[-0.29333333333333333,-0.0811111111111111]],[[0.0022222222222222222,-0.19777777777777777],[0.0022222222222222222,-0.19777777777777777],[0.0022222222222222222,-0.19777777777777777],[0.0022222222222222222,-0.19777777777777777],[0.005555555555555556,-0.19777777777777777],[0.023333333333333334,-0.19555555555555557],[0.03888888888888889,-0.19333333333333333],[0.07333333333333333,-0.18777777777777777],[0.1111111111111111,-0.18333333333333332],[0.1388888888888889,-0.1811111111111111],[0.16444444444444445,-0.18],[0.18777777777777777,-0.18],[0.2011111111111111,-0.17888888888888888],[0.20777777777777778,-0.17777777777777778],[0.21222222222222223,-0.17666666666666667],[0.21666666666666667,-0.17555555555555555],[0.22111111111111112,-0.17333333333333334],[0.22333333333333333,-0.1711111111111111],[0.22555555555555556,-0.17],[0.2288888888888889,-0.16777777777777778],[0.2311111111111111,-0.16555555555555557],[0.23444444444444446,-0.16333333333333333],[0.23666666666666666,-0.16111111111111112],[0.24,-0.15888888888888889],[0.24222222222222223,-0.15777777777777777],[0.24444444444444444,-0.15666666666666668],[0.24888888888888888,-0.15555555555555556],[0.25333333333333335,-0.15333333333333332],[0.25666666666666665,-0.15333333333333332],[0.26,-0.15222222222222223],[0.26222222222222225,-0.1511111111111111],[0.2644444444444444,-0.1511111111111111],[0.26555555555555554,-0.1511111111111111],[0.26555555555555554,-0.15],[0.26555555555555554,-0.15]]]",2,"[23,35]",,,,,,,,,,,,,,bus_shelter3.jpg,space,4.905,0,9,9,30,1,courthouse1.jpg,desertvegetation3.jpg,clothingstore2.jpg,copyroom2.jpg,,
Image_List_5,,,,,,,,,,,,,,,,46463,2022-02-03_13h13.47.217,analogCatScenes,2020.1.3,MacIntel,60,"[1440,900]","[[[0.0011111111111111111,-0.20333333333333334],[0.0022222222222222222,-0.20333333333333334],[0.0022222222222222222,-0.20333333333333334],[0.0022222222222222222,-0.20333333333333334],[0.0022222222222222222,-0.20333333333333334],[0.0022222222222222222,-0.20333333333333334],[0.0022222222222222222,-0.2011111111111111],[0.0022222222222222222,-0.19111111111111112],[0.0022222222222222222,-0.1711111111111111],[0.0022222222222222222,-0.14333333333333334],[0.0011111111111111111,-0.11555555555555555],[-0.0011111111111111111,-0.1],[-0.0033333333333333335,-0.09],[-0.0077777777777777776,-0.0811111111111111],[-0.008888888888888889,-0.07888888888888888],[-0.008888888888888889,-0.07888888888888888],[-0.008888888888888889,-0.07888888888888888]]]",1,[17],,,,,,,,,,,,,,ballroom3.jpg,space,1.528,0,10,10,14,1,ballroom1.jpg,breakroom5.jpg,bistrooutdoor5.jpg,botanicalGarden5.jpg,,
Image_List_5,,,,,,,,,,,,,,,,46463,2022-02-03_13h13.47.217,analogCatScenes,2020.1.3,MacIntel,60,"[1440,900]","[[[-0.0011111111111111111,-0.19666666666666666],[-0.0011111111111111111,-0.19666666666666666],[-0.0011111111111111111,-0.19666666666666666],[-0.012222222222222223,-0.1922222222222222],[-0.03777777777777778,-0.18222222222222223],[-0.06444444444444444,-0.17444444444444446],[-0.09444444444444444,-0.16666666666666666],[-0.12555555555555556,-0.15888888888888889],[-0.14444444444444443,-0.15555555555555556],[-0.16555555555555557,-0.15222222222222223],[-0.17222222222222222,-0.1511111111111111],[-0.17666666666666667,-0.1511111111111111],[-0.17777777777777778,-0.1511111111111111]],[[-0.0033333333333333335,-0.2],[-0.0033333333333333335,-0.2],[-0.0033333333333333335,-0.2],[-0.0033333333333333335,-0.2],[-0.0033333333333333335,-0.2],[-0.0033333333333333335,-0.2],[-0.0033333333333333335,-0.2],[0.008888888888888889,-0.19333333333333333],[0.03111111111111111,-0.17888888888888888],[0.09777777777777778,-0.14777777777777779],[0.13444444444444445,-0.13666666666666666],[0.18444444444444444,-0.12555555555555556],[0.21444444444444444,-0.12333333333333334],[0.2411111111111111,-0.12],[0.2511111111111111,-0.12],[0.2577777777777778,-0.12],[0.26,-0.11888888888888889],[0.26,-0.11777777777777777],[0.26,-0.11666666666666667]]]",2,"[13,19]",,,,,,,,,,,,,,bistrooutdoor6.jpg,space,2.278,0,11,11,22,1,bowlingalley5.jpg,church6.jpg,cargo5.jpg,cemetery.jpg,,
Image_List_5,,,,,,,,,,,,,,,,46463,2022-02-03_13h13.47.217,analogCatScenes,2020.1.3,MacIntel,60,"[1440,900]","[[[0.0011111111111111111,-0.1988888888888889],[0.0011111111111111111,-0.1988888888888889],[0.0011111111111111111,-0.1988888888888889],[0.0011111111111111111,-0.1988888888888889],[-0.01888888888888889,-0.15777777777777777],[-0.04888888888888889,-0.09],[-0.08888888888888889,0.0077777777777777776],[-0.11333333333333333,0.06777777777777778],[-0.13333333333333333,0.10111111111111111],[-0.14444444444444443,0.11888888888888889],[-0.15,0.12555555555555556],[-0.15555555555555556,0.13],[-0.15555555555555556,0.13]]]",1,[13],,,,,,,,,,,,,,arcade2.jpg,space,1.525,0,12,12,9,1,auto_showroom3.jpg,bar2.jpg,ballroom2.jpg,basement5.jpg,,
Image_List_5,,,,,,,,,,,,,,,,46463,2022-02-03_13h13.47.217,analogCatScenes,2020.1.3,MacIntel,60,"[1440,900]","[[[-0.0011111111111111111,-0.2111111111111111],[-0.0011111111111111111,-0.2111111111111111],[-0.0011111111111111111,-0.2111111111111111],[-0.0011111111111111111,-0.2111111111111111],[-0.0011111111111111111,-0.2111111111111111],[0.0011111111111111111,-0.2088888888888889],[0.043333333333333335,-0.1811111111111111],[0.08888888888888889,-0.15888888888888889],[0.1622222222222222,-0.1288888888888889],[0.23555555555555555,-0.10555555555555556],[0.2777777777777778,-0.09777777777777778],[0.3111111111111111,-0.09333333333333334],[0.3388888888888889,-0.09222222222222222],[0.3466666666666667,-0.09222222222222222],[0.3488888888888889,-0.09111111111111111],[0.3488888888888889,-0.08777777777777777]]]",1,[16],,,,,,,,,,,,,,farm2.jpg,space,1.495,0,13,13,49,1,frontDoor3.jpg,greenhouse5.jpg,flowershop3.jpg,greenhouse.jpg,,
Image_List_5,,,,,,,,,,,,,,,,46463,2022-02-03_13h13.47.217,analogCatScenes,2020.1.3,MacIntel,60,"[1440,900]","[[[0.0011111111111111111,-0.1988888888888889],[0.0011111111111111111,-0.1988888888888889],[0.0011111111111111111,-0.1988888888888889],[0.0011111111111111111,-0.1988888888888889],[0.0011111111111111111,-0.1988888888888889],[0.0011111111111111111,-0.1988888888888889],[-0.0011111111111111111,-0.19444444444444445],[-0.015555555555555555,-0.17222222222222222],[-0.027777777777777776,-0.15222222222222223],[-0.042222222222222223,-0.12777777777777777],[-0.05444444444444444,-0.10444444444444445],[-0.06222222222222222,-0.08333333333333333],[-0.06666666666666667,-0.06],[-0.06777777777777778,-0.043333333333333335],[-0.06777777777777778,-0.024444444444444446],[-0.06777777777777778,-0.01],[-0.06555555555555556,0.0022222222222222222],[-0.06,0.011111111111111112],[-0.05555555555555555,0.01888888888888889],[-0.052222222222222225,0.023333333333333334],[-0.04777777777777778,0.027777777777777776],[-0.044444444444444446,0.03111111111111111],[-0.042222222222222223,0.03333333333333333],[-0.04,0.03333333333333333],[-0.03888888888888889,0.034444444444444444],[-0.03666666666666667,0.034444444444444444],[-0.03333333333333333,0.03777777777777778],[-0.03,0.04111111111111111],[-0.02666666666666667,0.043333333333333335],[-0.024444444444444446,0.04555555555555556],[-0.023333333333333334,0.04666666666666667],[-0.022222222222222223,0.04666666666666667],[-0.022222222222222223,0.04666666666666667],[-0.022222222222222223,0.04666666666666667],[-0.02666666666666667,0.04777777777777778]]]",1,[35],,,,,,,,,,,,,,grocerystore2.jpg,space,1.629,0,14,14,58,1,highway7.jpg,lab1.jpg,hedgemaze1.jpg,igloo4.jpg,,
Image_List_5,,,,,,,,,,,,,,,,46463,2022-02-03_13h13.47.217,analogCatScenes,2020.1.3,MacIntel,60,"[1440,900]","[[[-0.0011111111111111111,-0.19666666666666666],[-0.0011111111111111111,-0.19666666666666666],[-0.0011111111111111111,-0.19666666666666666],[-0.0011111111111111111,-0.19666666666666666],[-0.0011111111111111111,-0.19666666666666666],[-0.0044444444444444444,-0.19333333333333333],[-0.022222222222222223,-0.1688888888888889],[-0.06111111111111111,-0.09666666666666666],[-0.08333333333333333,-0.03777777777777778],[-0.10444444444444445,0.034444444444444444],[-0.10777777777777778,0.07333333333333333],[-0.10777777777777778,0.09666666666666666],[-0.10777777777777778,0.11333333333333333],[-0.09777777777777778,0.12444444444444444],[-0.07555555555555556,0.1388888888888889],[-0.04555555555555556,0.15555555555555556],[-0.024444444444444446,0.16444444444444445],[-0.0033333333333333335,0.17222222222222222],[0.008888888888888889,0.17444444444444446],[0.01888888888888889,0.17666666666666667],[0.025555555555555557,0.17666666666666667],[0.02666666666666667,0.17666666666666667],[0.02666666666666667,0.17666666666666667],[0.02666666666666667,0.17666666666666667]],[[0.0022222222222222222,-0.2111111111111111],[0.0022222222222222222,-0.2111111111111111],[0.0022222222222222222,-0.2111111111111111],[0.0022222222222222222,-0.2111111111111111],[0.0022222222222222222,-0.2111111111111111],[0.0022222222222222222,-0.2111111111111111],[0.0033333333333333335,-0.2111111111111111],[0.01888888888888889,-0.2111111111111111],[0.05333333333333334,-0.20444444444444446],[0.11777777777777777,-0.18888888888888888],[0.18777777777777777,-0.1711111111111111],[0.2588888888888889,-0.15444444444444444],[0.3244444444444444,-0.13777777777777778]]]",2,"[24,13]",,,,,,,,,,,,,,beach1.jpeg,space,2.671,0,15,15,21,1,botanicalGarden6.jpg,cemetery6.jpg,campusquad3.jpg,cave5.jpg,,
Image_List_5,,,,,,,,,,,,,,,,46463,2022-02-03_13h13.47.217,analogCatScenes,2020.1.3,MacIntel,60,"[1440,900]","[[[0.0033333333333333335,-0.20666666666666667],[0.0033333333333333335,-0.20666666666666667],[0.0033333333333333335,-0.20666666666666667],[0.0033333333333333335,-0.20666666666666667],[0.0033333333333333335,-0.20666666666666667],[0.0033333333333333335,-0.20666666666666667],[-0.006666666666666667,-0.2],[-0.03333333333333333,-0.18333333333333332],[-0.11,-0.13555555555555557],[-0.16555555555555557,-0.10222222222222223],[-0.21222222222222223,-0.07555555555555556],[-0.24444444444444444,-0.058888888888888886],[-0.2733333333333333,-0.04555555555555556],[-0.28444444444444444,-0.042222222222222223],[-0.2922222222222222,-0.04],[-0.2966666666666667,-0.03888888888888889],[-0.29777777777777775,-0.03888888888888889]]]",1,[17],,,,,,,,,,,,,,tvstudio3.jpg,space,1.746,0,16,16,95,1,waitingroom2.jpg,warehouse2.jpg,stripmall6.jpg,weightroom4.jpg,,
Image_List_5,,,,,,,,,,,,,,,,46463,2022-02-03_13h13.47.217,analogCatScenes,2020.1.3,MacIntel,60,"[1440,900]","[[[-0.005555555555555556,-0.2111111111111111],[-0.005555555555555556,-0.2111111111111111],[-0.005555555555555556,-0.2111111111111111],[-0.006666666666666667,-0.2111111111111111],[-0.015555555555555555,-0.2111111111111111],[-0.03888888888888889,-0.20444444444444446],[-0.07555555555555556,-0.19],[-0.09777777777777778,-0.1811111111111111],[-0.12555555555555556,-0.1688888888888889],[-0.13777777777777778,-0.16444444444444445],[-0.14888888888888888,-0.15777777777777777],[-0.15666666666666668,-0.15222222222222223],[-0.1622222222222222,-0.14555555555555555],[-0.17,-0.1322222222222222],[-0.17888888888888888,-0.11888888888888889],[-0.18666666666666668,-0.10888888888888888],[-0.19555555555555557,-0.09555555555555556],[-0.2011111111111111,-0.08777777777777777],[-0.20555555555555555,-0.08222222222222222],[-0.2088888888888889,-0.07777777777777778],[-0.2111111111111111,-0.07444444444444444],[-0.21222222222222223,-0.07333333333333333],[-0.21222222222222223,-0.07222222222222222],[-0.21222222222222223,-0.07222222222222222],[-0.21222222222222223,-0.07111111111111111],[-0.21222222222222223,-0.07],[-0.21222222222222223,-0.06777777777777778],[-0.21222222222222223,-0.06555555555555556],[-0.21333333333333335,-0.06444444444444444],[-0.21333333333333335,-0.06444444444444444],[-0.21333333333333335,-0.06444444444444444],[-0.21333333333333335,-0.06444444444444444],[-0.21333333333333335,-0.06444444444444444]],[[-0.0022222222222222222,-0.21222222222222223],[-0.0022222222222222222,-0.21222222222222223],[-0.0022222222222222222,-0.21222222222222223],[-0.0022222222222222222,-0.21222222222222223],[-0.0022222222222222222,-0.21222222222222223],[0,-0.21222222222222223],[0.011111111111111112,-0.21222222222222223],[0.02666666666666667,-0.21222222222222223],[0.05,-0.21222222222222223],[0.07888888888888888,-0.21222222222222223],[0.11222222222222222,-0.21222222222222223],[0.15222222222222223,-0.21222222222222223],[0.18777777777777777,-0.21222222222222223],[0.2288888888888889,-0.20666666666666667],[0.24333333333333335,-0.2011111111111111],[0.26666666666666666,-0.18777777777777777],[0.28,-0.17777777777777778],[0.2911111111111111,-0.17],[0.3,-0.16111111111111112],[0.30666666666666664,-0.15555555555555556],[0.31,-0.1511111111111111],[0.31333333333333335,-0.14888888888888888],[0.31444444444444447,-0.14777777777777779],[0.31555555555555553,-0.14666666666666667],[0.31555555555555553,-0.14555555555555555],[0.31555555555555553,-0.14555555555555555]]]",2,"[33,26]",,,,,,,,,,,,,,fountain.jpg,space,3.271,0,17,17,53,1,gazebo3.jpg,homeoffice.jpg,frontLawn3.jpg,homegarage3.jpg,,
Image_List_5,,,,,,,,,,,,,,,,46463,2022-02-03_13h13.47.217,analogCatScenes,2020.1.3,MacIntel,60,"[1440,900]","[[[-0.005555555555555556,-0.19111111111111112],[-0.005555555555555556,-0.19111111111111112],[-0.005555555555555556,-0.19111111111111112],[-0.005555555555555556,-0.19],[-0.005555555555555556,-0.1711111111111111],[-0.005555555555555556,-0.1388888888888889],[-0.005555555555555556,-0.08555555555555555],[-0.005555555555555556,-0.043333333333333335],[-0.005555555555555556,-0.028888888888888888],[-0.005555555555555556,-0.0044444444444444444],[-0.005555555555555556,-0.0011111111111111111],[-0.005555555555555556,0],[-0.005555555555555556,0],[-0.005555555555555556,0],[-0.005555555555555556,0],[-0.005555555555555556,0],[-0.005555555555555556,0.0044444444444444444],[-0.005555555555555556,0.008888888888888889],[-0.005555555555555556,0.013333333333333334]]]",1,[19],,,,,,,,,,,,,,RVinside2.jpg,space,1.544,0,18,18,87,1,restaurantkitchen2.jpg,theater2.jpg,savanna.jpg,sculpturegarden2.jpg,,
Image_List_5,,,,,,,,,,,,,,,,46463,2022-02-03_13h13.47.217,analogCatScenes,2020.1.3,MacIntel,60,"[1440,900]","[[[0.0044444444444444444,-0.18777777777777777],[0.0044444444444444444,-0.18777777777777777],[0.0044444444444444444,-0.18777777777777777],[0.0044444444444444444,-0.18666666666666668],[0.011111111111111112,-0.17444444444444446],[0.044444444444444446,-0.12666666666666668],[0.07555555555555556,-0.08555555555555555],[0.10444444444444445,-0.04555555555555556],[0.14,-0.0022222222222222222],[0.1622222222222222,0.03222222222222222],[0.1711111111111111,0.04777777777777778],[0.17444444444444446,0.058888888888888886],[0.17444444444444446,0.06888888888888889],[0.17444444444444446,0.07666666666666666],[0.17222222222222222,0.09111111111111111],[0.16777777777777778,0.10777777777777778],[0.1622222222222222,0.12],[0.15888888888888889,0.12555555555555556],[0.15666666666666668,0.13],[0.15555555555555556,0.1322222222222222],[0.15555555555555556,0.1322222222222222]],[[0.011111111111111112,-0.20222222222222222],[0.011111111111111112,-0.20222222222222222],[0.011111111111111112,-0.20222222222222222],[0.011111111111111112,-0.20222222222222222],[0.011111111111111112,-0.20222222222222222],[0.011111111111111112,-0.20222222222222222],[0.011111111111111112,-0.20222222222222222],[0.011111111111111112,-0.20222222222222222],[0.011111111111111112,-0.20222222222222222],[0.005555555555555556,-0.20222222222222222],[-0.027777777777777776,-0.2011111111111111],[-0.05333333333333334,-0.19555555555555557],[-0.10888888888888888,-0.17666666666666667],[-0.15777777777777777,-0.14888888888888888],[-0.2,-0.11666666666666667],[-0.22333333333333333,-0.09],[-0.25,-0.05333333333333334],[-0.2722222222222222,-0.013333333333333334],[-0.2833333333333333,0.011111111111111112],[-0.2911111111111111,0.027777777777777776],[-0.29777777777777775,0.04111111111111111],[-0.3022222222222222,0.04888888888888889],[-0.3022222222222222,0.05],[-0.3022222222222222,0.05],[-0.3022222222222222,0.05],[-0.3022222222222222,0.05]]]",2,"[21,26]",,,,,,,,,,,,,,parkinggarage4.jpg,space,2.508,0,19,19,80,1,pavilion2.jpg,racecarcourse2.jpg,porch.jpg,poolhall5.jpg,,
Image_List_5,,,,,,,,,,,,,,,,46463,2022-02-03_13h13.47.217,analogCatScenes,2020.1.3,MacIntel,60,"[1440,900]","[[[0.005555555555555556,-0.2],[0.005555555555555556,-0.2],[0.005555555555555556,-0.2],[0.005555555555555556,-0.2],[0.005555555555555556,-0.2],[-0.0033333333333333335,-0.19444444444444445],[-0.014444444444444444,-0.18333333333333332],[-0.028888888888888888,-0.17],[-0.052222222222222225,-0.14444444444444443],[-0.08666666666666667,-0.10222222222222223],[-0.11888888888888889,-0.058888888888888886],[-0.14222222222222222,-0.028888888888888888],[-0.1688888888888889,0.01],[-0.18,0.027777777777777776],[-0.19,0.04777777777777778],[-0.19333333333333333,0.058888888888888886],[-0.19777777777777777,0.07444444444444444],[-0.2011111111111111,0.08666666666666667],[-0.20444444444444446,0.09444444444444444],[-0.20777777777777778,0.10222222222222223],[-0.21,0.10666666666666667],[-0.2111111111111111,0.10777777777777778],[-0.2111111111111111,0.10888888888888888],[-0.2111111111111111,0.10888888888888888],[-0.2111111111111111,0.10888888888888888],[-0.21222222222222223,0.10888888888888888]]]",1,[26],,,,,,,,,,,,,,barbershop2.jpg,space,1.714,0,20,20,16,1,basement.jpg,cafeteria6.jpg,breakroom2.jpg,campusquad4.jpg,,
Image_List_5,,,,,,,,,,,,,,,,46463,2022-02-03_13h13.47.217,analogCatScenes,2020.1.3,MacIntel,60,"[1440,900]","[[[-0.0044444444444444444,-0.2],[-0.0044444444444444444,-0.2],[-0.0044444444444444444,-0.2],[-0.0044444444444444444,-0.19111111111111112],[-0.0044444444444444444,-0.16333333333333333],[-0.0044444444444444444,-0.11],[-0.0044444444444444444,-0.042222222222222223],[-0.0044444444444444444,0],[-0.0044444444444444444,0.03111111111111111],[-0.0044444444444444444,0.08222222222222222],[-0.0044444444444444444,0.09111111111111111],[-0.0044444444444444444,0.09666666666666666],[-0.0044444444444444444,0.09888888888888889],[-0.0044444444444444444,0.1],[-0.0044444444444444444,0.1],[-0.0044444444444444444,0.1]]]",1,[16],,,,,,,,,,,,,,alley4.jpg,space,1.529,0,21,21,4,1,artStudio1.jpg,baggageClaim2.jpg,auto_showroom1.jpg,appleorchard3.jpg,,
Image_List_5,,,,,,,,,,,,,,,,46463,2022-02-03_13h13.47.217,analogCatScenes,2020.1.3,MacIntel,60,"[1440,900]","[[[-0.0033333333333333335,-0.19777777777777777],[-0.0033333333333333335,-0.19777777777777777],[-0.0033333333333333335,-0.19777777777777777],[-0.0033333333333333335,-0.19777777777777777],[-0.0033333333333333335,-0.19777777777777777],[-0.0033333333333333335,-0.19777777777777777],[-0.0033333333333333335,-0.19666666666666666],[-0.014444444444444444,-0.1688888888888889],[-0.034444444444444444,-0.09666666666666666],[-0.05444444444444444,0.013333333333333334],[-0.06777777777777778,0.09222222222222222],[-0.07777777777777778,0.15333333333333332],[-0.07888888888888888,0.17222222222222222],[-0.08222222222222222,0.1988888888888889],[-0.08333333333333333,0.20777777777777778],[-0.08333333333333333,0.21],[-0.08333333333333333,0.21],[-0.08333333333333333,0.21],[-0.08333333333333333,0.21]]]",1,[19],,,,,,,,,,,,,,frontLawn2.jpg,space,2.721,0,22,22,55,1,greenmountains.jpg,hotelRoom3.jpg,gazebo5.jpg,hotelRoom7.jpg,,
Image_List_5,,,,,,,,,,,,,,,,46463,2022-02-03_13h13.47.217,analogCatScenes,2020.1.3,MacIntel,60,"[1440,900]","[[[0.0033333333333333335,-0.18888888888888888],[0.0033333333333333335,-0.18888888888888888],[0.0033333333333333335,-0.18888888888888888],[0.0033333333333333335,-0.18888888888888888],[0.0033333333333333335,-0.18888888888888888],[0.0033333333333333335,-0.18888888888888888],[0.0033333333333333335,-0.18888888888888888],[0.0033333333333333335,-0.18888888888888888],[0.0033333333333333335,-0.18222222222222223],[0.0033333333333333335,-0.14333333333333334],[0.0033333333333333335,-0.09888888888888889],[0.0033333333333333335,-0.028888888888888888],[0.0033333333333333335,0.023333333333333334],[0.005555555555555556,0.06],[0.006666666666666667,0.0811111111111111],[0.0077777777777777776,0.09666666666666666],[0.0077777777777777776,0.10222222222222223],[0.0077777777777777776,0.10444444444444445],[0.0077777777777777776,0.10444444444444445],[0.0077777777777777776,0.10444444444444445],[0.006666666666666667,0.10444444444444445],[0.006666666666666667,0.10444444444444445]]]",1,[22],,,,,,,,,,,,,,library_aisle9.jpg,space,1.812,0,23,23,73,1,musicStore3.jpg,photographer_studio2.jpg,nursery.jpg,nursery4.jpg,,
Image_List_5,,,,,,,,,,,,,,,,46463,2022-02-03_13h13.47.217,analogCatScenes,2020.1.3,MacIntel,60,"[1440,900]","[[[0.0033333333333333335,-0.2],[0.0033333333333333335,-0.2],[0.0033333333333333335,-0.2],[0.0033333333333333335,-0.2],[0.0033333333333333335,-0.2],[0.0077777777777777776,-0.2],[0.042222222222222223,-0.19666666666666666],[0.10222222222222223,-0.18444444444444444],[0.20333333333333334,-0.17],[0.2544444444444444,-0.16444444444444445],[0.29,-0.16333333333333333],[0.3188888888888889,-0.16],[0.33,-0.15777777777777777],[0.33666666666666667,-0.15666666666666668],[0.3377777777777778,-0.15666666666666668],[0.3377777777777778,-0.15666666666666668]]]",1,[16],,,,,,,,,,,,,,cabinIndoors5.jpg,space,2.48,0,24,24,33,1,deck1.jpg,diningroom1.jpg,courthouse2.jpg,diner10.jpg,,
Image_List_5,,,,,,,,,,,,,,,,46463,2022-02-03_13h13.47.217,analogCatScenes,2020.1.3,MacIntel,60,"[1440,900]","[[[-0.0022222222222222222,-0.19111111111111112],[-0.0022222222222222222,-0.19111111111111112],[-0.0022222222222222222,-0.19111111111111112],[-0.0022222222222222222,-0.19111111111111112],[-0.0022222222222222222,-0.19111111111111112],[-0.0022222222222222222,-0.19111111111111112],[-0.0022222222222222222,-0.19111111111111112],[-0.0022222222222222222,-0.19111111111111112],[0.0033333333333333335,-0.19111111111111112],[0.022222222222222223,-0.19111111111111112],[0.07888888888888888,-0.18555555555555556],[0.14444444444444443,-0.18555555555555556],[0.20666666666666667,-0.18555555555555556],[0.24444444444444444,-0.18555555555555556],[0.2733333333333333,-0.18555555555555556],[0.3011111111111111,-0.18555555555555556],[0.31333333333333335,-0.18555555555555556],[0.3211111111111111,-0.18555555555555556],[0.32555555555555554,-0.18555555555555556],[0.3277777777777778,-0.18444444444444444],[0.3277777777777778,-0.18333333333333332],[0.3277777777777778,-0.1811111111111111],[0.3277777777777778,-0.17888888888888888]]]",1,[23],,,,,,,,,,,,,,carmechanic2.jpg,space,1.687,0,25,25,35,1,deck5.jpg,dock3.jpg,cubicle7.jpg,dining_car6.jpg,,
Image_List_5,,,,,,,,,,,,,,,,46463,2022-02-03_13h13.47.217,analogCatScenes,2020.1.3,MacIntel,60,"[1440,900]","[[[0.01,-0.20777777777777778],[0.01,-0.20777777777777778],[0.01,-0.20777777777777778],[0.01,-0.20777777777777778],[0.012222222222222223,-0.20555555555555555],[0.025555555555555557,-0.18888888888888888],[0.056666666666666664,-0.1511111111111111],[0.09777777777777778,-0.10111111111111111],[0.12444444444444444,-0.07111111111111111],[0.15333333333333332,-0.03777777777777778],[0.16555555555555557,-0.025555555555555557],[0.17666666666666667,-0.012222222222222223],[0.1811111111111111,-0.008888888888888889],[0.18222222222222223,-0.0077777777777777776],[0.18222222222222223,-0.006666666666666667],[0.18222222222222223,-0.006666666666666667],[0.18222222222222223,-0.006666666666666667]]]",1,[17],,,,,,,,,,,,,,soccerfield2.jpg,space,1.614,0,26,26,92,1,staircase.jpg,volleyballcourt.jpg,skatepark7.jpg,tvstudio2.jpg,,
Image_List_5,,,,,,,,,,,,,,,,46463,2022-02-03_13h13.47.217,analogCatScenes,2020.1.3,MacIntel,60,"[1440,900]","[[[-0.0033333333333333335,-0.2],[-0.0033333333333333335,-0.2],[-0.0033333333333333335,-0.2],[-0.006666666666666667,-0.19777777777777777],[-0.023333333333333334,-0.18222222222222223],[-0.06111111111111111,-0.13777777777777778],[-0.09222222222222222,-0.09888888888888889],[-0.12111111111111111,-0.06444444444444444],[-0.15555555555555556,-0.028888888888888888],[-0.17,-0.016666666666666666],[-0.17888888888888888,-0.01],[-0.18555555555555556,-0.0044444444444444444],[-0.18666666666666668,-0.0033333333333333335],[-0.18666666666666668,-0.0033333333333333335],[-0.18666666666666668,-0.0033333333333333335],[-0.18666666666666668,-0.0033333333333333335],[-0.18666666666666668,-0.0033333333333333335]]]",1,[17],,,,,,,,,,,,,,cabin3.jpg,space,3.684,0,27,27,31,1,cubicle4.jpg,desertvegetation6.jpg,conference4.jpg,courtroom2.jpg,,
Image_List_5,,,,,,,,,,,,,,,,46463,2022-02-03_13h13.47.217,analogCatScenes,2020.1.3,MacIntel,60,"[1440,900]","[[[0.005555555555555556,-0.19666666666666666],[0.005555555555555556,-0.19666666666666666],[0.005555555555555556,-0.19666666666666666],[0.005555555555555556,-0.19666666666666666],[0.005555555555555556,-0.19666666666666666],[0.005555555555555556,-0.19333333333333333],[0.016666666666666666,-0.18333333333333332],[0.04111111111111111,-0.16666666666666666],[0.07555555555555556,-0.14555555555555555],[0.11555555555555555,-0.12444444444444444],[0.16,-0.10333333333333333],[0.18777777777777777,-0.09333333333333334],[0.22111111111111112,-0.0811111111111111],[0.2288888888888889,-0.07888888888888888],[0.24222222222222223,-0.07444444444444444],[0.24888888888888888,-0.07222222222222222],[0.24888888888888888,-0.07],[0.24888888888888888,-0.06777777777777778]]]",1,[18],,,,,,,,,,,,,,desertvegetation2.jpg,space,2.621,0,28,28,42,1,exerciseequipment3.jpg,firestation3.jpg,drymountains6.jpg,farm4.jpg,,
Image_List_5,,,,,,,,,,,,,,,,46463,2022-02-03_13h13.47.217,analogCatScenes,2020.1.3,MacIntel,60,"[1440,900]","[[[-0.005555555555555556,-0.19777777777777777],[-0.005555555555555556,-0.19777777777777777],[-0.005555555555555556,-0.19777777777777777],[-0.005555555555555556,-0.19777777777777777],[-0.005555555555555556,-0.19777777777777777],[-0.005555555555555556,-0.19777777777777777],[-0.005555555555555556,-0.19777777777777777],[-0.0077777777777777776,-0.19777777777777777],[-0.024444444444444446,-0.19555555555555557],[-0.07222222222222222,-0.1811111111111111],[-0.13333333333333333,-0.15777777777777777],[-0.19777777777777777,-0.1322222222222222],[-0.23777777777777778,-0.11333333333333333],[-0.26222222222222225,-0.09888888888888889],[-0.2722222222222222,-0.09222222222222222],[-0.2777777777777778,-0.08777777777777777],[-0.28,-0.08444444444444445],[-0.2822222222222222,-0.08222222222222222],[-0.28444444444444444,-0.07888888888888888],[-0.2866666666666667,-0.07666666666666666],[-0.28888888888888886,-0.07444444444444444],[-0.29,-0.07333333333333333],[-0.2911111111111111,-0.07222222222222222],[-0.2911111111111111,-0.07222222222222222],[-0.2922222222222222,-0.07111111111111111],[-0.2922222222222222,-0.07],[-0.2922222222222222,-0.06888888888888889],[-0.2922222222222222,-0.06888888888888889],[-0.2922222222222222,-0.06777777777777778],[-0.2922222222222222,-0.06666666666666667],[-0.2922222222222222,-0.06555555555555556],[-0.29333333333333333,-0.06333333333333334],[-0.29444444444444445,-0.06],[-0.2966666666666667,-0.057777777777777775],[-0.29888888888888887,-0.05444444444444444],[-0.3,-0.052222222222222225],[-0.3011111111111111,-0.051111111111111114],[-0.3011111111111111,-0.051111111111111114],[-0.3022222222222222,-0.05],[-0.30333333333333334,-0.04888888888888889],[-0.30444444444444446,-0.04888888888888889],[-0.30444444444444446,-0.04777777777777778],[-0.3055555555555556,-0.04777777777777778],[-0.3055555555555556,-0.04666666666666667],[-0.30666666666666664,-0.04666666666666667],[-0.30777777777777776,-0.044444444444444446],[-0.3088888888888889,-0.044444444444444446],[-0.31,-0.043333333333333335],[-0.3111111111111111,-0.043333333333333335],[-0.3111111111111111,-0.043333333333333335]]]",1,[50],,,,,,,,,,,,,,pasture8.jpg,space,1.995,0,29,29,81,1,promenadeDeck.jpg,ruralroad5.jpg,promenadeDeck2.jpg,rainforest5.jpg,,
Image_List_5,,,,,,,,,,,,,,,,46463,2022-02-03_13h13.47.217,analogCatScenes,2020.1.3,MacIntel,60,"[1440,900]","[[[0,-0.1988888888888889],[0,-0.1988888888888889],[0,-0.1988888888888889],[0,-0.1988888888888889],[0,-0.1988888888888889],[0,-0.1988888888888889],[0.0011111111111111111,-0.19333333333333333],[0.013333333333333334,-0.17222222222222222],[0.04888888888888889,-0.12222222222222222],[0.08666666666666667,-0.08444444444444445],[0.11,-0.06444444444444444],[0.14555555555555555,-0.03888888888888889],[0.17555555555555555,-0.02],[0.19111111111111112,-0.011111111111111112],[0.2011111111111111,-0.005555555555555556],[0.21222222222222223,0.0033333333333333335],[0.21888888888888888,0.01],[0.22111111111111112,0.014444444444444444],[0.2222222222222222,0.01888888888888889],[0.22333333333333333,0.01888888888888889]]]",1,[20],,,,,,,,,,,,,,basketballcourt7.jpg,space,1.313,0,30,30,20,1,boardwalk6.jpg,cave.jpg,campsite3.jpg,cave4.jpg,,
Image_List_5,,,,,,,,,,,,,,,,46463,2022-02-03_13h13.47.217,analogCatScenes,2020.1.3,MacIntel,60,"[1440,900]","[[[0.0044444444444444444,-0.19111111111111112],[0.0044444444444444444,-0.19111111111111112],[0.0044444444444444444,-0.19111111111111112],[0.0044444444444444444,-0.19111111111111112],[0.0044444444444444444,-0.19111111111111112],[0.0044444444444444444,-0.19111111111111112],[0.0044444444444444444,-0.18888888888888888],[0.0044444444444444444,-0.17222222222222222],[0.008888888888888889,-0.14222222222222222],[0.03,-0.09],[0.04666666666666667,-0.051111111111111114],[0.06,-0.024444444444444446],[0.07222222222222222,-0.0011111111111111111],[0.07666666666666666,0.0077777777777777776],[0.07777777777777778,0.011111111111111112],[0.07777777777777778,0.013333333333333334],[0.07777777777777778,0.015555555555555555],[0.07777777777777778,0.016666666666666666],[0.07888888888888888,0.021111111111111112],[0.08,0.025555555555555557],[0.0811111111111111,0.027777777777777776],[0.08222222222222222,0.03111111111111111],[0.08222222222222222,0.03111111111111111],[0.08333333333333333,0.03111111111111111],[0.08333333333333333,0.03111111111111111],[0.08555555555555555,0.03222222222222222],[0.08777777777777777,0.03333333333333333],[0.09111111111111111,0.03666666666666667],[0.09555555555555556,0.04]]]",1,[29],,,,,,,,,,,,,,alley3.jpg,space,1.708,0,31,31,3,1,apartmentBuilding2.jpg,attic1.jpg,aquarium1.jpg,appleorchard2.jpg,,
Image_List_5,,,,,,,,,,,,,,,,46463,2022-02-03_13h13.47.217,analogCatScenes,2020.1.3,MacIntel,60,"[1440,900]","[[[-0.0011111111111111111,-0.2111111111111111],[-0.0011111111111111111,-0.2111111111111111],[-0.0011111111111111111,-0.2111111111111111],[-0.0011111111111111111,-0.2111111111111111],[-0.0011111111111111111,-0.2111111111111111],[-0.0011111111111111111,-0.2111111111111111],[-0.0011111111111111111,-0.2111111111111111],[0.0011111111111111111,-0.2111111111111111],[0.017777777777777778,-0.2088888888888889],[0.052222222222222225,-0.2],[0.07444444444444444,-0.19444444444444445],[0.10666666666666667,-0.18555555555555556],[0.13555555555555557,-0.17666666666666667],[0.16,-0.16555555555555557],[0.18222222222222223,-0.15222222222222223],[0.19555555555555557,-0.1411111111111111],[0.20444444444444446,-0.1322222222222222],[0.21444444444444444,-0.12111111111111111],[0.21666666666666667,-0.11777777777777777],[0.21666666666666667,-0.11555555555555555],[0.21666666666666667,-0.11555555555555555],[0.21666666666666667,-0.11555555555555555],[0.21666666666666667,-0.11555555555555555],[0.21444444444444444,-0.11555555555555555]]]",1,[24],,,,,,,,,,,,,,homeoffice8.jpg,space,1.395,0,32,32,65,1,igloo5.jpg,newsstand7.jpg,laundromat2.jpeg,labClass7.jpg,,
Image_List_5,,,,,,,,,,,,,,,,46463,2022-02-03_13h13.47.217,analogCatScenes,2020.1.3,MacIntel,60,"[1440,900]","[[[0.0033333333333333335,-0.2],[0.0033333333333333335,-0.2],[0.0033333333333333335,-0.2],[-0.0033333333333333335,-0.2],[-0.03222222222222222,-0.2],[-0.07777777777777778,-0.2],[-0.13333333333333333,-0.2],[-0.1688888888888889,-0.2],[-0.21777777777777776,-0.19333333333333333],[-0.2544444444444444,-0.18666666666666668],[-0.2866666666666667,-0.17888888888888888],[-0.3022222222222222,-0.17444444444444446],[-0.3188888888888889,-0.17],[-0.3277777777777778,-0.16666666666666666],[-0.33111111111111113,-0.16555555555555557],[-0.3333333333333333,-0.16444444444444445],[-0.33444444444444443,-0.16333333333333333],[-0.33444444444444443,-0.1622222222222222],[-0.33555555555555555,-0.16111111111111112],[-0.33555555555555555,-0.16111111111111112],[-0.33555555555555555,-0.16111111111111112],[-0.33555555555555555,-0.16111111111111112],[-0.33555555555555555,-0.16111111111111112],[-0.33555555555555555,-0.16111111111111112],[-0.33555555555555555,-0.16111111111111112],[-0.33555555555555555,-0.16111111111111112],[-0.33555555555555555,-0.16111111111111112],[-0.33555555555555555,-0.16111111111111112],[-0.33555555555555555,-0.16111111111111112],[-0.33555555555555555,-0.16111111111111112],[-0.33555555555555555,-0.16111111111111112],[-0.33555555555555555,-0.16111111111111112],[-0.33555555555555555,-0.16111111111111112],[-0.33555555555555555,-0.16111111111111112],[-0.33555555555555555,-0.16111111111111112],[-0.33666666666666667,-0.16],[-0.33666666666666667,-0.16],[-0.33666666666666667,-0.16],[-0.33666666666666667,-0.16],[-0.33666666666666667,-0.16],[-0.33666666666666667,-0.16],[-0.33666666666666667,-0.16],[-0.33666666666666667,-0.16],[-0.33666666666666667,-0.16],[-0.33666666666666667,-0.16],[-0.33555555555555555,-0.16],[-0.33555555555555555,-0.16],[-0.33555555555555555,-0.16],[-0.33555555555555555,-0.16],[-0.33444444444444443,-0.16],[-0.33444444444444443,-0.16],[-0.3333333333333333,-0.16],[-0.3333333333333333,-0.16111111111111112],[-0.3322222222222222,-0.16111111111111112],[-0.33111111111111113,-0.1622222222222222],[-0.33111111111111113,-0.1622222222222222],[-0.33,-0.1622222222222222],[-0.3288888888888889,-0.1622222222222222],[-0.3288888888888889,-0.16333333333333333],[-0.3277777777777778,-0.16333333333333333],[-0.32666666666666666,-0.16444444444444445],[-0.32555555555555554,-0.16444444444444445],[-0.3233333333333333,-0.16555555555555557],[-0.31555555555555553,-0.16777777777777778],[-0.3088888888888889,-0.1688888888888889],[-0.3,-0.17],[-0.2877777777777778,-0.1711111111111111],[-0.2733333333333333,-0.17333333333333334],[-0.2577777777777778,-0.17555555555555555],[-0.24222222222222223,-0.17666666666666667],[-0.22666666666666666,-0.18],[-0.2111111111111111,-0.18222222222222223],[-0.19666666666666666,-0.18444444444444444],[-0.18333333333333332,-0.18777777777777777],[-0.1711111111111111,-0.19],[-0.16,-0.19444444444444445],[-0.15444444444444444,-0.19555555555555557],[-0.1511111111111111,-0.19777777777777777],[-0.14777777777777779,-0.1988888888888889],[-0.14222222222222222,-0.2],[-0.13666666666666666,-0.2011111111111111],[-0.1288888888888889,-0.20333333333333334],[-0.12111111111111111,-0.20555555555555555],[-0.11666666666666667,-0.20666666666666667],[-0.1111111111111111,-0.20777777777777778],[-0.10333333333333333,-0.2088888888888889],[-0.09777777777777778,-0.21],[-0.09333333333333334,-0.2111111111111111],[-0.08777777777777777,-0.21222222222222223],[-0.08333333333333333,-0.21333333333333335],[-0.08,-0.21333333333333335],[-0.07666666666666666,-0.21333333333333335],[-0.07444444444444444,-0.21333333333333335],[-0.07222222222222222,-0.21444444444444444],[-0.06888888888888889,-0.21444444444444444],[-0.06666666666666667,-0.21444444444444444],[-0.06555555555555556,-0.21444444444444444],[-0.06444444444444444,-0.21444444444444444],[-0.06333333333333334,-0.21444444444444444],[-0.06222222222222222,-0.21444444444444444],[-0.06222222222222222,-0.21444444444444444],[-0.06,-0.21444444444444444],[-0.057777777777777775,-0.21444444444444444],[-0.05555555555555555,-0.21444444444444444],[-0.05333333333333334,-0.21444444444444444],[-0.05,-0.21444444444444444],[-0.04777777777777778,-0.21444444444444444],[-0.044444444444444446,-0.21444444444444444],[-0.042222222222222223,-0.21444444444444444],[-0.03888888888888889,-0.21444444444444444],[-0.03666666666666667,-0.21444444444444444],[-0.034444444444444444,-0.21444444444444444],[-0.03222222222222222,-0.21444444444444444],[-0.03111111111111111,-0.21444444444444444],[-0.03,-0.21444444444444444],[-0.028888888888888888,-0.21444444444444444],[-0.028888888888888888,-0.21444444444444444],[-0.027777777777777776,-0.21444444444444444],[-0.02666666666666667,-0.21444444444444444],[-0.02666666666666667,-0.21333333333333335],[-0.025555555555555557,-0.21333333333333335],[-0.025555555555555557,-0.21333333333333335],[-0.025555555555555557,-0.21333333333333335],[-0.025555555555555557,-0.21222222222222223]],[[-0.008888888888888889,-0.20333333333333334],[-0.008888888888888889,-0.20333333333333334],[-0.008888888888888889,-0.20333333333333334],[-0.008888888888888889,-0.20333333333333334],[-0.008888888888888889,-0.20333333333333334],[-0.008888888888888889,-0.20333333333333334],[-0.008888888888888889,-0.20333333333333334],[-0.005555555555555556,-0.20333333333333334],[0.03,-0.20333333333333334],[0.07,-0.20333333333333334],[0.11444444444444445,-0.20333333333333334],[0.16111111111111112,-0.20333333333333334],[0.19555555555555557,-0.20333333333333334],[0.24222222222222223,-0.20333333333333334],[0.28,-0.20333333333333334],[0.2966666666666667,-0.20333333333333334],[0.30666666666666664,-0.20333333333333334],[0.31444444444444447,-0.20333333333333334],[0.32,-0.20333333333333334],[0.32222222222222224,-0.20333333333333334],[0.32555555555555554,-0.20222222222222222],[0.3277777777777778,-0.2011111111111111],[0.33,-0.2011111111111111],[0.33111111111111113,-0.2],[0.33111111111111113,-0.2],[0.3322222222222222,-0.2],[0.3322222222222222,-0.2],[0.3322222222222222,-0.1988888888888889],[0.3322222222222222,-0.1988888888888889],[0.3322222222222222,-0.1988888888888889],[0.3322222222222222,-0.1988888888888889],[0.3322222222222222,-0.1988888888888889],[0.3322222222222222,-0.19666666666666666],[0.33111111111111113,-0.1922222222222222],[0.32666666666666666,-0.18444444444444444],[0.3188888888888889,-0.17444444444444446],[0.3188888888888889,-0.17444444444444446]]]",2,"[124,37]",,,,,,,,,,,,,,gazebo.jpg,space,7.829,0,33,33,57,1,hayfield5.jpg,jail1.jpg,hallway4.jpg,hut5.jpg,,
Image_List_5,,,,,,,,,,,,,,,,46463,2022-02-03_13h13.47.217,analogCatScenes,2020.1.3,MacIntel,60,"[1440,900]","[[[-0.0033333333333333335,-0.2],[-0.0033333333333333335,-0.2],[-0.0033333333333333335,-0.2],[-0.0033333333333333335,-0.2],[-0.0033333333333333335,-0.2],[-0.0033333333333333335,-0.2],[-0.0022222222222222222,-0.2],[0.011111111111111112,-0.2],[0.08333333333333333,-0.18555555555555556],[0.13111111111111112,-0.17777777777777778],[0.20444444444444446,-0.16555555555555557],[0.25,-0.15888888888888889],[0.2822222222222222,-0.15444444444444444],[0.30333333333333334,-0.1511111111111111],[0.31666666666666665,-0.15],[0.3233333333333333,-0.14777777777777779],[0.32555555555555554,-0.14666666666666667],[0.32555555555555554,-0.14555555555555555],[0.32555555555555554,-0.14333333333333334]]]",1,[19],,,,,,,,,,,,,,bar8.jpg,space,1.903,0,34,34,15,1,bambooforest4.jpg,cafeteria5.jpg,bleachers8.jpg,cabinIndoors.jpg,,
Image_List_5,,,,,,,,,,,,,,,,46463,2022-02-03_13h13.47.217,analogCatScenes,2020.1.3,MacIntel,60,"[1440,900]","[[[-0.0011111111111111111,-0.20444444444444446],[-0.0011111111111111111,-0.20444444444444446],[-0.0011111111111111111,-0.20444444444444446],[-0.0011111111111111111,-0.20444444444444446],[-0.0011111111111111111,-0.20444444444444446],[-0.0011111111111111111,-0.20444444444444446],[-0.0011111111111111111,-0.20444444444444446],[0.0011111111111111111,-0.20333333333333334],[0.017777777777777778,-0.19333333333333333],[0.04111111111111111,-0.17333333333333334],[0.06444444444444444,-0.15888888888888889],[0.09777777777777778,-0.14444444444444443],[0.12,-0.13555555555555557],[0.14222222222222222,-0.1288888888888889],[0.15444444444444444,-0.12666666666666668],[0.17,-0.12222222222222222],[0.17555555555555555,-0.12222222222222222],[0.17888888888888888,-0.12111111111111111],[0.1811111111111111,-0.12],[0.18333333333333332,-0.12],[0.18444444444444444,-0.12],[0.18777777777777777,-0.11888888888888889]]]",1,[22],,,,,,,,,,,,,,amusement3.jpg,space,1.362,0,35,35,5,1,artStudio3.jpg,bambooforest.jpg,auto_showroom4.jpg,attic4.jpg,,
Image_List_5,,,,,,,,,,,,,,,,46463,2022-02-03_13h13.47.217,analogCatScenes,2020.1.3,MacIntel,60,"[1440,900]","[[[0.008888888888888889,-0.2],[0.008888888888888889,-0.2],[0.008888888888888889,-0.2],[0.008888888888888889,-0.2],[0.008888888888888889,-0.2],[0.008888888888888889,-0.2],[0.008888888888888889,-0.2],[0.008888888888888889,-0.19777777777777777],[0.0044444444444444444,-0.18777777777777777],[-0.0011111111111111111,-0.17555555555555555],[-0.014444444444444444,-0.14333333333333334],[-0.027777777777777776,-0.09888888888888889],[-0.04,-0.052222222222222225],[-0.04,-0.03222222222222222],[-0.04,-0.015555555555555555],[-0.04,-0.0011111111111111111],[-0.04,0.006666666666666667],[-0.03666666666666667,0.008888888888888889],[-0.03222222222222222,0.01],[-0.027777777777777776,0.01],[-0.027777777777777776,0.01],[-0.027777777777777776,0.01],[-0.027777777777777776,0.01],[-0.027777777777777776,0.01]]]",1,[24],,,,,,,,,,,,,,applestore4.jpg,space,11.395,0,36,36,8,1,attic3.jpg,banquetHall6.jpg,balconyIN.jpg,bar.jpg,,
