image_list,key_resp_intructions.keys,key_resp_intructions.rt,key_resp_intructions_3.keys,key_resp_intructions_3.rt,PracticeComplete_2.keys,PracticeComplete_2.rt,PracticeComplete_3.keys,PracticeComplete_3.rt,demo_trials.thisRepN,demo_trials.thisTrialN,demo_trials.thisN,demo_trials.thisIndex,demo_trials.ran,demo_images,path_images,participant,date,expName,psychopyVersion,OS,frameRate,windowSize,drawing,numDrawings,drawingSizes,practice_complete.keys,practice_complete.rt,PracticeComplete.keys,PracticeComplete.rt,practice_trials.thisRepN,practice_trials.thisTrialN,practice_trials.thisN,practice_trials.thisIndex,practice_trials.ran,practice_images,feedback_images,key_resp_intructions_2.keys,key_resp_intructions_2.rt,Image_List_1,trial_complete.keys,trial_complete.rt,trials.thisRepN,trials.thisTrialN,trials.thisN,trials.thisIndex,trials.ran,Image_List_2,Image_List_3,Image_List_4,Image_List_5,key_resp.keys,key_resp.rt
Image_List_1,space,23.8175,space,5.9291,space,3.3418,space,2.8221,0,0,0,2,1,ahead_right.jpg,ahead_right_path.jpg,46475,2022-03-15_10h14.49.571,analogCatScenes,2020.1.3,MacIntel,60,,,,,,,,,,,,,,,,,,,,,,,,,,,,,,,
Image_List_1,,,,,space,0.9404,space,0.8168,0,1,1,0,1,ahead.jpg,ahead_path.jpg,46475,2022-03-15_10h14.49.571,analogCatScenes,2020.1.3,MacIntel,60,,,,,,,,,,,,,,,,,,,,,,,,,,,,,,,
Image_List_1,,,,,space,0.6405,space,1.5775,0,2,2,5,1,right.jpg,right_path.jpg,46475,2022-03-15_10h14.49.571,analogCatScenes,2020.1.3,MacIntel,60,,,,,,,,,,,,,,,,,,,,,,,,,,,,,,,
Image_List_1,,,,,space,0.8224,space,1.0865,0,3,3,6,1,right_left.jpg,right_left_path.jpg,46475,2022-03-15_10h14.49.571,analogCatScenes,2020.1.3,MacIntel,60,,,,,,,,,,,,,,,,,,,,,,,,,,,,,,,
Image_List_1,,,,,space,0.564,space,0.5707,0,4,4,1,1,ahead_left.jpg,ahead_left_path.jpg,46475,2022-03-15_10h14.49.571,analogCatScenes,2020.1.3,MacIntel,60,,,,,,,,,,,,,,,,,,,,,,,,,,,,,,,
Image_List_1,,,,,space,0.5816,space,0.6757,0,5,5,4,1,left.jpg,left_path.jpg,46475,2022-03-15_10h14.49.571,analogCatScenes,2020.1.3,MacIntel,60,,,,,,,,,,,,,,,,,,,,,,,,,,,,,,,
Image_List_1,,,,,space,0.5395,space,1.3813,0,6,6,3,1,ahead_right_left.jpg,ahead_right_left_path.jpg,46475,2022-03-15_10h14.49.571,analogCatScenes,2020.1.3,MacIntel,60,,,,,,,,,,,,,,,,,,,,,,,,,,,,,,,
Image_List_1,,,,,,,,,,,,,,,,46475,2022-03-15_10h14.49.571,analogCatScenes,2020.1.3,MacIntel,60,"[1440,900]","[[[0.004609375,-0.19444444444444445],[0.004609375,-0.19444444444444445],[0.004609375,-0.19444444444444445],[0.004609375,-0.19444444444444445],[0.004609375,-0.19444444444444445],[0.004609375,-0.19444444444444445],[0.004609375,-0.19444444444444445],[0.004609375,-0.19415364583333333],[0.004609375,-0.19111545138888889],[0.0041970486111111115,-0.1870095486111111],[0.002395833333333333,-0.1821831597222222],[0.0005989583333333333,-0.1762282986111111],[-0.001796875,-0.1706814236111111],[-0.003029513888888889,-0.167109375],[-0.0042664930555555555,-0.16300347222222222],[-0.005407986111111111,-0.15996527777777778],[-0.0069921875,-0.15639322916666668],[-0.008450520833333334,-0.153828125],[-0.010668402777777778,-0.1497439236111111],[-0.01177951388888889,-0.14717881944444444],[-0.013237847222222222,-0.14461371527777778],[-0.014288194444444444,-0.1425217013888889],[-0.015338541666666667,-0.1404296875],[-0.01673611111111111,-0.13827256944444444],[-0.017786458333333335,-0.13618055555555555],[-0.018897569444444446,-0.1336154513888889],[-0.0200390625,-0.13057725694444444],[-0.02080295138888889,-0.1275390625],[-0.021536458333333335,-0.12497395833333333],[-0.022330729166666667,-0.12140190972222223],[-0.023125,-0.11782986111111111],[-0.024835069444444444,-0.11142361111111111],[-0.025629340277777777,-0.1078515625],[-0.02636284722222222,-0.10528645833333333],[-0.027065972222222224,-0.10319444444444445],[-0.028055555555555556,-0.10151041666666667],[-0.029014756944444445,-0.10055121527777777],[-0.02997395833333333,-0.09927517361111111],[-0.03125,-0.09799913194444444],[-0.032526041666666665,-0.09672309027777778],[-0.03348524305555556,-0.09544704861111111],[-0.03476128472222222,-0.09417100694444444],[-0.03575086805555556,-0.09248697916666666],[-0.03708767361111111,-0.09080295138888889],[-0.03962673611111111,-0.08756944444444445],[-0.04102430555555556,-0.08547743055555555],[-0.04286458333333333,-0.08328993055555556],[-0.04470486111111111,-0.08110243055555555],[-0.04610243055555555,-0.07901041666666667],[-0.0475,-0.07691840277777778],[-0.049019097222222224,-0.07388020833333334],[-0.050099826388888886,-0.07131510416666667],[-0.05155815972222222,-0.06875],[-0.052261284722222225,-0.06665798611111111],[-0.053311631944444444,-0.06456597222222223],[-0.053984375,-0.06288194444444445],[-0.05494357638888889,-0.06160590277777778],[-0.05590711805555556,-0.059691840277777776],[-0.056549479166666666,-0.05841579861111111],[-0.05716145833333333,-0.05748697916666667],[-0.057803819444444446,-0.0562109375],[-0.05841579861111111,-0.05528211805555556],[-0.05873697916666667,-0.054353298611111114],[-0.059027777777777776,-0.05377170138888889],[-0.05931857638888889,-0.05319010416666667],[-0.059609375,-0.052608506944444446],[-0.059609375,-0.052608506944444446],[-0.059609375,-0.05231770833333333],[-0.059609375,-0.05231770833333333],[-0.059609375,-0.05231770833333333],[-0.059609375,-0.05231770833333333]],[[0.004388020833333333,-0.19624131944444445],[0.004388020833333333,-0.19624131944444445],[0.004388020833333333,-0.19624131944444445],[0.004388020833333333,-0.19624131944444445],[0.004388020833333333,-0.19624131944444445],[0.004388020833333333,-0.19624131944444445],[0.004388020833333333,-0.19624131944444445],[0.004388020833333333,-0.19624131944444445],[0.004388020833333333,-0.19624131944444445],[0.004388020833333333,-0.19624131944444445],[0.004388020833333333,-0.19624131944444445],[0.004388020833333333,-0.19624131944444445],[0.004388020833333333,-0.19595052083333334],[0.0067230902777777775,-0.193671875],[0.00845920138888889,-0.19192708333333333],[0.012456597222222223,-0.18792100694444444],[0.017378472222222222,-0.1833984375],[0.021223958333333334,-0.17998697916666667],[0.025785590277777777,-0.175859375],[0.02963107638888889,-0.17244791666666667],[0.032973090277777777,-0.16953993055555555],[0.036254340277777776,-0.16625],[0.03912326388888889,-0.16337239583333332],[0.04145833333333333,-0.16109375],[0.043133680555555554,-0.15975694444444444],[0.04405381944444445,-0.158828125],[0.044626736111111114,-0.15824652777777778],[0.04519965277777778,-0.15766493055555555],[0.045772569444444446,-0.15708333333333332],[0.046375868055555554,-0.1561545138888889],[0.04767361111111111,-0.15383246527777777],[0.04874565972222222,-0.1512673611111111],[0.049787326388888886,-0.14917534722222223],[0.050798611111111114,-0.14749131944444444],[0.051462673611111114,-0.14580729166666667],[0.05212673611111111,-0.14412326388888888],[0.05279079861111111,-0.14243923611111112],[0.05345486111111111,-0.14075520833333333],[0.05411892361111111,-0.13907118055555556],[0.054813368055555554,-0.13697916666666668],[0.05588541666666667,-0.1344140625],[0.05821614583333334,-0.12932291666666668],[0.06013888888888889,-0.12663194444444445],[0.06203125,-0.12397135416666667],[0.06392361111111111,-0.1213107638888889],[0.06619791666666666,-0.11902777777777777],[0.0686545138888889,-0.11577256944444445],[0.0715234375,-0.11248263888888889],[0.07439236111111111,-0.10878472222222223],[0.0773828125,-0.10452256944444445],[0.07971788194444444,-0.10183159722222222],[0.08276909722222223,-0.09760850694444445],[0.08641927083333334,-0.09256510416666666],[0.08928819444444444,-0.0892751736111111],[0.09269097222222222,-0.08542100694444445],[0.09665798611111111,-0.0814453125],[0.10229600694444445,-0.07579427083333333],[0.10670572916666667,-0.07226128472222222],[0.110703125,-0.06825520833333333],[0.11511284722222222,-0.06472222222222222],[0.11952256944444445,-0.061189236111111114],[0.12393229166666667,-0.05765625],[0.1289670138888889,-0.053997395833333336],[0.1328125,-0.0505859375],[0.13706597222222222,-0.047586805555555556],[0.14091145833333332,-0.044175347222222223],[0.14475694444444445,-0.041176215277777775],[0.14916666666666667,-0.03764322916666667],[0.1545529513888889,-0.03382378472222222],[0.1582421875,-0.03135850694444445],[0.16092447916666666,-0.029427083333333333],[0.1625998263888889,-0.0284375],[0.16392795138888888,-0.02779513888888889],[0.1651953125,-0.02715277777777778],[0.16737413194444445,-0.025659722222222223],[0.16993055555555556,-0.02420138888888889],[0.17201388888888888,-0.022803819444444446],[0.17368923611111112,-0.02146701388888889],[0.17495659722222223,-0.02082465277777778],[0.17552951388888888,-0.02082465277777778],[0.17552951388888888,-0.02082465277777778],[0.17552951388888888,-0.02082465277777778],[0.17552951388888888,-0.02082465277777778],[0.17552951388888888,-0.02082465277777778],[0.17552951388888888,-0.02082465277777778],[0.17552951388888888,-0.02082465277777778]],[[0.0077473958333333336,-0.20851128472222222],[0.0077473958333333336,-0.20851128472222222],[0.007456597222222222,-0.20851128472222222],[0.006818576388888889,-0.20851128472222222],[0.005889756944444445,-0.20851128472222222],[0.004079861111111111,-0.20851128472222222],[0.0019227430555555556,-0.20851128472222222],[-0.000234375,-0.20851128472222222],[-0.004791666666666666,-0.20851128472222222],[-0.008363715277777777,-0.20851128472222222],[-0.012057291666666666,-0.20851128472222222],[-0.014748263888888889,-0.20777777777777778],[-0.01904079861111111,-0.20565972222222223],[-0.0243359375,-0.20389322916666666],[-0.02963107638888889,-0.20212239583333333],[-0.03624565972222222,-0.19975694444444445],[-0.042921006944444444,-0.1974262152777778],[-0.04953559027777778,-0.19506076388888888],[-0.05945746527777778,-0.1926953125],[-0.06276475694444444,-0.19174913194444446],[-0.06957899305555555,-0.1900390625],[-0.07368489583333333,-0.18880208333333334],[-0.07672309027777778,-0.18803819444444445],[-0.07928819444444445,-0.1873046875],[-0.08286024305555556,-0.18609809027777777],[-0.08643229166666666,-0.1845138888888889],[-0.09172743055555556,-0.18186631944444445],[-0.1034375,-0.17658854166666665],[-0.11536458333333334,-0.170625],[-0.12578993055555557,-0.16496961805555554],[-0.13983940972222222,-0.15694010416666668],[-0.1492013888888889,-0.15087239583333334],[-0.15983506944444445,-0.1438237847222222],[-0.1648784722222222,-0.14016493055555557],[-0.1687326388888889,-0.1371657986111111],[-0.17299479166666668,-0.13416666666666666],[-0.17756510416666665,-0.13145399305555555],[-0.18213541666666666,-0.12874131944444445],[-0.18630208333333334,-0.12709635416666668],[-0.1916623263888889,-0.12485243055555556],[-0.19695746527777777,-0.12308159722222223],[-0.20225260416666666,-0.12087239583333333],[-0.20820746527777778,-0.11856770833333333],[-0.21482204861111112,-0.11620225694444444],[-0.21952256944444445,-0.11490451388888889],[-0.22585069444444444,-0.11291666666666667],[-0.23482638888888888,-0.11140190972222222],[-0.2401215277777778,-0.11051649305555555],[-0.24620225694444445,-0.10960069444444444],[-0.24977430555555555,-0.10918836805555555],[-0.2557291666666667,-0.10827256944444444],[-0.2593012152777778,-0.10786024305555555],[-0.2659765625,-0.10641059027777777],[-0.26907552083333336,-0.10488715277777778],[-0.27342881944444447,-0.10276909722222222],[-0.2771223958333333,-0.10074652777777778],[-0.27978298611111113,-0.09922309027777777],[-0.2823480902777778,-0.09811197916666667],[-0.285078125,-0.09674045138888888],[-0.2857161458333333,-0.09641927083333333],[-0.28844618055555554,-0.09539496527777777],[-0.2897222222222222,-0.09507378472222222],[-0.2918142361111111,-0.09472222222222222],[-0.2930902777777778,-0.09407986111111111],[-0.29477430555555556,-0.09309027777777777],[-0.2964583333333333,-0.09241753472222222],[-0.297734375,-0.09145833333333334],[-0.29941840277777776,-0.09078559027777777],[-0.30069444444444443,-0.08982638888888889],[-0.3019704861111111,-0.0888671875],[-0.3032465277777778,-0.08822482638888889],[-0.30452256944444445,-0.087265625],[-0.3064366319444444,-0.08630208333333333],[-0.30812065972222225,-0.08598090277777778],[-0.30939670138888886,-0.08533854166666667],[-0.3110807291666667,-0.0846657986111111],[-0.31276475694444444,-0.08431423611111111],[-0.3144487847222222,-0.08364149305555556],[-0.3157248263888889,-0.0833203125],[-0.31665364583333333,-0.0833203125],[-0.3169444444444444,-0.0833203125],[-0.31723524305555556,-0.0833203125],[-0.31723524305555556,-0.0833203125],[-0.31723524305555556,-0.0833203125],[-0.31723524305555556,-0.0833203125],[-0.3166623263888889,-0.08360677083333333],[-0.3156206597222222,-0.08395399305555555],[-0.3156206597222222,-0.08395399305555555],[-0.3156206597222222,-0.08395399305555555],[-0.3156206597222222,-0.08395399305555555]]]",3,"[71,86,90]",space,15.9474,space,1.6107,0,0,0,3,1,ahead_right_left_2.jpg,ahead_right_left_2_path.jpg,,,,,,,,,,,,,,,,
Image_List_1,,,,,,,,,,,,,,,,46475,2022-03-15_10h14.49.571,analogCatScenes,2020.1.3,MacIntel,60,"[1440,900]","[[[0.0002517361111111111,-0.19473090277777777],[0.0002517361111111111,-0.19473090277777777],[0.0002517361111111111,-0.19473090277777777],[0.0002517361111111111,-0.19473090277777777],[0.0002517361111111111,-0.19473090277777777],[0.0002517361111111111,-0.19473090277777777],[0.0002517361111111111,-0.19473090277777777],[0.0002517361111111111,-0.19473090277777777],[0.0002517361111111111,-0.19473090277777777],[0.0002517361111111111,-0.19473090277777777],[0.0002517361111111111,-0.19473090277777777],[0.0002517361111111111,-0.18615885416666667],[0.0002517361111111111,-0.1613888888888889],[0.0002517361111111111,-0.14242621527777777],[0.0002517361111111111,-0.12081163194444444],[0.0009678819444444445,-0.10247829861111112],[0.0021875,-0.08839409722222222],[0.0038498263888888887,-0.07702690972222222],[0.005542534722222222,-0.0657248263888889],[0.0072048611111111115,-0.055264756944444444],[0.009401041666666667,-0.0448046875],[0.010967881944444445,-0.035967881944444446],[0.012469618055555555,-0.027912326388888888],[0.013502604166666666,-0.019075520833333335],[0.015946180555555557,-0.004865451388888889],[0.018828125,0.014027777777777778],[0.021267361111111112,0.028111979166666665],[0.023585069444444443,0.04032118055555556],[0.025247395833333332,0.05078125],[0.02769097222222222,0.06499131944444445],[0.03075954861111111,0.07907552083333333],[0.03191840277777778,0.09141059027777777],[0.03313802083333333,0.10549479166666667],[0.03373263888888889,0.11861111111111111],[0.03373263888888889,0.12907118055555555],[0.03373263888888889,0.1386892361111111],[0.03373263888888889,0.14752604166666666],[0.03373263888888889,0.1542013888888889],[0.03373263888888889,0.16611979166666666],[0.034266493055555555,0.17423611111111112],[0.03473524305555555,0.1790625],[0.03561197916666667,0.1843576388888889],[0.036397569444444444,0.1879296875],[0.03715277777777778,0.19102864583333334],[0.03784722222222222,0.19312065972222223],[0.03784722222222222,0.1948046875],[0.0381640625,0.19608072916666666],[0.0381640625,0.1970095486111111],[0.0381640625,0.19828559027777778],[0.0381640625,0.19956163194444446],[0.0381640625,0.20112847222222222],[0.0381640625,0.20205729166666667],[0.0381640625,0.20298611111111112],[0.0381640625,0.2042621527777778],[0.0381640625,0.20553819444444443],[0.0381640625,0.2068142361111111],[0.03848090277777778,0.20809027777777778],[0.03848090277777778,0.20901909722222223],[0.03848090277777778,0.20901909722222223],[0.03848090277777778,0.20901909722222223],[0.03848090277777778,0.20901909722222223],[0.038767361111111114,0.20901909722222223],[0.038767361111111114,0.20901909722222223],[0.038767361111111114,0.20901909722222223],[0.038767361111111114,0.20901909722222223]],[[0.0025173611111111113,-0.20083333333333334],[0.0025173611111111113,-0.20083333333333334],[0.0025173611111111113,-0.20083333333333334],[0.0025173611111111113,-0.20083333333333334],[0.0025173611111111113,-0.20083333333333334],[0.0025173611111111113,-0.20083333333333334],[0.0025173611111111113,-0.20083333333333334],[0.0014713541666666666,-0.20083333333333334],[-0.0015668402777777777,-0.20083333333333334],[-0.006927083333333334,-0.20083333333333334],[-0.01660590277777778,-0.20032986111111112],[-0.032690972222222225,-0.19772569444444443],[-0.04164930555555556,-0.1956467013888889],[-0.06054253472222222,-0.19105902777777778],[-0.07016059027777778,-0.18784722222222222],[-0.07977864583333333,-0.18516927083333334],[-0.08939670138888889,-0.18302517361111112],[-0.09901475694444445,-0.1808810763888889],[-0.1086935763888889,-0.17980902777777777],[-0.11915364583333334,-0.17870225694444444],[-0.13045572916666667,-0.17813368055555556],[-0.1379123263888889,-0.17769097222222222],[-0.14927951388888888,-0.17769097222222222],[-0.15733506944444445,-0.1771875],[-0.165390625,-0.17668402777777778],[-0.17747395833333332,-0.17618055555555556],[-0.18480902777777777,-0.17520399305555556],[-0.1914236111111111,-0.17378472222222222],[-0.19828559027777778,-0.17230034722222223],[-0.20424045138888888,-0.17046875],[-0.20840711805555556,-0.16964409722222223],[-0.2131076388888889,-0.16837673611111112],[-0.21918836805555555,-0.1674609375],[-0.22276041666666666,-0.16666666666666666],[-0.22871527777777778,-0.16527777777777777],[-0.23288194444444443,-0.164453125],[-0.23842881944444444,-0.16356770833333334],[-0.24312934027777777,-0.163125],[-0.2490842013888889,-0.16268229166666667],[-0.2538237847222222,-0.16153645833333333],[-0.2575173611111111,-0.1607421875],[-0.26055555555555554,-0.15960069444444444],[-0.2631206597222222,-0.1588671875],[-0.2652126736111111,-0.1578168402777778],[-0.2668967013888889,-0.15714409722222222],[-0.26858072916666664,-0.1561545138888889],[-0.27026475694444446,-0.15513454861111112],[-0.2723567708333333,-0.1540842013888889],[-0.27404079861111114,-0.15309461805555555],[-0.2761328125,-0.15204427083333333],[-0.27781684027777775,-0.15169270833333334],[-0.2790928819444444,-0.15105034722222221],[-0.2803125,-0.1507595486111111],[-0.28089409722222225,-0.1507595486111111],[-0.2814756944444444,-0.1507595486111111],[-0.28205729166666665,-0.1507595486111111],[-0.2826388888888889,-0.1507595486111111],[-0.2832204861111111,-0.15046875],[-0.2835112847222222,-0.15046875],[-0.28380208333333334,-0.1501779513888889],[-0.28409288194444443,-0.1501779513888889],[-0.2843836805555556,-0.1501779513888889],[-0.28467447916666666,-0.1501779513888889],[-0.28467447916666666,-0.1501779513888889],[-0.2849652777777778,-0.1501779513888889],[-0.2849652777777778,-0.1501779513888889],[-0.2849652777777778,-0.1501779513888889],[-0.2849652777777778,-0.1501779513888889],[-0.2849652777777778,-0.1501779513888889],[-0.2849652777777778,-0.1501779513888889],[-0.2849652777777778,-0.1501779513888889],[-0.2849652777777778,-0.1501779513888889],[-0.2849652777777778,-0.1501779513888889],[-0.2849652777777778,-0.1501779513888889],[-0.28467881944444445,-0.1501779513888889]],[[0.003728298611111111,-0.20573350694444445],[0.003728298611111111,-0.20573350694444445],[0.003728298611111111,-0.20573350694444445],[0.003728298611111111,-0.20573350694444445],[0.003728298611111111,-0.20573350694444445],[0.003728298611111111,-0.20573350694444445],[0.003728298611111111,-0.20573350694444445],[0.004136284722222223,-0.20216145833333332],[0.0103515625,-0.19083767361111112],[0.020881076388888888,-0.17634982638888888],[0.03428385416666667,-0.1601171875],[0.04844618055555556,-0.14729600694444445],[0.05870225694444445,-0.1390060763888889],[0.06855034722222222,-0.1308420138888889],[0.08149305555555555,-0.11976996527777778],[0.0925564236111111,-0.10750868055555556],[0.10805989583333334,-0.09337673611111111],[0.12215277777777778,-0.07714409722222222],[0.1305859375,-0.06703559027777778],[0.14433159722222222,-0.04948784722222222],[0.15373263888888888,-0.03756944444444445],[0.1646657986111111,-0.02471354166666667],[0.19274739583333333,0.006423611111111111],[0.20602430555555556,0.02109375],[0.2219357638888889,0.03770399305555556],[0.23225260416666665,0.0468359375],[0.24525607638888888,0.0578125],[0.2559765625,0.06616319444444445],[0.26816840277777776,0.07453993055555555],[0.2777690972222222,0.081328125],[0.286875,0.08616753472222222],[0.2919097222222222,0.08894097222222222],[0.2971961805555556,0.09071180555555555],[0.3007595486111111,0.09191840277777778],[0.3043576388888889,0.09299913194444444],[0.3060329861111111,0.09398871527777777],[0.306953125,0.09460069444444444],[0.30822048611111114,0.09524305555555555],[0.309140625,0.09585503472222222],[0.30971354166666665,0.09614583333333333],[0.31028645833333335,0.09643663194444445],[0.31057291666666664,0.09672743055555555],[0.31057291666666664,0.09672743055555555],[0.31057291666666664,0.09701822916666666],[0.31114583333333334,0.0975998263888889],[0.3117491319444444,0.09852864583333333],[0.31301649305555557,0.0998046875],[0.31396701388888887,0.10108072916666666],[0.3155208333333333,0.10233072916666666],[0.31612413194444444,0.10325954861111111],[0.3166970486111111,0.10325954861111111],[0.31698350694444444,0.10355034722222223],[0.31698350694444444,0.10355034722222223],[0.31698350694444444,0.10355034722222223],[0.31698350694444444,0.10355034722222223],[0.31698350694444444,0.10355034722222223]]]",3,"[65,75,56]",space,8.7422,space,0.8468,0,1,1,1,1,ahead_left_2.jpg,ahead_left_2_path.jpg,,,,,,,,,,,,,,,,
Image_List_1,,,,,,,,,,,,,,,,46475,2022-03-15_10h14.49.571,analogCatScenes,2020.1.3,MacIntel,60,"[1440,900]","[[[0.0029340277777777776,-0.20070746527777777],[0.0029340277777777776,-0.20070746527777777],[0.0029340277777777776,-0.20070746527777777],[0.0029340277777777776,-0.20070746527777777],[0.0029340277777777776,-0.20070746527777777],[0.0029340277777777776,-0.20070746527777777],[0.0029340277777777776,-0.20070746527777777],[0.0029340277777777776,-0.20070746527777777],[0.0029340277777777776,-0.20070746527777777],[0.0029340277777777776,-0.20070746527777777],[0.0029340277777777776,-0.20070746527777777],[0.0029340277777777776,-0.20070746527777777],[0.0029340277777777776,-0.20070746527777777],[0.0029340277777777776,-0.19145833333333334],[0.0029340277777777776,-0.18009114583333333],[0.0029340277777777776,-0.1650390625],[0.0029340277777777776,-0.1442013888888889],[0.0029340277777777776,-0.12336371527777777],[0.0029340277777777776,-0.09802517361111111],[0.0029340277777777776,-0.07641059027777777],[0.005151909722222223,-0.050694444444444445],[0.007903645833333334,-0.03138888888888889],[0.010776909722222222,-0.009774305555555555],[0.01453125,0.014279513888888888],[0.017100694444444446,0.03111545138888889],[0.0212890625,0.061228298611111114],[0.023914930555555554,0.07834635416666667],[0.025104166666666667,0.09146267361111111],[0.02623263888888889,0.10276475694444444],[0.02623263888888889,0.10962673611111111],[0.02623263888888889,0.1194921875],[0.02623263888888889,0.12682725694444444],[0.02623263888888889,0.1341623263888889],[0.02623263888888889,0.14024305555555555],[0.02623263888888889,0.1479470486111111],[0.025789930555555556,0.15624565972222224],[0.025789930555555556,0.1599392361111111],[0.025377604166666668,0.16609809027777778],[0.025377604166666668,0.16913628472222222],[0.025377604166666668,0.1717013888888889],[0.025377604166666668,0.17473958333333334],[0.025377604166666668,0.17777777777777778],[0.025377604166666668,0.18081597222222223],[0.025377604166666668,0.18385416666666668],[0.025377604166666668,0.18594618055555556],[0.025377604166666668,0.186875],[0.025377604166666668,0.18780381944444444],[0.025377604166666668,0.18809461805555555],[0.025377604166666668,0.18838541666666667],[0.025377604166666668,0.18838541666666667],[0.025377604166666668,0.18838541666666667],[0.025377604166666668,0.18838541666666667],[0.025377604166666668,0.18838541666666667],[0.025377604166666668,0.18838541666666667],[0.025377604166666668,0.18838541666666667]]]",1,[55],space,2.9664,space,0.584,0,2,2,0,1,ahead_2.jpg,ahead_2_path.jpg,,,,,,,,,,,,,,,,
Image_List_1,,,,,,,,,,,,,,,,46475,2022-03-15_10h14.49.571,analogCatScenes,2020.1.3,MacIntel,60,"[1440,900]","[[[0.006236979166666667,-0.19643663194444444],[0.006236979166666667,-0.19643663194444444],[0.006236979166666667,-0.19643663194444444],[0.006236979166666667,-0.19643663194444444],[0.006236979166666667,-0.19643663194444444],[0.006236979166666667,-0.19643663194444444],[0.006236979166666667,-0.19161024305555555],[0.011349826388888888,-0.1808376736111111],[0.02312065972222222,-0.1557204861111111],[0.036484375,-0.12090277777777778],[0.044904513888888886,-0.09815972222222222],[0.05420138888888889,-0.071875],[0.059930555555555556,-0.051783854166666664],[0.06381944444444444,-0.04073350694444444],[0.0703689236111111,-0.021059027777777777],[0.07653645833333333,-0.0016927083333333334],[0.08167100694444444,0.014392361111111111],[0.08515190972222222,0.026727430555555556],[0.08722222222222223,0.03593315972222222],[0.089765625,0.04404947916666667],[0.09146701388888889,0.04875],[0.09345052083333333,0.0519140625],[0.09543402777777778,0.05548611111111111],[0.098515625,0.06034288194444445],[0.10313368055555555,0.06748263888888889],[0.10919270833333333,0.07684461805555555],[0.11453125,0.08539496527777778],[0.12106336805555555,0.09596788194444444],[0.12623697916666668,0.10617621527777778],[0.13147135416666667,0.11779079861111111],[0.13664496527777778,0.12799913194444446],[0.14244357638888888,0.13904947916666666],[0.1456814236111111,0.14421875],[0.14822916666666666,0.14851128472222222],[0.14967881944444444,0.15107638888888889],[0.15106770833333333,0.15323350694444443],[0.1529904513888889,0.15592447916666666],[0.15676649305555557,0.16159288194444443],[0.1618923611111111,0.16959635416666666],[0.16453559027777778,0.17495659722222223],[0.16667534722222221,0.17965711805555556],[0.1678732638888889,0.18322916666666667],[0.17004340277777777,0.1885894097222222],[0.17215277777777777,0.19328993055555554],[0.17479600694444444,0.19764322916666666],[0.17725260416666666,0.20134114583333335],[0.17917534722222223,0.20403211805555554],[0.18015625,0.20539930555555555],[0.18072916666666666,0.20569010416666667],[0.18072916666666666,0.20569010416666667],[0.18072916666666666,0.20569010416666667],[0.18072916666666666,0.20569010416666667],[0.181015625,0.20569010416666667],[0.181015625,0.20569010416666667],[0.181015625,0.20569010416666667],[0.181015625,0.20569010416666667],[0.181015625,0.20569010416666667],[0.181015625,0.20569010416666667]],[[0.0029861111111111113,-0.19995659722222223],[0.0029861111111111113,-0.19995659722222223],[0.0029861111111111113,-0.19995659722222223],[0.0029861111111111113,-0.19995659722222223],[0.0029861111111111113,-0.19995659722222223],[0.0029861111111111113,-0.19995659722222223],[0.0029861111111111113,-0.19995659722222223],[0.0029861111111111113,-0.19995659722222223],[0.0029861111111111113,-0.19995659722222223],[0.0029861111111111113,-0.19995659722222223],[0.0029861111111111113,-0.19995659722222223],[0.0029861111111111113,-0.19995659722222223],[0.0009288194444444445,-0.19745659722222222],[-0.011427951388888889,-0.1835373263888889],[-0.028094618055555555,-0.1645529513888889],[-0.041449652777777776,-0.14985243055555555],[-0.058333333333333334,-0.13065104166666666],[-0.07315538194444444,-0.11288628472222222],[-0.08562934027777777,-0.09699652777777777],[-0.09616753472222223,-0.08250868055555556],[-0.10579427083333333,-0.06899305555555556],[-0.11317274305555555,-0.06051215277777778],[-0.12879774305555555,-0.0436328125],[-0.13805555555555554,-0.03368489583333333],[-0.1445920138888889,-0.025486111111111112],[-0.15296875,-0.014006076388888889],[-0.16049913194444446,-0.002209201388888889],[-0.16768229166666668,0.010464409722222222],[-0.17380208333333333,0.023328993055555556],[-0.179453125,0.033502604166666665],[-0.18360677083333332,0.04233940972222222],[-0.18612413194444444,0.05039496527777778],[-0.18776041666666668,0.060073784722222225],[-0.18776041666666668,0.07053385416666667],[-0.18776041666666668,0.08365017361111111],[-0.18776041666666668,0.10151041666666667],[-0.18726128472222223,0.10818576388888888],[-0.18629340277777778,0.11552083333333334],[-0.1853862847222222,0.12147569444444445],[-0.18441840277777777,0.1288107638888889],[-0.18407118055555555,0.13250434027777777],[-0.18407118055555555,0.1360763888888889],[-0.18407118055555555,0.13911458333333335],[-0.184453125,0.14063368055555556],[-0.18737413194444444,0.1435546875],[-0.1906640625,0.14643229166666666],[-0.19272135416666666,0.15013020833333332],[-0.1943359375,0.15329427083333333],[-0.196484375,0.15799479166666666],[-0.19869791666666667,0.1659375],[-0.20008680555555555,0.171484375],[-0.2015407986111111,0.1778125],[-0.20239583333333333,0.18251302083333334],[-0.20283854166666668,0.18780815972222223],[-0.2036328125,0.19138020833333333],[-0.20401475694444443,0.19441840277777778],[-0.2046875,0.19610243055555557],[-0.20500868055555554,0.1973784722222222],[-0.20529947916666666,0.19830729166666666],[-0.20529947916666666,0.1988888888888889],[-0.20529947916666666,0.19952690972222223],[-0.20529947916666666,0.19981770833333334],[-0.20529947916666666,0.19981770833333334],[-0.20529947916666666,0.19981770833333334],[-0.20529947916666666,0.19981770833333334],[-0.20529947916666666,0.19981770833333334]]]",2,"[58,66]",space,4.7585,space,0.8467,0,3,3,6,1,right_left_2.jpg,right_left_2_path.jpg,,,,,,,,,,,,,,,,
Image_List_1,,,,,,,,,,,,,,,,46475,2022-03-15_10h14.49.571,analogCatScenes,2020.1.3,MacIntel,60,"[1440,900]","[[[0.0013975694444444443,-0.20592881944444444],[0.0013975694444444443,-0.20592881944444444],[0.0013975694444444443,-0.20592881944444444],[0.0013975694444444443,-0.20592881944444444],[0.0013975694444444443,-0.20592881944444444],[0.0013975694444444443,-0.20592881944444444],[0.0013975694444444443,-0.20592881944444444],[0.0013975694444444443,-0.20592881944444444],[0.0013975694444444443,-0.20592881944444444],[0.0013975694444444443,-0.20592881944444444],[0.0013975694444444443,-0.20592881944444444],[0.0013975694444444443,-0.20592881944444444],[0.0013975694444444443,-0.20563802083333332],[0.00042100694444444444,-0.1983029513888889],[-0.0011241319444444445,-0.18946614583333332],[-0.0037413194444444442,-0.1758203125],[-0.004401041666666667,-0.16323350694444444],[-0.006566840277777777,-0.1386111111111111],[-0.00872829861111111,-0.11699652777777778],[-0.011019965277777778,-0.09165798611111112],[-0.014153645833333334,-0.06503472222222222],[-0.016883680555555555,-0.04857638888888889],[-0.019644097222222223,-0.029210069444444445],[-0.02099392361111111,-0.010998263888888889],[-0.022530381944444445,0.014717881944444445],[-0.022530381944444445,0.03517795138888889],[-0.023220486111111112,0.050481770833333335],[-0.025134548611111113,0.06656684027777778],[-0.02927951388888889,0.08630208333333333],[-0.031484375,0.09676215277777778],[-0.032556423611111114,0.10362413194444445],[-0.03375,0.11223524305555556],[-0.03375,0.11819010416666667],[-0.03375,0.12348524305555555],[-0.03375,0.12759114583333334],[-0.03375,0.13062934027777778],[-0.03375,0.13319444444444445],[-0.03375,0.1348784722222222],[-0.03375,0.13580729166666666],[-0.03375,0.1363888888888889],[-0.03375,0.1363888888888889],[-0.03375,0.1366796875],[-0.03375,0.1366796875],[-0.03375,0.1366796875],[-0.033463541666666666,0.1366796875],[-0.033463541666666666,0.1366796875],[-0.033463541666666666,0.1366796875],[-0.033463541666666666,0.1366796875]]]",1,[48],space,3.3324,space,0.7545,0,4,4,2,1,ahead_right_2.jpg,ahead_right_2_path.jpg,,,,,,,,,,,,,,,,
Image_List_1,,,,,,,,,,,,,,,,46475,2022-03-15_10h14.49.571,analogCatScenes,2020.1.3,MacIntel,60,"[1440,900]","[[[0.0014453125,-0.20221354166666666],[0.0014453125,-0.20221354166666666],[0.0014453125,-0.20221354166666666],[0.0014453125,-0.20221354166666666],[0.0014453125,-0.20221354166666666],[0.0014453125,-0.20221354166666666],[0.0014453125,-0.20221354166666666],[0.0014453125,-0.20221354166666666],[0.0014453125,-0.20221354166666666],[0.0014453125,-0.20221354166666666],[0.0014453125,-0.20221354166666666],[-0.0014019097222222221,-0.20044704861111112],[-0.0061892361111111115,-0.1952170138888889],[-0.012100694444444445,-0.1871701388888889],[-0.020946180555555555,-0.17569010416666667],[-0.03650173611111111,-0.15493055555555554],[-0.049470486111111114,-0.1376388888888889],[-0.06282118055555555,-0.11915364583333334],[-0.07816840277777778,-0.0984157986111111],[-0.09430121527777778,-0.07846354166666666],[-0.11083767361111112,-0.06041666666666667],[-0.12534722222222222,-0.04656684027777778],[-0.13536024305555555,-0.03834201388888889],[-0.1463715277777778,-0.029149305555555557],[-0.15848090277777777,-0.018984375],[-0.16826822916666667,-0.008567708333333333],[-0.176640625,0.005577256944444445],[-0.18297743055555554,0.018567708333333332],[-0.19167100694444444,0.03901909722222222],[-0.19651041666666666,0.04813368055555556],[-0.20041666666666666,0.05499565972222222],[-0.20432291666666666,0.06135416666666667],[-0.20775607638888888,0.06818576388888889],[-0.21128038194444446,0.07573784722222222],[-0.21530815972222223,0.08328993055555556],[-0.21921440972222223,0.0896484375],[-0.2228732638888889,0.09469184027777777],[-0.22700086805555555,0.09973524305555556],[-0.23065972222222222,0.10477864583333334],[-0.23274305555555555,0.1089453125],[-0.23526909722222222,0.11267361111111111],[-0.23840277777777777,0.11738715277777778],[-0.24024305555555556,0.11957465277777778],[-0.24208333333333334,0.12176215277777777],[-0.2439236111111111,0.12394965277777778],[-0.2457638888888889,0.1261371527777778],[-0.24710069444444444,0.12782118055555555],[-0.24774305555555556,0.12909722222222222],[-0.24832465277777777,0.12967881944444445],[-0.24861545138888888,0.13026041666666666],[-0.2491970486111111,0.1308420138888889],[-0.24948784722222223,0.13142361111111112],[-0.24977864583333334,0.13171440972222223],[-0.24977864583333334,0.13171440972222223],[-0.24977864583333334,0.13171440972222223],[-0.24977864583333334,0.13171440972222223],[-0.24977864583333334,0.13171440972222223]],[[-0.00078125,-0.20159722222222223],[-0.00078125,-0.20159722222222223],[-0.00078125,-0.20159722222222223],[-0.00078125,-0.20159722222222223],[-0.00078125,-0.20159722222222223],[-0.00078125,-0.20159722222222223],[-0.00078125,-0.20159722222222223],[-0.00078125,-0.20159722222222223],[-0.00078125,-0.20159722222222223],[-0.00078125,-0.20159722222222223],[-0.00078125,-0.20159722222222223],[0.0018619791666666667,-0.20159722222222223],[0.007808159722222222,-0.2002734375],[0.01825954861111111,-0.2002734375],[0.03986545138888889,-0.2002734375],[0.06648003472222222,-0.2002734375],[0.0859375,-0.20378038194444445],[0.10529513888888889,-0.20725260416666666],[0.12695746527777776,-0.2090972222222222],[0.13351128472222223,-0.2096918402777778],[0.1574826388888889,-0.21159722222222221],[0.1745920138888889,-0.2129079861111111],[0.1938888888888889,-0.21703993055555557],[0.2062152777777778,-0.21998697916666668],[0.22029079861111112,-0.2242751736111111],[0.23158420138888888,-0.22822482638888889],[0.24203559027777777,-0.2320529513888889],[0.25332899305555556,-0.23600260416666666],[0.26462239583333336,-0.23995225694444444],[0.27682291666666664,-0.2440277777777778],[0.28811631944444444,-0.24741319444444446]]]",2,"[57,31]",space,4.9689,space,0.8752,0,5,5,4,1,left_2.jpg,left_2_path.jpg,,,,,,,,,,,,,,,,
Image_List_1,,,,,,,,,,,,,,,,46475,2022-03-15_10h14.49.571,analogCatScenes,2020.1.3,MacIntel,60,"[1440,900]","[[[0.0019965277777777776,-0.1930859375],[0.0019965277777777776,-0.1930859375],[0.0019965277777777776,-0.1930859375],[0.0019965277777777776,-0.1930859375],[0.0019965277777777776,-0.1930859375],[0.0019965277777777776,-0.1930859375],[0.0019965277777777776,-0.1930859375],[0.0019965277777777776,-0.1915668402777778],[0.006922743055555555,-0.181640625],[0.011879340277777779,-0.17174479166666667],[0.016558159722222222,-0.1639453125],[0.023519965277777777,-0.1538671875],[0.031861979166666665,-0.14313802083333332],[0.0393359375,-0.13565538194444443],[0.049652777777777775,-0.1265234375],[0.05621961805555555,-0.12088975694444444],[0.06525607638888889,-0.11297309027777777],[0.073046875,-0.10778211805555556],[0.08062065972222222,-0.10368923611111111],[0.09347222222222222,-0.0990625],[0.1070138888888889,-0.09407118055555555],[0.12146267361111111,-0.08838975694444444],[0.14050347222222223,-0.07921006944444445],[0.15994791666666666,-0.06840277777777778],[0.17136284722222223,-0.06127604166666667],[0.18456163194444444,-0.05309027777777778],[0.19391493055555556,-0.047591145833333334],[0.20274305555555555,-0.043971354166666664],[0.21319444444444444,-0.04066840277777778],[0.22739583333333332,-0.03633680555555555],[0.24289930555555556,-0.03026909722222222],[0.24885850694444445,-0.02728732638888889],[0.2624826388888889,-0.019114583333333334],[0.26883246527777777,-0.01423611111111111],[0.27587239583333334,-0.00970486111111111],[0.2822222222222222,-0.005295138888888889],[0.2892621527777778,-0.00026041666666666666],[0.29680555555555554,0.004270833333333333],[0.3036284722222222,0.007703993055555556],[0.30994791666666666,0.010603298611111112],[0.3136328125,0.011840277777777778],[0.3183246527777778,0.01310763888888889],[0.3230164930555556,0.013519965277777778],[0.3289626736111111,0.013993055555555555],[0.336015625,0.014496527777777778],[0.34011284722222224,0.015321180555555555],[0.34367621527777775,0.01611545138888889],[0.3453515625,0.016788194444444446],[0.34598524305555556,0.017109375],[0.34598524305555556,0.017109375],[0.34598524305555556,0.017109375],[0.34598524305555556,0.017109375],[0.34598524305555556,0.017109375]]]",1,[53],space,4.1803,space,0.8062,0,6,6,5,1,right_2.jpg,right_2_path.jpg,,,,,,,,,,,,,,,,
Image_List_1,,,,,,,,,,,,,,,,46475,2022-03-15_10h14.49.571,analogCatScenes,2020.1.3,MacIntel,60,"[1440,900]","[[[0.006766493055555556,-0.19421006944444444],[0.006766493055555556,-0.19421006944444444],[0.006766493055555556,-0.19421006944444444],[0.006766493055555556,-0.19421006944444444],[0.006766493055555556,-0.19421006944444444],[0.006766493055555556,-0.19421006944444444],[0.009409722222222222,-0.19421006944444444],[0.01607638888888889,-0.19231770833333334],[0.02568576388888889,-0.18963975694444443],[0.04729166666666667,-0.18459635416666667],[0.08213975694444445,-0.177890625],[0.09818576388888889,-0.17462673611111112],[0.11638888888888889,-0.17192708333333334],[0.13143229166666667,-0.1694140625],[0.14750868055555555,-0.1675],[0.16158420138888888,-0.16624565972222222],[0.17953993055555556,-0.16624565972222222],[0.19664930555555554,-0.16624565972222222],[0.21169270833333334,-0.16624565972222222],[0.22389322916666668,-0.16624565972222222],[0.23350260416666666,-0.1667795138888889],[0.24233072916666668,-0.16831597222222222],[0.2519401041666667,-0.16991753472222224],[0.26154947916666665,-0.17151909722222222],[0.27596354166666665,-0.17418836805555554],[0.2855729166666667,-0.1763237847222222],[0.292734375,-0.17839409722222221],[0.2974262152777778,-0.17968315972222224],[0.30249131944444446,-0.18153645833333334],[0.30856336805555556,-0.18345052083333332],[0.3127213541666667,-0.18470920138888888],[0.31778645833333335,-0.18605902777777777],[0.3219444444444444,-0.186875],[0.3249739583333333,-0.18725260416666667],[0.3270572916666667,-0.1879470486111111],[0.3287326388888889,-0.18861111111111112],[0.3304079861111111,-0.18927517361111112],[0.3327170138888889,-0.19057291666666668],[0.333984375,-0.19120659722222222],[0.33455729166666665,-0.1917795138888889],[0.33484375,-0.19206597222222221],[0.33484375,-0.19206597222222221],[0.33484375,-0.19206597222222221],[0.33484375,-0.19206597222222221],[0.33484375,-0.19206597222222221],[0.33484375,-0.19206597222222221],[0.33484375,-0.19206597222222221],[0.33484375,-0.19206597222222221],[0.33484375,-0.19206597222222221],[0.33484375,-0.19206597222222221]]]",1,[50],,,,,,,,,,,,space,2.4359,readingroom5.jpg,space,3.2968,0,0,0,84,1,sidewalk2.jpg,restaurant13.jpg,sandDunes_desert_outdoor.jpg,rooftop2.jpg,,
Image_List_1,,,,,,,,,,,,,,,,46475,2022-03-15_10h14.49.571,analogCatScenes,2020.1.3,MacIntel,60,"[1440,900]","[[[0.007612847222222222,-0.19692274305555554],[0.007612847222222222,-0.19692274305555554],[0.007612847222222222,-0.19692274305555554],[0.007612847222222222,-0.19692274305555554],[0.007612847222222222,-0.19692274305555554],[0.007612847222222222,-0.19692274305555554],[0.007612847222222222,-0.19692274305555554],[0.007612847222222222,-0.19692274305555554],[0.007612847222222222,-0.19692274305555554],[0.007612847222222222,-0.19692274305555554],[0.007612847222222222,-0.19692274305555554],[0.010169270833333334,-0.19692274305555554],[0.01373263888888889,-0.19651041666666666],[0.0219140625,-0.19329427083333334],[0.0307421875,-0.19071180555555556],[0.042942708333333336,-0.18725694444444443],[0.05430121527777778,-0.1838628472222222],[0.06391059027777778,-0.18225260416666667],[0.07273871527777778,-0.18067708333333332],[0.08078559027777778,-0.18067708333333332],[0.08811197916666667,-0.18020399305555557],[0.09471788194444444,-0.1792578125],[0.10103732638888889,-0.17780381944444446],[0.10657552083333334,-0.17641493055555554],[0.1125217013888889,-0.17458333333333334],[0.12111111111111111,-0.17186631944444444],[0.12718315972222222,-0.1703559027777778],[0.13272135416666667,-0.16896701388888888],[0.13866753472222224,-0.16622395833333334],[0.1479296875,-0.16182291666666668],[0.1560373263888889,-0.1582638888888889],[0.16733072916666666,-0.15430555555555556],[0.17953125,-0.1513845486111111],[0.19173177083333334,-0.14962239583333334],[0.20218315972222223,-0.148515625],[0.21747829861111112,-0.14656684027777778],[0.23352430555555556,-0.14455729166666667],[0.24610243055555556,-0.1433940972222222],[0.26114583333333335,-0.14151041666666667],[0.27990017361111114,-0.1397439236111111],[0.2911935763888889,-0.13917534722222222],[0.3008029513888889,-0.13863715277777777],[0.31125434027777776,-0.13809895833333333],[0.3217057291666667,-0.13702690972222223],[0.33131510416666665,-0.13541666666666666],[0.3409244791666667,-0.13327256944444443]],[[-0.0033116319444444443,-0.19707465277777778],[-0.0033116319444444443,-0.19707465277777778],[-0.0033116319444444443,-0.19707465277777778],[-0.0033116319444444443,-0.19707465277777778],[-0.0033116319444444443,-0.19707465277777778],[-0.0033116319444444443,-0.19707465277777778],[-0.0033116319444444443,-0.19707465277777778],[-0.0033116319444444443,-0.19707465277777778],[-0.009986979166666667,-0.19707465277777778],[-0.020447048611111112,-0.19707465277777778],[-0.034657118055555554,-0.19829427083333334],[-0.06128038194444444,-0.20141927083333333],[-0.09059461805555556,-0.20304253472222222],[-0.11721788194444445,-0.20382378472222223],[-0.13957899305555554,-0.20382378472222223],[-0.1566970486111111,-0.20184461805555556],[-0.17078125,-0.2000217013888889],[-0.18583333333333332,-0.19813802083333334],[-0.20770399305555556,-0.19735243055555557],[-0.2230078125,-0.19735243055555557],[-0.24121961805555556,-0.19735243055555557],[-0.2583376736111111,-0.1980078125],[-0.27442274305555553,-0.19991319444444444],[-0.2875390625,-0.20229166666666668],[-0.2988411458333333,-0.203984375],[-0.30767795138888887,-0.20448350694444445],[-0.3125043402777778,-0.20448350694444445],[-0.3172048611111111,-0.20448350694444445],[-0.3209418402777778,-0.2041623263888889],[-0.32123263888888887,-0.2041623263888889],[-0.32123263888888887,-0.2041623263888889],[-0.32123263888888887,-0.2041623263888889],[-0.32123263888888887,-0.2041623263888889],[-0.32123263888888887,-0.2041623263888889],[-0.32123263888888887,-0.2041623263888889]],[[0.0044921875,-0.1942230902777778],[0.0044921875,-0.1942230902777778],[0.0044921875,-0.1942230902777778],[0.0044921875,-0.1942230902777778],[0.0044921875,-0.1942230902777778],[0.0044921875,-0.1942230902777778],[0.0044921875,-0.1942230902777778],[0.0044921875,-0.1942230902777778],[0.0044921875,-0.1942230902777778],[0.0044921875,-0.1942230902777778],[0.0044921875,-0.1942230902777778],[0.0044921875,-0.1942230902777778],[0.0044921875,-0.1942230902777778],[0.0044921875,-0.1942230902777778],[0.006827256944444445,-0.1942230902777778],[0.013650173611111111,-0.19078993055555554],[0.025065104166666668,-0.18432291666666667],[0.03648003472222222,-0.178359375],[0.05529513888888889,-0.1680685763888889],[0.069296875,-0.15740885416666667],[0.08029947916666667,-0.14821614583333334],[0.09130208333333334,-0.1390234375],[0.09977430555555555,-0.13164496527777778],[0.10802951388888889,-0.1239453125],[0.11550347222222222,-0.11699652777777778],[0.12121961805555556,-0.10973090277777778],[0.12671006944444443,-0.1003689236111111],[0.13220052083333333,-0.09100694444444445],[0.13621961805555555,-0.08345486111111111],[0.138984375,-0.07841145833333334],[0.1421918402777778,-0.0729296875],[0.1450607638888889,-0.06717881944444444],[0.14720052083333332,-0.06247829861111111],[0.14845920138888888,-0.05831163194444444],[0.15009548611111112,-0.054144965277777776],[0.15214409722222222,-0.0500390625],[0.15384548611111112,-0.04533854166666667],[0.15604600694444445,-0.04004340277777778],[0.15733506944444445,-0.035342881944444446],[0.15859375,-0.03064236111111111],[0.1598828125,-0.025941840277777777],[0.16164496527777777,-0.021588541666666666],[0.16381510416666667,-0.01663628472222222],[0.16696614583333333,-0.01189236111111111],[0.16894965277777776,-0.00872829861111111],[0.1706857638888889,-0.006983506944444444],[0.17166666666666666,-0.005616319444444445],[0.17226996527777777,-0.0046875],[0.17226996527777777,-0.004396701388888889],[0.17226996527777777,-0.0038151041666666667],[0.17226996527777777,-0.0035243055555555557],[0.17226996527777777,-0.0035243055555555557],[0.17226996527777777,-0.0035243055555555557],[0.17226996527777777,-0.0035243055555555557],[0.17226996527777777,-0.0035243055555555557]]]",3,"[46,35,55]",,,,,,,,,,,,,,campsite.jpg,space,6.4644,0,1,1,24,1,cliff3.jpg,cave6.jpg,cemetery5.jpg,boardwalk.jpg,,
Image_List_1,,,,,,,,,,,,,,,,46475,2022-03-15_10h14.49.571,analogCatScenes,2020.1.3,MacIntel,60,"[1440,900]","[[[-0.005182291666666667,-0.20119791666666667],[-0.005182291666666667,-0.20119791666666667],[-0.005182291666666667,-0.20119791666666667],[-0.005182291666666667,-0.20119791666666667],[-0.005182291666666667,-0.20119791666666667],[-0.005182291666666667,-0.20119791666666667],[-0.005182291666666667,-0.20119791666666667],[-0.005182291666666667,-0.20119791666666667],[-0.005182291666666667,-0.20119791666666667],[0.0001953125,-0.1963454861111111],[0.007296006944444444,-0.1913107638888889],[0.013645833333333333,-0.1874045138888889],[0.01921440972222222,-0.18415798611111112],[0.029444444444444443,-0.1779079861111111],[0.03848090277777778,-0.17111979166666666],[0.04855034722222222,-0.16461805555555556],[0.05758680555555556,-0.1578298611111111],[0.06694010416666667,-0.15233072916666668],[0.0759765625,-0.14554253472222223],[0.083984375,-0.13966145833333332],[0.09454427083333333,-0.132109375],[0.09888888888888889,-0.12945746527777777],[0.10298611111111111,-0.1269921875],[0.10667534722222222,-0.12493489583333334],[0.11101996527777777,-0.12228298611111112],[0.11430121527777778,-0.11940538194444444],[0.11901475694444444,-0.11468315972222222],[0.12504774305555555,-0.10864149305555555],[0.13126736111111112,-0.10187934027777777],[0.13645399305555556,-0.09668402777777778],[0.14182725694444445,-0.09082899305555556],[0.14942274305555556,-0.08369791666666666],[0.15820746527777776,-0.07600694444444445],[0.16430121527777777,-0.07043836805555556],[0.17707465277777779,-0.058780381944444446],[0.18194878472222223,-0.05443142361111111],[0.1880425347222222,-0.048328993055555554],[0.19245225694444446,-0.044796006944444446],[0.19701388888888888,-0.04066840277777778],[0.20336371527777777,-0.03578993055555556],[0.21062065972222221,-0.030065104166666665],[0.21862847222222223,-0.024184027777777777],[0.2251953125,-0.018615451388888888],[0.2315451388888889,-0.013736979166666666],[0.23739149305555557,-0.008355034722222222],[0.2439279513888889,-0.002816840277777778],[0.24911458333333333,0.0019053819444444444],[0.25484375,0.0076171875],[0.2576215277777778,0.009991319444444445],[0.2588888888888889,0.011267361111111112],[0.25946180555555554,0.011848958333333333],[0.25946180555555554,0.011848958333333333],[0.25946180555555554,0.011848958333333333],[0.25946180555555554,0.011848958333333333],[0.25946180555555554,0.011848958333333333],[0.25946180555555554,0.011848958333333333]]]",1,[56],,,,,,,,,,,,,,publicrestroom2.jpg,space,2.513,0,2,2,82,1,sandDunes_desert_outdoor9.jpg,promenadeDeck3.jpg,readingroom4.jpg,postoffice4.jpg,,
Image_List_1,,,,,,,,,,,,,,,,46475,2022-03-15_10h14.49.571,analogCatScenes,2020.1.3,MacIntel,60,"[1440,900]","[[[0.0044921875,-0.19832465277777778],[0.0044921875,-0.19832465277777778],[0.0044921875,-0.19832465277777778],[0.0044921875,-0.19832465277777778],[0.0044921875,-0.19832465277777778],[0.0044921875,-0.19832465277777778],[0.0044921875,-0.19832465277777778],[0.0044921875,-0.19832465277777778],[0.0044921875,-0.19832465277777778],[0.0044921875,-0.19727864583333332],[0.002855902777777778,-0.1875998263888889],[-0.0006293402777777778,-0.175390625],[-0.006649305555555556,-0.15076822916666666],[-0.011258680555555555,-0.12505208333333334],[-0.017565104166666668,-0.09002604166666667],[-0.021796875,-0.06944010416666667],[-0.025438368055555556,-0.05535590277777778],[-0.02939670138888889,-0.04405381944444445],[-0.03463541666666667,-0.027842881944444446],[-0.038589409722222225,-0.0106640625],[-0.04062934027777778,0.006701388888888889],[-0.043828125,0.029887152777777776],[-0.044487847222222224,0.04247395833333333],[-0.045625,0.05384114583333333],[-0.045625,0.059796006944444445],[-0.045625,0.06289496527777778],[-0.045625,0.06417100694444444],[-0.045625,0.06475260416666667],[-0.045625,0.06504340277777777],[-0.045625,0.06504340277777777],[-0.04533854166666667,0.06504340277777777],[-0.04533854166666667,0.06504340277777777],[-0.04533854166666667,0.06504340277777777],[-0.04533854166666667,0.06504340277777777]]]",1,[34],,,,,,,,,,,,,,frontDoor3.jpg,space,2.0053,0,3,3,49,1,greenhouse5.jpg,flowershop3.jpg,greenhouse.jpg,farm2.jpg,,
Image_List_1,,,,,,,,,,,,,,,,46475,2022-03-15_10h14.49.571,analogCatScenes,2020.1.3,MacIntel,60,"[1440,900]","[[[0.002994791666666667,-0.20692274305555555],[0.002994791666666667,-0.20692274305555555],[0.002994791666666667,-0.20692274305555555],[0.002994791666666667,-0.20692274305555555],[0.002994791666666667,-0.20692274305555555],[0.002994791666666667,-0.20692274305555555],[0.002994791666666667,-0.20692274305555555],[0.002994791666666667,-0.20692274305555555],[0.002994791666666667,-0.20692274305555555],[0.002994791666666667,-0.20692274305555555],[0.002994791666666667,-0.2042751736111111],[0.002994791666666667,-0.1968185763888889],[0.002994791666666667,-0.17883246527777777],[0.002209201388888889,-0.15471354166666668],[0.0014887152777777778,-0.13825520833333332],[-0.00026475694444444447,-0.1086935763888889],[-0.0017404513888888888,-0.085859375],[-0.003029513888888889,-0.06940104166666666],[-0.0037847222222222223,-0.03983940972222222],[-0.005325520833333333,-0.014500868055555555],[-0.007178819444444444,0.0019574652777777776],[-0.009878472222222223,0.020169270833333332],[-0.011827256944444444,0.036254340277777776],[-0.011827256944444444,0.058125],[-0.011827256944444444,0.07623697916666666],[-0.011263020833333333,0.08844618055555556],[-0.010321180555555556,0.09530815972222222],[-0.010321180555555556,0.1051736111111111],[-0.010321180555555556,0.10934027777777777],[-0.010321180555555556,0.1140407986111111],[-0.010321180555555556,0.11660590277777778],[-0.010321180555555556,0.11828993055555556],[-0.010321180555555556,0.11887152777777778],[-0.010611979166666667,0.11916232638888889],[-0.010611979166666667,0.11916232638888889],[-0.010611979166666667,0.119453125],[-0.010611979166666667,0.119453125],[-0.010611979166666667,0.119453125],[-0.010611979166666667,0.119453125],[-0.010611979166666667,0.119453125]]]",1,[40],,,,,,,,,,,,,,library_aisle3.jpg,space,2.0933,0,4,4,67,1,park7.jpg,laundromat4.jpg,liquorstore2.jpg,hospitalroom2.jpg,,
Image_List_1,,,,,,,,,,,,,,,,46475,2022-03-15_10h14.49.571,analogCatScenes,2020.1.3,MacIntel,60,"[1440,900]","[[[0.0004991319444444444,-0.20465711805555556],[0.0004991319444444444,-0.20465711805555556],[0.0004991319444444444,-0.20465711805555556],[0.0004991319444444444,-0.20465711805555556],[0.0004991319444444444,-0.20465711805555556],[-0.0001388888888888889,-0.20465711805555556],[-0.0031770833333333334,-0.203515625],[-0.009131944444444444,-0.20168402777777777],[-0.02171875,-0.20036458333333335],[-0.04108506944444444,-0.19760416666666666],[-0.06391927083333333,-0.1954079861111111],[-0.09878038194444444,-0.18876302083333332],[-0.11924045138888889,-0.18312065972222222],[-0.13610243055555554,-0.17569010416666667],[-0.15024739583333332,-0.1666579861111111],[-0.16379774305555556,-0.156875],[-0.17796875,-0.1447439236111111],[-0.19245659722222222,-0.1348654513888889],[-0.20194444444444445,-0.12877170138888888],[-0.21393229166666666,-0.12218315972222223],[-0.2243923611111111,-0.11831597222222222],[-0.23401041666666667,-0.11563802083333333],[-0.24206597222222223,-0.11463107638888889],[-0.251328125,-0.11188802083333334],[-0.2561848958333333,-0.10923611111111112],[-0.2600390625,-0.10582465277777778],[-0.2631640625,-0.1009375],[-0.2658159722222222,-0.09658420138888889],[-0.26852864583333336,-0.0920138888888889],[-0.2705859375,-0.08831597222222222],[-0.27305121527777776,-0.08502604166666666],[-0.2745095486111111,-0.0824609375],[-0.27590711805555557,-0.08036892361111111],[-0.2773046875,-0.07827690972222222],[-0.27797743055555557,-0.07659288194444444],[-0.2786501736111111,-0.07490885416666666],[-0.27958333333333335,-0.07334201388888889],[-0.2799045138888889,-0.07241319444444444],[-0.2804861111111111,-0.07183159722222222],[-0.2808072916666667,-0.07090277777777777],[-0.28141927083333335,-0.06997395833333334],[-0.28174045138888887,-0.06904513888888889],[-0.28203125,-0.06846354166666667],[-0.28203125,-0.06788194444444444],[-0.28203125,-0.06759114583333334],[-0.28203125,-0.06759114583333334],[-0.28203125,-0.06759114583333334],[-0.28203125,-0.06759114583333334],[-0.28203125,-0.06759114583333334],[-0.28203125,-0.06759114583333334],[-0.28203125,-0.06759114583333334],[-0.28203125,-0.06759114583333334],[-0.28203125,-0.06759114583333334],[-0.28203125,-0.06759114583333334],[-0.28203125,-0.06759114583333334],[-0.28203125,-0.06759114583333334]]]",1,[56],,,,,,,,,,,,,,basement.jpg,space,3.1916,0,5,5,16,1,cafeteria6.jpg,breakroom2.jpg,campusquad4.jpg,barbershop2.jpg,,
Image_List_1,,,,,,,,,,,,,,,,46475,2022-03-15_10h14.49.571,analogCatScenes,2020.1.3,MacIntel,60,"[1440,900]","[[[-0.0036067708333333334,-0.19767795138888888],[-0.0036067708333333334,-0.19767795138888888],[-0.0036067708333333334,-0.19767795138888888],[-0.0036067708333333334,-0.19767795138888888],[-0.0036067708333333334,-0.19767795138888888],[-0.0036067708333333334,-0.19767795138888888],[-0.0036067708333333334,-0.19767795138888888],[-0.0036067708333333334,-0.19767795138888888],[-0.0036067708333333334,-0.19767795138888888],[0.007864583333333333,-0.19462239583333332],[0.019223090277777778,-0.19122829861111112],[0.040052083333333335,-0.1862109375],[0.07364149305555556,-0.18104166666666666],[0.10870225694444445,-0.17841145833333333],[0.12990885416666667,-0.17841145833333333],[0.15036024305555556,-0.17772135416666668],[0.16546875,-0.17640190972222222],[0.17766927083333334,-0.17407552083333333],[0.19187065972222223,-0.1691796875],[0.2011328125,-0.16477864583333332],[0.2130512152777778,-0.15881510416666667],[0.227734375,-0.14976996527777778],[0.23627604166666666,-0.14442274305555555],[0.24428385416666668,-0.13854166666666667],[0.25063368055555557,-0.13416666666666666],[0.25698350694444444,-0.12975694444444444],[0.2609505208333333,-0.12672309027777778],[0.26463975694444447,-0.12384548611111111],[0.2669140625,-0.1215625],[0.26937065972222224,-0.11827256944444445],[0.27182725694444443,-0.11457465277777777],[0.27594618055555553,-0.10953125],[0.28109809027777777,-0.10223524305555555],[0.28715711805555555,-0.09287326388888889],[0.29546875,-0.07842447916666667],[0.3015277777777778,-0.06962673611111111],[0.3068663194444444,-0.06107638888888889],[0.3155208333333333,-0.04930989583333333],[0.32079861111111113,-0.04138888888888889],[0.3268576388888889,-0.03202690972222222],[0.33265625,-0.0209765625],[0.3397352430555556,-0.006362847222222222],[0.3467838541666667,0.0084375]],[[0.004752604166666666,-0.20692708333333334],[0.004752604166666666,-0.20692708333333334],[0.004752604166666666,-0.20692708333333334],[0.004752604166666666,-0.20692708333333334],[0.004752604166666666,-0.20692708333333334],[0.004752604166666666,-0.20692708333333334],[0.004752604166666666,-0.20692708333333334],[0.0026649305555555554,-0.20407986111111112],[-0.0022135416666666666,-0.19819444444444445],[-0.01265625,-0.18674479166666666],[-0.024631076388888888,-0.17332899305555555],[-0.04226996527777778,-0.1548828125],[-0.05675347222222222,-0.14039930555555555],[-0.06926215277777778,-0.127890625],[-0.08036458333333334,-0.1165060763888889],[-0.09078125,-0.10608940972222222],[-0.10056857638888889,-0.09567274305555555],[-0.11248697916666667,-0.08563802083333333],[-0.12600260416666667,-0.0753515625],[-0.13983072916666667,-0.0641579861111111],[-0.1528342013888889,-0.052821180555555555],[-0.16109809027777777,-0.04565538194444444],[-0.166953125,-0.0402734375],[-0.17262152777777778,-0.03555121527777778],[-0.17734375,-0.030355902777777777],[-0.18025173611111112,-0.027005208333333332],[-0.18262586805555556,-0.02421875],[-0.18358506944444444,-0.022942708333333332],[-0.18358506944444444,-0.02265190972222222],[-0.18358506944444444,-0.02265190972222222],[-0.18358506944444444,-0.02265190972222222],[-0.18358506944444444,-0.02265190972222222]]]",2,"[43,32]",,,,,,,,,,,,,,bowlingalley5.jpg,space,4.6909,0,6,6,22,1,church6.jpg,cargo5.jpg,cemetery.jpg,bistrooutdoor6.jpg,,
Image_List_1,,,,,,,,,,,,,,,,46475,2022-03-15_10h14.49.571,analogCatScenes,2020.1.3,MacIntel,60,"[1440,900]","[[[0.007582465277777777,-0.19288194444444445],[0.007582465277777777,-0.19288194444444445],[0.007582465277777777,-0.19288194444444445],[0.007582465277777777,-0.19288194444444445],[0.007582465277777777,-0.19288194444444445],[0.007582465277777777,-0.19288194444444445],[0.007582465277777777,-0.19288194444444445],[0.007582465277777777,-0.19288194444444445],[0.007582465277777777,-0.19288194444444445],[0.007868923611111111,-0.19288194444444445],[0.01947482638888889,-0.188203125],[0.036328125,-0.18077256944444445],[0.06685329861111111,-0.17059461805555556],[0.10889756944444444,-0.15725260416666667],[0.15366753472222222,-0.14396701388888888],[0.17821180555555555,-0.1355078125],[0.19822916666666668,-0.12798177083333334],[0.21364583333333334,-0.12217881944444445],[0.2294357638888889,-0.11493489583333333],[0.2447309027777778,-0.10815972222222223],[0.2544574652777778,-0.10250434027777777],[0.2638107638888889,-0.09643663194444445],[0.26918836805555557,-0.09199652777777778],[0.2739670138888889,-0.08755642361111111],[0.27990885416666667,-0.08258246527777778],[0.28663194444444445,-0.077421875],[0.2977560763888889,-0.07084201388888889],[0.3065451388888889,-0.06477430555555555],[0.31364583333333335,-0.05973958333333333],[0.3174913194444444,-0.05674045138888889],[0.32077256944444443,-0.053862847222222225],[0.3229513888888889,-0.052022569444444444],[0.3256336805555556,-0.050091145833333336],[0.3293229166666667,-0.04803385416666667],[0.3330121527777778,-0.0459765625],[0.3360416666666667,-0.044457465277777775],[0.33859809027777776,-0.04299913194444444],[0.3398654513888889,-0.042039930555555556],[0.34043836805555555,-0.042039930555555556],[0.34043836805555555,-0.042039930555555556],[0.34043836805555555,-0.042039930555555556],[0.34043836805555555,-0.042039930555555556],[0.34043836805555555,-0.042039930555555556],[0.34043836805555555,-0.042039930555555556],[0.34043836805555555,-0.042039930555555556],[0.34043836805555555,-0.042039930555555556]]]",1,[46],,,,,,,,,,,,,,auto_showroom3.jpg,space,2.3317,0,7,7,9,1,bar2.jpg,ballroom2.jpg,basement5.jpg,arcade2.jpg,,
Image_List_1,,,,,,,,,,,,,,,,46475,2022-03-15_10h14.49.571,analogCatScenes,2020.1.3,MacIntel,60,"[1440,900]","[[[0.0048177083333333336,-0.20333333333333334],[0.0048177083333333336,-0.20333333333333334],[0.0048177083333333336,-0.20333333333333334],[0.0048177083333333336,-0.20333333333333334],[0.0048177083333333336,-0.20333333333333334],[0.0048177083333333336,-0.20333333333333334],[0.0048177083333333336,-0.20333333333333334],[0.0048177083333333336,-0.20333333333333334],[0.0048177083333333336,-0.20333333333333334],[0.0048177083333333336,-0.20333333333333334],[0.0048177083333333336,-0.20228732638888888],[0.0048177083333333336,-0.19633246527777778],[0.005850694444444445,-0.18749565972222224],[0.007664930555555556,-0.17490885416666666],[0.011853298611111111,-0.14473524305555555],[0.01529513888888889,-0.1261501736111111],[0.017109375,-0.1138498263888889],[0.0199609375,-0.1024826388888889],[0.020902777777777777,-0.0953125],[0.021627604166666668,-0.09274739583333333],[0.021944444444444444,-0.09181857638888889],[0.021944444444444444,-0.09152777777777778],[0.021944444444444444,-0.09152777777777778],[0.021944444444444444,-0.09123697916666666],[0.022230902777777777,-0.09065538194444445],[0.022925347222222222,-0.08856336805555555],[0.027703993055555556,-0.07839409722222222],[0.03125434027777778,-0.07027777777777777],[0.03373697916666667,-0.06282118055555555],[0.03612413194444444,-0.05614583333333333],[0.037760416666666664,-0.05197916666666667],[0.038424479166666664,-0.05029513888888889],[0.0387109375,-0.05000434027777778],[0.03899739583333333,-0.05000434027777778],[0.03899739583333333,-0.05000434027777778],[0.03899739583333333,-0.04942274305555556],[0.03899739583333333,-0.048841145833333335],[0.03931423611111111,-0.047565104166666664],[0.03963107638888889,-0.04663628472222222],[0.040203993055555554,-0.0460546875],[0.040203993055555554,-0.0460546875],[0.040203993055555554,-0.0460546875],[0.040203993055555554,-0.0460546875],[0.040203993055555554,-0.0460546875]]]",1,[44],,,,,,,,,,,,,,dugout4.jpg,space,2.7409,0,8,8,41,1,farm3.jpg,drymountains3.jpg,fabricstore1.jpg,dentist2.jpg,,
Image_List_1,,,,,,,,,,,,,,,,46475,2022-03-15_10h14.49.571,analogCatScenes,2020.1.3,MacIntel,60,"[1440,900]","[[[-0.0011588541666666668,-0.2023828125],[-0.0011588541666666668,-0.2023828125],[-0.0011588541666666668,-0.2023828125],[-0.0011588541666666668,-0.2023828125],[-0.0011588541666666668,-0.2023828125],[-0.0011588541666666668,-0.2023828125],[-0.0011588541666666668,-0.2023828125],[-0.0011588541666666668,-0.2023828125],[-0.0011588541666666668,-0.19609375],[-0.0011588541666666668,-0.18297743055555554],[-0.0011588541666666668,-0.1668923611111111],[-0.0011588541666666668,-0.15068142361111111],[-0.0011588541666666668,-0.12946614583333332],[-0.0011588541666666668,-0.1078515625],[-0.0011588541666666668,-0.0806640625],[-0.0018489583333333333,-0.06698350694444444],[-0.004518229166666667,-0.04021267361111111],[-0.005364583333333333,-0.014496527777777778],[-0.006744791666666666,0.0008072916666666667],[-0.006744791666666666,0.01792534722222222],[-0.006744791666666666,0.028098958333333333],[-0.007282986111111111,0.03771701388888889],[-0.007725694444444445,0.04301215277777778],[-0.008077256944444444,0.04557725694444444],[-0.008077256944444444,0.04685329861111111],[-0.008077256944444444,0.04714409722222222],[-0.008077256944444444,0.04714409722222222],[-0.008077256944444444,0.04714409722222222],[-0.008077256944444444,0.04714409722222222],[-0.008077256944444444,0.04714409722222222],[-0.008077256944444444,0.04714409722222222]],[[0.0020746527777777777,-0.21167100694444443],[0.0020746527777777777,-0.21167100694444443],[0.0020746527777777777,-0.21167100694444443],[0.0020746527777777777,-0.21167100694444443],[0.0020746527777777777,-0.21167100694444443],[0.0020746527777777777,-0.21167100694444443],[0.0020746527777777777,-0.21167100694444443],[0.007717013888888889,-0.20450520833333333],[0.021558159722222223,-0.1899956597222222],[0.03637152777777778,-0.17448350694444445],[0.06267361111111111,-0.14666232638888888],[0.07295572916666666,-0.1345529513888889],[0.08073350694444445,-0.12319444444444444],[0.08741753472222222,-0.11430555555555555],[0.09631944444444444,-0.10094618055555556],[0.10472222222222222,-0.09077690972222222],[0.11390625,-0.079765625],[0.12021701388888889,-0.07240885416666666],[0.12627604166666667,-0.063046875],[0.13110677083333333,-0.05393229166666667],[0.13343315972222222,-0.0478515625],[0.13487413194444445,-0.041176215277777775],[0.1361284722222222,-0.03442274305555556],[0.13700520833333332,-0.0290625],[0.13782118055555556,-0.024956597222222224],[0.13860677083333334,-0.021263020833333333],[0.1393923611111111,-0.017690972222222223],[0.1401171875,-0.015125868055555556],[0.14040364583333334,-0.014197048611111112],[0.14069010416666666,-0.01390625],[0.14069010416666666,-0.013615451388888889],[0.1409765625,-0.013324652777777777],[0.14126302083333334,-0.013033854166666666],[0.14126302083333334,-0.012452256944444445],[0.14126302083333334,-0.012452256944444445],[0.14154947916666666,-0.012452256944444445],[0.14154947916666666,-0.012452256944444445],[0.14154947916666666,-0.012452256944444445],[0.14154947916666666,-0.012452256944444445],[0.14154947916666666,-0.012452256944444445]],[[-0.0036067708333333334,-0.20515625],[-0.0036067708333333334,-0.20515625],[-0.0036067708333333334,-0.20515625],[-0.0036067708333333334,-0.20515625],[-0.0036067708333333334,-0.20515625],[-0.0036067708333333334,-0.20515625],[-0.0038975694444444444,-0.20515625],[-0.008784722222222222,-0.20326388888888888],[-0.015616319444444445,-0.19983072916666667],[-0.024227430555555554,-0.19448784722222223],[-0.04146701388888889,-0.18624131944444444],[-0.05907986111111111,-0.17715277777777777],[-0.07856770833333333,-0.16631076388888888],[-0.09736545138888889,-0.1540277777777778],[-0.11259548611111111,-0.1416189236111111],[-0.12325954861111112,-0.12970052083333333],[-0.12928819444444445,-0.11914930555555556],[-0.1368142361111111,-0.10459635416666667],[-0.1453515625,-0.08514322916666667],[-0.1496267361111111,-0.07546440972222222],[-0.15252604166666667,-0.06913628472222222],[-0.15536458333333333,-0.06252170138888889],[-0.15776041666666665,-0.05584635416666667],[-0.15953125,-0.050551215277777777],[-0.161484375,-0.04321614583333333],[-0.1630295138888889,-0.03437934027777778],[-0.16473090277777777,-0.023077256944444444],[-0.16583767361111112,-0.0126171875],[-0.1667230902777778,-0.007256944444444444],[-0.16849392361111112,-0.0019618055555555556],[-0.17001302083333333,0.0010763888888888889],[-0.1720486111111111,0.003806423611111111],[-0.17272135416666667,0.0054904513888888885],[-0.17272135416666667,0.006766493055555556],[-0.17272135416666667,0.008042534722222222],[-0.17272135416666667,0.008971354166666667],[-0.17272135416666667,0.009552951388888889],[-0.17272135416666667,0.009552951388888889],[-0.17243489583333332,0.009552951388888889],[-0.1721484375,0.009552951388888889],[-0.17186197916666668,0.009552951388888889],[-0.17186197916666668,0.009552951388888889],[-0.17157552083333333,0.009552951388888889],[-0.17157552083333333,0.009552951388888889],[-0.17157552083333333,0.009552951388888889],[-0.17157552083333333,0.009552951388888889]]]",3,"[31,40,46]",,,,,,,,,,,,,,tollbooth8.jpg,space,4.6434,0,9,9,93,1,volleyballcourt4.jpg,staircase4.jpg,warehouseoutside2.jpg,tenniscourt.jpg,,
Image_List_1,,,,,,,,,,,,,,,,46475,2022-03-15_10h14.49.571,analogCatScenes,2020.1.3,MacIntel,60,"[1440,900]","[[[0.009856770833333334,-0.20413194444444444],[0.009856770833333334,-0.20413194444444444],[0.009856770833333334,-0.20413194444444444],[0.009856770833333334,-0.20413194444444444],[0.009856770833333334,-0.20413194444444444],[0.009856770833333334,-0.20413194444444444],[0.009856770833333334,-0.20413194444444444],[0.009856770833333334,-0.20413194444444444],[0.009856770833333334,-0.20413194444444444],[0.009856770833333334,-0.20413194444444444],[0.009856770833333334,-0.20413194444444444],[0.009856770833333334,-0.20413194444444444],[0.009856770833333334,-0.2030859375],[0.009856770833333334,-0.19153211805555556],[0.009856770833333334,-0.1733203125],[0.009856770833333334,-0.15286024305555557],[0.009856770833333334,-0.11146701388888888],[0.009856770833333334,-0.07013888888888889],[0.009856770833333334,-0.011276041666666667],[0.009856770833333334,0.011940104166666667],[0.009856770833333334,0.038624131944444445],[0.009856770833333334,0.05908420138888889],[0.009856770833333334,0.07729600694444444],[0.009856770833333334,0.09234809027777778],[0.010421006944444445,0.10455729166666666],[0.012144097222222223,0.11592447916666666],[0.0132421875,0.12638454861111112],[0.014275173611111112,0.13522135416666667],[0.014774305555555556,0.14405815972222222],[0.015807291666666667,0.15289496527777777],[0.01677517361111111,0.16023003472222222],[0.017651909722222223,0.16559027777777777],[0.018090277777777778,0.17293836805555557],[0.018090277777777778,0.17704427083333332],[0.018090277777777778,0.18008246527777777],[0.018467881944444445,0.18312065972222222],[0.018467881944444445,0.18568576388888888],[0.018467881944444445,0.18872395833333333],[0.018467881944444445,0.1912890625],[0.018467881944444445,0.19385416666666666],[0.017825520833333334,0.19513020833333333],[0.017183159722222223,0.19640625],[0.01689236111111111,0.19698784722222223],[0.0166015625,0.19727864583333332],[0.0166015625,0.19727864583333332],[0.0166015625,0.19727864583333332],[0.0166015625,0.19727864583333332],[0.0166015625,0.19727864583333332],[0.0166015625,0.19727864583333332],[0.0166015625,0.19727864583333332],[0.0166015625,0.19727864583333332]]]",1,[51],,,,,,,,,,,,,,wineVineyard9.jpg,space,2.2788,0,10,10,99,1,yogastudio4.jpg,windmill2.jpg,wrestlingring7.jpg,yogastudio1.jpg,,
Image_List_1,,,,,,,,,,,,,,,,46475,2022-03-15_10h14.49.571,analogCatScenes,2020.1.3,MacIntel,60,"[1440,900]","[[[-0.0010199652777777778,-0.19084201388888888],[-0.0010199652777777778,-0.19084201388888888],[-0.0010199652777777778,-0.19084201388888888],[-0.0010199652777777778,-0.19084201388888888],[-0.0010199652777777778,-0.19084201388888888],[-0.0010199652777777778,-0.19084201388888888],[-0.0010199652777777778,-0.19020399305555555],[-0.0010199652777777778,-0.18274739583333333],[-0.0010199652777777778,-0.16763020833333334],[-0.0010199652777777778,-0.13138454861111112],[-0.0010199652777777778,-0.09740885416666667],[-0.0010199652777777778,-0.05441840277777778],[0.0026041666666666665,-0.016219618055555555],[0.005855034722222222,0.013155381944444445],[0.007795138888888889,0.02845920138888889],[0.008949652777777779,0.041419270833333334],[0.00951388888888889,0.05672309027777778],[0.00951388888888889,0.06718315972222222],[0.00951388888888889,0.08329427083333334],[0.010078125,0.09459635416666666],[0.011176215277777778,0.10505642361111112],[0.012526041666666666,0.11041666666666666],[0.013719618055555556,0.11458333333333333],[0.014383680555555556,0.1162673611111111],[0.014956597222222222,0.11655815972222222],[0.014956597222222222,0.11655815972222222],[0.014956597222222222,0.11655815972222222],[0.014956597222222222,0.11655815972222222],[0.014956597222222222,0.11655815972222222]]]",1,[29],,,,,,,,,,,,,,bambooforest4.jpg,space,1.9116,0,11,11,15,1,cafeteria5.jpg,bleachers8.jpg,cabinIndoors.jpg,bar8.jpg,,
Image_List_1,,,,,,,,,,,,,,,,46475,2022-03-15_10h14.49.571,analogCatScenes,2020.1.3,MacIntel,60,"[1440,900]","[[[0.0027864583333333335,-0.20613715277777778],[0.0027864583333333335,-0.20613715277777778],[0.0027864583333333335,-0.20613715277777778],[0.0027864583333333335,-0.20613715277777778],[0.0027864583333333335,-0.20613715277777778],[0.0027864583333333335,-0.20613715277777778],[0.0027864583333333335,-0.20613715277777778],[0.0027864583333333335,-0.20613715277777778],[0.0027864583333333335,-0.20613715277777778],[0.0064366319444444445,-0.2027951388888889],[0.015533854166666666,-0.1954123263888889],[0.02541232638888889,-0.18727864583333334],[0.041731770833333334,-0.1752734375],[0.07448350694444444,-0.15616319444444443],[0.09874565972222223,-0.1444184027777778],[0.12385416666666667,-0.1334548611111111],[0.14889756944444443,-0.12327256944444444],[0.1714409722222222,-0.11274305555555555],[0.195234375,-0.10121527777777778],[0.21824652777777778,-0.0896875],[0.2384765625,-0.07959635416666666],[0.2529296875,-0.07453993055555555],[0.27157118055555557,-0.06776909722222223],[0.28868055555555555,-0.06381944444444444],[0.30578993055555553,-0.06118055555555556],[0.33042100694444443,-0.058606770833333335],[0.34262152777777777,-0.056280381944444444],[0.34869357638888887,-0.05444878472222222]]]",1,[28],,,,,,,,,,,,,,pasture.jpg,space,2.0939,0,12,12,79,1,poolhall2.jpeg,playground9.jpg,pier2.jpg,observatory2.jpg,,
Image_List_1,,,,,,,,,,,,,,,,46475,2022-03-15_10h14.49.571,analogCatScenes,2020.1.3,MacIntel,60,"[1440,900]","[[[-0.0028602430555555555,-0.1944965277777778],[-0.0028602430555555555,-0.1944965277777778],[-0.0028602430555555555,-0.1944965277777778],[-0.0028602430555555555,-0.1944965277777778],[-0.0028602430555555555,-0.1944965277777778],[-0.0028602430555555555,-0.1944965277777778],[-0.0028602430555555555,-0.1944965277777778],[-0.0028602430555555555,-0.1944965277777778],[-0.0028602430555555555,-0.1944965277777778],[-0.0028602430555555555,-0.1944965277777778],[-0.0028602430555555555,-0.1944965277777778],[-0.003181423611111111,-0.19385850694444445],[-0.0061805555555555555,-0.19000434027777777],[-0.008832465277777778,-0.18514756944444444],[-0.013645833333333333,-0.17675347222222224],[-0.021284722222222222,-0.16258246527777778],[-0.0253125,-0.15503038194444443],[-0.029340277777777778,-0.1469748263888889],[-0.03236111111111111,-0.13891927083333333],[-0.0347265625,-0.1323046875],[-0.0360546875,-0.12747829861111112],[-0.038203125,-0.12277777777777778],[-0.03902777777777778,-0.118671875],[-0.03997395833333333,-0.11384548611111112],[-0.03997395833333333,-0.10829861111111111],[-0.03997395833333333,-0.10419270833333333],[-0.03997395833333333,-0.10008680555555556],[-0.03997395833333333,-0.09598090277777778],[-0.040859375,-0.0891015625],[-0.041302083333333336,-0.08314670138888888],[-0.04177517361111111,-0.0783203125],[-0.042217881944444445,-0.07236545138888889],[-0.042630208333333336,-0.06825954861111111],[-0.0437109375,-0.06569444444444444],[-0.04491753472222222,-0.06212239583333334],[-0.04631510416666667,-0.05996527777777778],[-0.0477734375,-0.05740017361111111],[-0.04879340277777778,-0.055716145833333335],[-0.04943576388888889,-0.05444010416666667],[-0.0497265625,-0.054149305555555555],[-0.0497265625,-0.054149305555555555],[-0.0497265625,-0.054149305555555555],[-0.0497265625,-0.054149305555555555],[-0.0497265625,-0.054149305555555555],[-0.0497265625,-0.054149305555555555],[-0.0497265625,-0.054149305555555555],[-0.0497265625,-0.054149305555555555],[-0.0497265625,-0.054149305555555555],[-0.0497265625,-0.054149305555555555],[-0.0497265625,-0.054149305555555555]],[[-0.0020789930555555557,-0.20739583333333333],[-0.0020789930555555557,-0.20739583333333333],[-0.0020789930555555557,-0.20739583333333333],[-0.0020789930555555557,-0.20739583333333333],[-0.0020789930555555557,-0.20739583333333333],[-0.0020789930555555557,-0.20739583333333333],[-0.0020789930555555557,-0.20739583333333333],[-0.0047699652777777775,-0.20657118055555557],[-0.009813368055555556,-0.2029123263888889],[-0.014231770833333334,-0.1993793402777778],[-0.019088541666666667,-0.1962890625],[-0.030017361111111113,-0.191640625],[-0.04547743055555555,-0.18586805555555555],[-0.06127604166666667,-0.17927951388888888],[-0.07990885416666667,-0.17014322916666666],[-0.09189670138888889,-0.16361111111111112],[-0.10125868055555555,-0.15754340277777779],[-0.10956163194444445,-0.15285590277777777],[-0.11736111111111111,-0.14766493055555555],[-0.12815538194444445,-0.13987847222222222],[-0.1350390625,-0.13355902777777778],[-0.14330295138888888,-0.1264236111111111],[-0.15156684027777778,-0.1198220486111111],[-0.15861545138888888,-0.11478732638888889],[-0.1656640625,-0.1107595486111111],[-0.17354166666666668,-0.10520833333333333],[-0.17873697916666667,-0.10048611111111111],[-0.18393229166666666,-0.09529079861111112],[-0.1897873263888889,-0.09037760416666667],[-0.19614583333333332,-0.08647135416666667],[-0.20169270833333333,-0.08369791666666666],[-0.20723958333333334,-0.08092447916666666],[-0.21226128472222222,-0.07719184027777778],[-0.21390625,-0.07595920138888888],[-0.21628038194444443,-0.07317274305555556],[-0.21805989583333332,-0.07139322916666667],[-0.2190190972222222,-0.0701171875],[-0.21930989583333332,-0.06982638888888888],[-0.21930989583333332,-0.06982638888888888],[-0.21930989583333332,-0.06982638888888888],[-0.21930989583333332,-0.06982638888888888]]]",2,"[50,41]",,,,,,,,,,,,,,highway7.jpg,space,3.5546,0,13,13,58,1,lab1.jpg,hedgemaze1.jpg,igloo4.jpg,grocerystore2.jpg,,
Image_List_1,,,,,,,,,,,,,,,,46475,2022-03-15_10h14.49.571,analogCatScenes,2020.1.3,MacIntel,60,"[1440,900]","[[[-0.01068142361111111,-0.19183159722222223],[-0.01068142361111111,-0.19183159722222223],[-0.01068142361111111,-0.19183159722222223],[-0.01068142361111111,-0.19183159722222223],[-0.01068142361111111,-0.19183159722222223],[-0.01068142361111111,-0.19183159722222223],[-0.01068142361111111,-0.19183159722222223],[-0.01068142361111111,-0.19183159722222223],[-0.01068142361111111,-0.19183159722222223],[-0.01068142361111111,-0.19183159722222223],[-0.01068142361111111,-0.19183159722222223],[-0.01068142361111111,-0.19183159722222223],[-0.01068142361111111,-0.19183159722222223],[-0.01068142361111111,-0.19183159722222223],[-0.01068142361111111,-0.19183159722222223],[-0.01068142361111111,-0.19183159722222223],[-0.01068142361111111,-0.19183159722222223],[-0.01068142361111111,-0.19183159722222223],[-0.01068142361111111,-0.19183159722222223],[-0.01068142361111111,-0.19183159722222223],[-0.01068142361111111,-0.19183159722222223],[-0.01068142361111111,-0.19183159722222223],[-0.01068142361111111,-0.19183159722222223],[-0.01068142361111111,-0.19183159722222223],[-0.01068142361111111,-0.19183159722222223],[-0.01068142361111111,-0.19183159722222223],[-0.01068142361111111,-0.19183159722222223],[-0.01068142361111111,-0.19183159722222223],[-0.01068142361111111,-0.19183159722222223],[-0.01068142361111111,-0.19183159722222223],[-0.01068142361111111,-0.19183159722222223],[-0.01068142361111111,-0.19183159722222223],[-0.01068142361111111,-0.19183159722222223],[-0.01068142361111111,-0.19183159722222223],[-0.01068142361111111,-0.19183159722222223],[-0.01068142361111111,-0.19183159722222223],[-0.01068142361111111,-0.19183159722222223],[-0.01068142361111111,-0.19183159722222223],[-0.009166666666666667,-0.19183159722222223],[0.0069097222222222225,-0.18856770833333333],[0.04010416666666667,-0.17678385416666667],[0.0824392361111111,-0.16202690972222222],[0.1289453125,-0.14567274305555555],[0.1898394097222222,-0.12311197916666666],[0.24388888888888888,-0.10149739583333334],[0.27730034722222224,-0.08771267361111111],[0.31223524305555556,-0.07342881944444445],[0.33171875,-0.06603298611111111]]]",1,[48],,,,,,,,,,,,,,cubicle4.jpg,space,3.5037,0,14,14,31,1,desertvegetation6.jpg,conference4.jpg,courtroom2.jpg,cabin3.jpg,,
Image_List_1,,,,,,,,,,,,,,,,46475,2022-03-15_10h14.49.571,analogCatScenes,2020.1.3,MacIntel,60,"[1440,900]","[[[0.0005338541666666666,-0.2034765625],[0.0005338541666666666,-0.2034765625],[0.0005338541666666666,-0.2034765625],[0.0005338541666666666,-0.2034765625],[0.0005338541666666666,-0.2034765625],[0.0005338541666666666,-0.2034765625],[0.0005338541666666666,-0.2034765625],[0.0005338541666666666,-0.2034765625],[0.0005338541666666666,-0.2034765625],[0.0005338541666666666,-0.2034765625],[0.0005338541666666666,-0.2034765625],[0.0002126736111111111,-0.20283854166666668],[-0.005169270833333333,-0.19745659722222222],[-0.013927951388888889,-0.18875868055555556],[-0.035633680555555554,-0.1695876736111111],[-0.06569444444444444,-0.14509982638888888],[-0.12358940972222222,-0.10486111111111111],[-0.16241753472222223,-0.07961805555555555],[-0.19776909722222222,-0.05478298611111111],[-0.23064670138888888,-0.02941840277777778],[-0.25125868055555556,-0.012096354166666667],[-0.27577690972222224,0.0098828125],[-0.29691840277777776,0.027113715277777777],[-0.3094661458333333,0.03530381944444445],[-0.3193576388888889,0.04123697916666667],[-0.3276909722222222,0.045390625],[-0.33305121527777776,0.04763454861111111],[-0.3366232638888889,0.048841145833333335],[-0.33966145833333333,0.04998263888888889],[-0.3428645833333333,0.05170138888888889],[-0.34391493055555555,0.05379340277777778],[-0.34391493055555555,0.055950520833333336],[-0.34391493055555555,0.055950520833333336],[-0.34391493055555555,0.055950520833333336],[-0.34391493055555555,0.055950520833333336],[-0.34391493055555555,0.055950520833333336]]]",1,[36],,,,,,,,,,,,,,baggageClaim4.jpg,space,1.8877,0,15,15,12,1,bedroom6.jpg,bambooforest5.jpg,bleachers7.jpg,backyard5.jpg,,
Image_List_1,,,,,,,,,,,,,,,,46475,2022-03-15_10h14.49.571,analogCatScenes,2020.1.3,MacIntel,60,"[1440,900]","[[[-0.0008203125,-0.19746527777777778],[-0.0008203125,-0.19746527777777778],[-0.0008203125,-0.19746527777777778],[-0.0008203125,-0.19746527777777778],[-0.0008203125,-0.19746527777777778],[-0.0008203125,-0.19746527777777778],[-0.0008203125,-0.19746527777777778],[-0.0008203125,-0.19746527777777778],[-0.0008203125,-0.19746527777777778],[-0.0008203125,-0.19029513888888888],[-0.0014192708333333334,-0.17717881944444444],[-0.002738715277777778,-0.1600607638888889],[-0.002738715277777778,-0.13960069444444445],[-0.002738715277777778,-0.11350694444444444],[-0.002738715277777778,-0.07837673611111111],[-0.002738715277777778,-0.0575390625],[-0.002738715277777778,-0.03470486111111111],[-0.002738715277777778,-0.017586805555555557],[-0.002738715277777778,-0.0035026041666666665],[-0.0033072916666666667,0.013450520833333333],[-0.0033072916666666667,0.02306857638888889],[-0.0033072916666666667,0.03190538194444444],[-0.0025520833333333333,0.03823350694444445],[-0.0007291666666666667,0.04418836805555556],[0.0012543402777777778,0.047760416666666666],[0.0023567708333333335,0.05032552083333333],[0.0030512152777777777,0.05241753472222222],[0.0030512152777777777,0.05450954861111111],[0.0030512152777777777,0.05720052083333333],[0.0030512152777777777,0.059765625],[0.002348090277777778,0.061857638888888886],[0.0014149305555555556,0.06342447916666667],[0.0011241319444444445,0.06435329861111111],[0.0008029513888888889,0.06528211805555556],[0.00019097222222222223,0.0662109375],[-0.00013020833333333333,0.06748697916666667],[-0.00045138888888888887,0.06876302083333333],[-0.001032986111111111,0.06934461805555556],[-0.001032986111111111,0.06963541666666667],[-0.001032986111111111,0.06963541666666667],[-0.001032986111111111,0.06963541666666667],[-0.001032986111111111,0.06963541666666667]]]",1,[42],,,,,,,,,,,,,,recordingstudio4.jpg,space,2.4406,0,16,16,85,1,sidewalk5.jpg,ruralroad2.jpg,sandDunes_desert_outdoor3.jpg,rooftop3.jpg,,
Image_List_1,,,,,,,,,,,,,,,,46475,2022-03-15_10h14.49.571,analogCatScenes,2020.1.3,MacIntel,60,"[1440,900]","[[[0.005438368055555556,-0.20196180555555557],[0.005438368055555556,-0.20196180555555557],[0.005438368055555556,-0.20196180555555557],[0.005438368055555556,-0.20196180555555557],[0.005438368055555556,-0.20196180555555557],[0.005438368055555556,-0.20196180555555557],[0.005438368055555556,-0.20196180555555557],[0.005438368055555556,-0.19801649305555555],[0.005438368055555556,-0.1891796875],[0.005438368055555556,-0.17096788194444446],[0.005438368055555556,-0.14299913194444444],[0.005438368055555556,-0.11368489583333333],[0.005438368055555556,-0.08296440972222222],[0.007000868055555555,-0.050690104166666666],[0.007717013888888889,-0.0398828125],[0.009027777777777777,-0.014144965277777777],[0.010217013888888888,-0.0009678819444444445],[0.010655381944444445,0.006488715277777778],[0.011592881944444444,0.01310329861111111],[0.012378472222222223,0.016675347222222223],[0.013012152777777777,0.017951388888888888],[0.013585069444444445,0.0182421875],[0.01421875,0.0182421875],[0.01421875,0.0182421875],[0.01421875,0.0182421875]]]",1,[25],,,,,,,,,,,,,,pavilion2.jpg,space,2.1635,0,17,17,80,1,racecarcourse2.jpg,porch.jpg,poolhall5.jpg,parkinggarage4.jpg,,
Image_List_1,,,,,,,,,,,,,,,,46475,2022-03-15_10h14.49.571,analogCatScenes,2020.1.3,MacIntel,60,"[1440,900]","[[[0.0013671875,-0.1995486111111111],[0.0013671875,-0.1995486111111111],[0.0013671875,-0.1995486111111111],[0.0013671875,-0.1995486111111111],[0.0013671875,-0.1995486111111111],[0.0013671875,-0.1995486111111111],[0.0013671875,-0.1995486111111111],[0.0013671875,-0.1995486111111111],[0.0013671875,-0.1995486111111111],[-0.0001388888888888889,-0.18752170138888888],[-0.0001388888888888889,-0.16340277777777779],[-0.0001388888888888889,-0.11514756944444444],[-0.0001388888888888889,-0.08302083333333334],[-0.0012369791666666666,-0.021840277777777778],[-0.004683159722222222,0.013016493055555555],[-0.009262152777777777,0.03563802083333333],[-0.012269965277777777,0.059756944444444446],[-0.014153645833333334,0.07480902777777777],[-0.014153645833333334,0.08251302083333334],[-0.014153645833333334,0.09062934027777778],[-0.014153645833333334,0.09598958333333334],[-0.014153645833333334,0.09956163194444445],[-0.0120703125,0.10061197916666667],[-0.0120703125,0.10061197916666667],[-0.0120703125,0.10061197916666667],[-0.0120703125,0.10061197916666667],[-0.0120703125,0.10061197916666667]]]",1,[27],,,,,,,,,,,,,,promenadeDeck.jpg,space,1.7143,0,18,18,81,1,ruralroad5.jpg,promenadeDeck2.jpg,rainforest5.jpg,pasture8.jpg,,
Image_List_1,,,,,,,,,,,,,,,,46475,2022-03-15_10h14.49.571,analogCatScenes,2020.1.3,MacIntel,60,"[1440,900]","[[[-0.0011458333333333333,-0.20764322916666667],[-0.0011458333333333333,-0.20764322916666667],[-0.0011458333333333333,-0.20764322916666667],[-0.0011458333333333333,-0.20764322916666667],[-0.0011458333333333333,-0.20764322916666667],[-0.0011458333333333333,-0.20764322916666667],[-0.0011458333333333333,-0.20764322916666667],[0.0004557291666666667,-0.20219618055555555],[0.008415798611111112,-0.1899609375],[0.017408854166666668,-0.1764453125],[0.02702690972222222,-0.1635546875],[0.041302083333333336,-0.14325520833333333],[0.05572048611111111,-0.1271875],[0.06553385416666667,-0.11680555555555555],[0.07575086805555556,-0.10441840277777778],[0.08349392361111112,-0.09309027777777777],[0.09223090277777778,-0.0762282986111111],[0.10897569444444444,-0.04935763888888889],[0.12118923611111111,-0.03212239583333333],[0.1320920138888889,-0.017825520833333334],[0.14358506944444444,-0.002907986111111111],[0.14873697916666667,0.004388020833333333],[0.15313802083333333,0.010746527777777778],[0.15681423611111112,0.016228298611111112],[0.1598046875,0.02049045138888889],[0.1643967013888889,0.02506076388888889],[0.17241319444444445,0.0321484375],[0.1751909722222222,0.03493489583333333],[0.17623263888888888,0.035633680555555554],[0.17623263888888888,0.035633680555555554],[0.17623263888888888,0.035633680555555554],[0.17623263888888888,0.035633680555555554]]]",1,[32],,,,,,,,,,,,,,warehouse4.jpg,space,1.6639,0,19,19,96,1,warehouseoutside1.jpg,tenniscourt3.jpg,windmill1.jpg,warehouse1.jpg,,
Image_List_1,,,,,,,,,,,,,,,,46475,2022-03-15_10h14.49.571,analogCatScenes,2020.1.3,MacIntel,60,"[1440,900]","[[[-0.0010503472222222223,-0.20449652777777777],[-0.0010503472222222223,-0.20449652777777777],[-0.0010503472222222223,-0.20449652777777777],[-0.0010503472222222223,-0.20449652777777777],[-0.0010503472222222223,-0.20420572916666666],[-0.0018098958333333333,-0.1995876736111111],[-0.0025086805555555557,-0.19648871527777778],[-0.004565972222222222,-0.1923828125],[-0.0097265625,-0.18565104166666666],[-0.018702256944444443,-0.17548177083333333],[-0.02964409722222222,-0.16325086805555555],[-0.03905381944444444,-0.15070746527777779],[-0.04876736111111111,-0.13344184027777778],[-0.05413628472222222,-0.12173177083333334],[-0.06025607638888889,-0.1088671875],[-0.06522135416666666,-0.09897135416666666],[-0.06990885416666667,-0.091171875],[-0.07734375,-0.07818576388888888],[-0.08947916666666667,-0.057078993055555555],[-0.09660590277777778,-0.04631076388888889],[-0.106015625,-0.03376736111111111],[-0.1149609375,-0.0236328125],[-0.12309461805555555,-0.013745659722222222],[-0.1298828125,-0.004136284722222223],[-0.13667100694444445,0.005473090277777778],[-0.14255208333333333,0.013489583333333333],[-0.14840711805555556,0.01887152777777778],[-0.15407552083333334,0.02359375],[-0.15974392361111112,0.02737847222222222],[-0.1659592013888889,0.032239583333333335],[-0.16719184027777778,0.03429253472222222],[-0.1717013888888889,0.042456597222222225],[-0.17421875,0.05051215277777778],[-0.17743055555555556,0.06013020833333333],[-0.18064236111111112,0.06974826388888888],[-0.18416666666666667,0.07780381944444445],[-0.18819444444444444,0.08485243055555555],[-0.19210069444444444,0.0912109375],[-0.19635416666666666,0.09687934027777778],[-0.20038194444444443,0.10392795138888888],[-0.20390625,0.11148003472222222],[-0.20636284722222223,0.11881510416666667],[-0.20756944444444445,0.12238715277777777],[-0.2099435763888889,0.12747829861111112],[-0.21128038194444446,0.1291623263888889],[-0.21296440972222222,0.13049913194444446],[-0.21524739583333333,0.1320529513888889],[-0.2189453125,0.13411024305555555],[-0.22251736111111112,0.13569444444444445],[-0.22561631944444444,0.13762586805555554],[-0.22890625,0.14050347222222223],[-0.23210069444444445,0.14287760416666667],[-0.23488715277777777,0.1452517361111111],[-0.23717013888888888,0.14753472222222222],[-0.23850694444444445,0.14921875],[-0.23978298611111112,0.1501779513888889],[-0.24036458333333333,0.1507595486111111],[-0.24036458333333333,0.1507595486111111],[-0.24036458333333333,0.1507595486111111],[-0.24036458333333333,0.1507595486111111],[-0.24036458333333333,0.1507595486111111]]]",1,[61],,,,,,,,,,,,,,botanicalGarden6.jpg,space,4.2779,0,20,20,21,1,cemetery6.jpg,campusquad3.jpg,cave5.jpg,beach1.jpeg,,
Image_List_1,,,,,,,,,,,,,,,,46475,2022-03-15_10h14.49.571,analogCatScenes,2020.1.3,MacIntel,60,"[1440,900]","[[[0.0025520833333333333,-0.19535590277777778],[0.0025520833333333333,-0.19535590277777778],[0.0025520833333333333,-0.19535590277777778],[0.0025520833333333333,-0.19535590277777778],[0.0025520833333333333,-0.19535590277777778],[0.0025520833333333333,-0.19535590277777778],[0.0025520833333333333,-0.19535590277777778],[0.0025520833333333333,-0.19535590277777778],[0.0025520833333333333,-0.19535590277777778],[0.0025520833333333333,-0.19535590277777778],[0.0025520833333333333,-0.19535590277777778],[0.0025520833333333333,-0.19535590277777778],[0.0025520833333333333,-0.19535590277777778],[0.0025520833333333333,-0.19535590277777778],[0.0025520833333333333,-0.19535590277777778],[0.0025520833333333333,-0.19535590277777778],[0.0025520833333333333,-0.19535590277777778],[0.0025520833333333333,-0.19535590277777778],[0.0025520833333333333,-0.19383680555555555],[0.003372395833333333,-0.19026475694444445],[0.0054210069444444444,-0.18615885416666667],[0.007495659722222222,-0.1819921875],[0.010321180555555556,-0.17531684027777777],[0.012139756944444444,-0.16712239583333333],[0.012608506944444445,-0.1605078125],[0.012608506944444445,-0.15317274305555556],[0.012608506944444445,-0.1463107638888889],[0.011536458333333333,-0.13944878472222222],[0.010616319444444444,-0.13312065972222223],[0.009761284722222222,-0.12829427083333333],[0.00875,-0.12017795138888888],[0.008246527777777778,-0.11284288194444445],[0.0072048611111111115,-0.10400607638888888],[0.006067708333333333,-0.09270399305555556],[0.0043055555555555555,-0.07952690972222222],[0.001857638888888889,-0.06544270833333334],[-0.0011241319444444445,-0.05232638888888889],[-0.004184027777777778,-0.04118923611111111],[-0.006015625,-0.035234375],[-0.007313368055555556,-0.030533854166666666],[-0.008138020833333334,-0.026427951388888888],[-0.008611111111111111,-0.02047309027777778],[-0.009084201388888888,-0.013138020833333333],[-0.009084201388888888,-0.007057291666666667],[-0.009557291666666667,-0.0004427083333333333],[-0.009969618055555556,0.0036631944444444446],[-0.0103515625,0.006701388888888889],[-0.0103515625,0.007977430555555555],[-0.0103515625,0.00890625],[-0.0103515625,0.00890625],[-0.0103515625,0.00890625],[-0.0103515625,0.00890625],[-0.0103515625,0.00890625]]]",1,[53],,,,,,,,,,,,,,exerciseequipment3.jpg,space,2.0777,0,21,21,42,1,firestation3.jpg,drymountains6.jpg,farm4.jpg,desertvegetation2.jpg,,
Image_List_1,,,,,,,,,,,,,,,,46475,2022-03-15_10h14.49.571,analogCatScenes,2020.1.3,MacIntel,60,"[1440,900]","[[[0.0009461805555555556,-0.20139756944444445],[0.0009461805555555556,-0.20139756944444445],[0.0009461805555555556,-0.20139756944444445],[0.0009461805555555556,-0.20139756944444445],[0.0009461805555555556,-0.20139756944444445],[0.0009461805555555556,-0.20139756944444445],[0.0009461805555555556,-0.20139756944444445],[0.0009461805555555556,-0.20139756944444445],[0.0009461805555555556,-0.20139756944444445],[0.0009461805555555556,-0.19704427083333334],[0.0009461805555555556,-0.1865842013888889],[0.0009461805555555556,-0.17049913194444444],[0.0009461805555555556,-0.13830729166666667],[0.0009461805555555556,-0.10323784722222222],[0.0009461805555555556,-0.08336805555555556],[0.0009461805555555556,-0.060533854166666665],[0.0009461805555555556,-0.04122829861111111],[0.00028645833333333333,-0.024110243055555557],[-0.0007855902777777777,-0.01599392361111111],[-0.0016710069444444444,-0.006605902777777777],[-0.0019921875,-0.004921875],[-0.0019921875,-0.004631076388888889],[-0.0019921875,-0.004631076388888889],[-0.0019921875,-0.004631076388888889],[-0.0019921875,-0.004631076388888889]]]",1,[25],,,,,,,,,,,,,,gasstation6.jpg,space,1.7423,0,22,22,51,1,hallway5.jpg,frontDoor5.jpg,hayfield4.jpg,firestation5.jpg,,
Image_List_1,,,,,,,,,,,,,,,,46475,2022-03-15_10h14.49.571,analogCatScenes,2020.1.3,MacIntel,60,"[1440,900]","[[[0.0032942708333333335,-0.19509114583333334],[0.0032942708333333335,-0.19509114583333334],[0.0032942708333333335,-0.19509114583333334],[0.0032942708333333335,-0.19509114583333334],[0.0032942708333333335,-0.19509114583333334],[0.0029123263888888888,-0.1935720486111111],[-0.0003732638888888889,-0.19028645833333332],[-0.009227430555555555,-0.1808984375],[-0.028836805555555556,-0.16586371527777777],[-0.05326388888888889,-0.14876302083333334],[-0.07174913194444445,-0.1362282986111111],[-0.09492621527777778,-0.11944010416666667],[-0.11375,-0.10361979166666667],[-0.13690538194444443,-0.08256510416666667],[-0.1507638888888889,-0.07065104166666666],[-0.1665625,-0.06209201388888889],[-0.18202256944444445,-0.05503472222222222],[-0.199140625,-0.04910590277777778],[-0.21648003472222221,-0.0446875],[-0.22706597222222222,-0.04138888888888889],[-0.2411501736111111,-0.036493055555555556],[-0.25276475694444445,-0.03125],[-0.26393663194444444,-0.024657118055555555],[-0.272734375,-0.01858940972222222],[-0.2768012152777778,-0.014583333333333334],[-0.28065538194444445,-0.011171875],[-0.2836328125,-0.007782118055555555],[-0.28496961805555554,-0.006098090277777778],[-0.28665364583333336,-0.005108506944444444],[-0.2883376736111111,-0.004118923611111111],[-0.2896137152777778,-0.0028428819444444443],[-0.29054253472222225,-0.002230902777777778],[-0.29086371527777777,-0.0015928819444444445],[-0.29086371527777777,-0.0015928819444444445],[-0.29086371527777777,-0.0015928819444444445],[-0.29086371527777777,-0.0015928819444444445],[-0.29086371527777777,-0.0015928819444444445],[-0.29086371527777777,-0.0015928819444444445],[-0.29086371527777777,-0.0015928819444444445]]]",1,[39],,,,,,,,,,,,,,airportTerminal4.jpg,space,1.9,0,23,23,1,1,apartmentBuilding1.jpg,applestore1.jpg,airportTerminal3.jpg,airportTerminal2.jpg,,
Image_List_1,,,,,,,,,,,,,,,,46475,2022-03-15_10h14.49.571,analogCatScenes,2020.1.3,MacIntel,60,"[1440,900]","[[[-0.009123263888888889,-0.2061111111111111],[-0.009123263888888889,-0.2061111111111111],[-0.009123263888888889,-0.2061111111111111],[-0.009123263888888889,-0.2061111111111111],[-0.009123263888888889,-0.2061111111111111],[-0.009123263888888889,-0.2061111111111111],[-0.009123263888888889,-0.2061111111111111],[-0.009123263888888889,-0.2061111111111111],[-0.009123263888888889,-0.2061111111111111],[-0.009123263888888889,-0.2061111111111111],[-0.010729166666666666,-0.2002560763888889],[-0.013754340277777779,-0.19213975694444443],[-0.015143229166666666,-0.18618489583333334],[-0.015907118055555555,-0.1831467013888889],[-0.016258680555555554,-0.1810546875],[-0.01740451388888889,-0.17836371527777778],[-0.018485243055555555,-0.1746875],[-0.020134548611111112,-0.17058159722222221],[-0.022786458333333332,-0.16522135416666667],[-0.027087673611111113,-0.15329427083333333],[-0.030386284722222223,-0.14270833333333333],[-0.034683159722222225,-0.12862413194444444],[-0.03898003472222222,-0.11453993055555556],[-0.04255642361111111,-0.10142361111111112],[-0.045386284722222225,-0.09012152777777778],[-0.04765190972222222,-0.07881944444444444],[-0.050099826388888886,-0.06473524305555556],[-0.053736979166666664,-0.043055555555555555],[-0.0571875,-0.02375],[-0.059136284722222224,-0.008446180555555556],[-0.06240451388888889,0.016197916666666666],[-0.06416666666666666,0.028407118055555555],[-0.0655859375,0.03448784722222222],[-0.06688368055555556,0.039848090277777776],[-0.06729600694444444,0.04294704861111111],[-0.0676171875,0.04387586805555556],[-0.06790798611111111,0.04416666666666667],[-0.06790798611111111,0.04416666666666667],[-0.06790798611111111,0.04416666666666667],[-0.06790798611111111,0.04416666666666667],[-0.06790798611111111,0.04416666666666667],[-0.06790798611111111,0.04416666666666667],[-0.06790798611111111,0.04416666666666667],[-0.06790798611111111,0.04416666666666667],[-0.06790798611111111,0.04416666666666667]]]",1,[45],,,,,,,,,,,,,,rooftop1.jpg,space,2.5814,0,24,24,88,1,track.jpg,sculpturegarden4.jpg,soccerfield.jpg,sandbox.jpg,,
Image_List_1,,,,,,,,,,,,,,,,46475,2022-03-15_10h14.49.571,analogCatScenes,2020.1.3,MacIntel,60,"[1440,900]","[[[0.003693576388888889,-0.19725694444444444],[0.003693576388888889,-0.19725694444444444],[0.003693576388888889,-0.19725694444444444],[0.003693576388888889,-0.19725694444444444],[0.003693576388888889,-0.19725694444444444],[0.003693576388888889,-0.19725694444444444],[0.003693576388888889,-0.19725694444444444],[0.003693576388888889,-0.19331163194444445],[0.003693576388888889,-0.1828515625],[0.003693576388888889,-0.16567274305555554],[0.003693576388888889,-0.138046875],[0.005759548611111111,-0.09154513888888889],[0.015460069444444445,-0.046892361111111114],[0.0245703125,-0.01907986111111111],[0.031145833333333334,0.0009722222222222222],[0.03506076388888889,0.013932291666666667],[0.03907118055555556,0.025486111111111112],[0.041419270833333334,0.036319444444444446],[0.041419270833333334,0.043133680555555554],[0.041419270833333334,0.047834201388888886],[0.041419270833333334,0.050872395833333334],[0.041419270833333334,0.052964409722222223],[0.041419270833333334,0.05424045138888889],[0.041419270833333334,0.05551649305555555],[0.041419270833333334,0.056098090277777776],[0.041419270833333334,0.05638888888888889],[0.041419270833333334,0.05638888888888889],[0.041419270833333334,0.05638888888888889],[0.041419270833333334,0.05638888888888889],[0.041419270833333334,0.05638888888888889],[0.041419270833333334,0.055755208333333334],[0.041419270833333334,0.055755208333333334]]]",1,[32],,,,,,,,,,,,,,hometheater2.jpg,space,2.0567,0,25,25,60,1,lightingstore3.jpg,homegarage.jpg,kindergarten_classroom6.jpg,hallway.jpg,,
