image_list,key_resp_intructions.keys,key_resp_intructions.rt,key_resp_intructions_3.keys,key_resp_intructions_3.rt,PracticeComplete_2.keys,PracticeComplete_2.rt,PracticeComplete_3.keys,PracticeComplete_3.rt,demo_trials.thisRepN,demo_trials.thisTrialN,demo_trials.thisN,demo_trials.thisIndex,demo_trials.ran,demo_images,path_images,participant,date,expName,psychopyVersion,OS,frameRate,windowSize,drawing,numDrawings,drawingSizes,practice_complete.keys,practice_complete.rt,PracticeComplete.keys,PracticeComplete.rt,practice_trials.thisRepN,practice_trials.thisTrialN,practice_trials.thisN,practice_trials.thisIndex,practice_trials.ran,practice_images,feedback_images,key_resp_intructions_2.keys,key_resp_intructions_2.rt,Image_List_5,trial_complete.keys,trial_complete.rt,trials.thisRepN,trials.thisTrialN,trials.thisN,trials.thisIndex,trials.ran,Image_List_1,Image_List_2,Image_List_3,Image_List_4,key_resp.keys,key_resp.rt
Image_List_5,space,22.1737,space,7.4975,space,15.5049,space,3.777099999,0,0,0,2,1,ahead_right.jpg,ahead_right_path.jpg,46518,2022-02-06_14h03.48.131,analogCatScenes,2020.1.3,MacIntel,60,,,,,,,,,,,,,,,,,,,,,,,,,,,,,,,
Image_List_5,,,,,space,1.1577,space,1.2506,0,1,1,0,1,ahead.jpg,ahead_path.jpg,46518,2022-02-06_14h03.48.131,analogCatScenes,2020.1.3,MacIntel,60,,,,,,,,,,,,,,,,,,,,,,,,,,,,,,,
Image_List_5,,,,,space,1.1049,space,0.7619,0,2,2,5,1,right.jpg,right_path.jpg,46518,2022-02-06_14h03.48.131,analogCatScenes,2020.1.3,MacIntel,60,,,,,,,,,,,,,,,,,,,,,,,,,,,,,,,
Image_List_5,,,,,space,0.7725,space,0.7143,0,3,3,6,1,right_left.jpg,right_left_path.jpg,46518,2022-02-06_14h03.48.131,analogCatScenes,2020.1.3,MacIntel,60,,,,,,,,,,,,,,,,,,,,,,,,,,,,,,,
Image_List_5,,,,,space,1.8359,space,1.5778,0,4,4,1,1,ahead_left.jpg,ahead_left_path.jpg,46518,2022-02-06_14h03.48.131,analogCatScenes,2020.1.3,MacIntel,60,,,,,,,,,,,,,,,,,,,,,,,,,,,,,,,
Image_List_5,,,,,space,0.796,space,1.627700001,0,5,5,3,1,ahead_right_left.jpg,ahead_right_left_path.jpg,46518,2022-02-06_14h03.48.131,analogCatScenes,2020.1.3,MacIntel,60,,,,,,,,,,,,,,,,,,,,,,,,,,,,,,,
Image_List_5,,,,,space,1.2053,space,0.9669,0,6,6,4,1,left.jpg,left_path.jpg,46518,2022-02-06_14h03.48.131,analogCatScenes,2020.1.3,MacIntel,60,,,,,,,,,,,,,,,,,,,,,,,,,,,,,,,
Image_List_5,,,,,,,,,,,,,,,,46518,2022-02-06_14h03.48.131,analogCatScenes,2020.1.3,MacIntel,60,"[1440,900]",[],0,[],space,0.8098,space,0.9646,0,0,0,3,1,ahead_right_left_2.jpg,ahead_right_left_2_path.jpg,,,,,,,,,,,,,,,,
Image_List_5,,,,,,,,,,,,,,,,46518,2022-02-06_14h03.48.131,analogCatScenes,2020.1.3,MacIntel,60,"[1440,900]",[],0,[],space,1.8689,space,2.5375,0,1,1,4,1,left_2.jpg,left_2_path.jpg,,,,,,,,,,,,,,,,
Image_List_5,,,,,,,,,,,,,,,,46518,2022-02-06_14h03.48.131,analogCatScenes,2020.1.3,MacIntel,60,"[1440,900]",[],0,[],space,1.0581,space,1.8411,0,2,2,1,1,ahead_left_2.jpg,ahead_left_2_path.jpg,,,,,,,,,,,,,,,,
Image_List_5,,,,,,,,,,,,,,,,46518,2022-02-06_14h03.48.131,analogCatScenes,2020.1.3,MacIntel,60,"[1440,900]",[],0,[],space,1.0224,space,0.760700001,0,3,3,5,1,right_2.jpg,right_2_path.jpg,,,,,,,,,,,,,,,,
Image_List_5,,,,,,,,,,,,,,,,46518,2022-02-06_14h03.48.131,analogCatScenes,2020.1.3,MacIntel,60,"[1440,900]",[],0,[],space,0.5645,space,1.0012,0,4,4,6,1,right_left_2.jpg,right_left_2_path.jpg,,,,,,,,,,,,,,,,
Image_List_5,,,,,,,,,,,,,,,,46518,2022-02-06_14h03.48.131,analogCatScenes,2020.1.3,MacIntel,60,"[1440,900]",[],0,[],space,1.8589,space,0.7739,0,5,5,2,1,ahead_right_2.jpg,ahead_right_2_path.jpg,,,,,,,,,,,,,,,,
Image_List_5,,,,,,,,,,,,,,,,46518,2022-02-06_14h03.48.131,analogCatScenes,2020.1.3,MacIntel,60,"[1440,900]",[],0,[],space,0.5433,space,0.5553,0,6,6,0,1,ahead_2.jpg,ahead_2_path.jpg,,,,,,,,,,,,,,,,
Image_List_5,,,,,,,,,,,,,,,,46518,2022-02-06_14h03.48.131,analogCatScenes,2020.1.3,MacIntel,60,"[1440,900]","[[[0.00024739583333333335,-0.19892795138888889],[0.009188368055555556,-0.1969921875],[0.04126736111111111,-0.18834635416666667],[0.08670572916666666,-0.17580295138888888],[0.13294704861111112,-0.15736545138888888],[0.1635763888888889,-0.14071180555555557],[0.19012586805555556,-0.12322048611111111],[0.22364149305555556,-0.10213541666666667],[0.25180555555555556,-0.07907552083333333],[0.26842881944444447,-0.06586371527777778],[0.2834071180555556,-0.050451388888888886],[0.29539496527777775,-0.03717447916666667],[0.3057421875,-0.024461805555555556],[0.30907552083333334,-0.018763020833333335],[0.3093706597222222,-0.016705729166666666],[0.3093706597222222,-0.016705729166666666],[0.3093706597222222,-0.016705729166666666],[0.3093706597222222,-0.016432291666666668],[0.3093706597222222,-0.016432291666666668],[0.3093706597222222,-0.016432291666666668],[0.30909722222222225,-0.016432291666666668],[0.30909722222222225,-0.016158854166666667],[0.3088237847222222,-0.016158854166666667],[0.3088237847222222,-0.016158854166666667],[0.3088237847222222,-0.015885416666666666],[0.3088237847222222,-0.015885416666666666],[0.3088237847222222,-0.015885416666666666],[0.3088237847222222,-0.015885416666666666],[0.31038194444444445,-0.01744357638888889],[0.31905381944444444,-0.023498263888888888],[0.3325390625,-0.032578125],[0.3405251736111111,-0.032725694444444446],[0.3411154513888889,-0.03242621527777778],[0.3411154513888889,-0.03242621527777778],[0.3441796875,-0.034830729166666664],[0.34946180555555556,-0.058298611111111114],[0.34671875,-0.056171875],[0.34120659722222224,-0.05138454861111111],[0.3397439236111111,-0.049921875],[0.33947048611111114,-0.0496484375],[0.33892361111111113,-0.0491015625],[0.33004774305555556,-0.039088541666666664],[0.3211805555555556,-0.029856770833333334],[0.31875868055555556,-0.027113715277777777],[0.3181640625,-0.02624565972222222],[0.3181640625,-0.02624565972222222],[0.31843315972222225,-0.02624565972222222],[0.31843315972222225,-0.02624565972222222],[0.31843315972222225,-0.02624565972222222],[0.31843315972222225,-0.02624565972222222],[0.31843315972222225,-0.02624565972222222],[0.31843315972222225,-0.02624565972222222],[0.31843315972222225,-0.02624565972222222],[0.31843315972222225,-0.02624565972222222],[0.31843315972222225,-0.02624565972222222],[0.31843315972222225,-0.02624565972222222]]]",1,[56],,,,,,,,,,,,space,1.7448,cliff5.jpg,space,9.131799999,0,0,0,39,1,driveway6.jpg,eyeglassstore9.jpg,drycleaners6.jpg,drymountains5.jpg,,
Image_List_5,,,,,,,,,,,,,,,,46518,2022-02-06_14h03.48.131,analogCatScenes,2020.1.3,MacIntel,60,"[1440,900]","[[[-0.007625868055555556,-0.20688802083333332],[-0.007625868055555556,-0.20688802083333332],[-0.006792534722222222,-0.20574652777777777],[-0.0062282986111111115,-0.20076822916666667],[-0.0069791666666666665,-0.1915798611111111],[-0.020572916666666666,-0.16852864583333332],[-0.03107638888888889,-0.1459375],[-0.04690972222222222,-0.11008680555555556],[-0.06733072916666667,-0.0788064236111111],[-0.08790798611111111,-0.05436631944444444],[-0.10974392361111111,-0.023172743055555556],[-0.1330815972222222,0.010394965277777777],[-0.16456597222222222,0.05123697916666667],[-0.17376302083333334,0.060564236111111114],[-0.17522569444444444,0.06173177083333333],[-0.17696180555555555,0.060282118055555556],[-0.18319878472222223,0.0537890625],[-0.18959635416666668,0.04918402777777778],[-0.18989583333333335,0.04859375],[-0.19236111111111112,0.04614583333333333],[-0.1964019097222222,0.04210503472222222],[-0.2234157986111111,0.022061631944444444],[-0.22957465277777778,0.01763454861111111],[-0.23190538194444443,0.015620659722222222],[-0.23245225694444444,0.0153515625],[-0.233984375,0.013216145833333333],[-0.2365842013888889,0.006671006944444445],[-0.23516059027777778,0.003676215277777778],[-0.23255642361111112,0.0054600694444444445],[-0.2314279513888889,0.006579861111111111],[-0.2314279513888889,0.006853298611111111],[-0.2305685763888889,0.007426215277777778],[-0.2288498263888889,0.007725694444444445],[-0.22578993055555555,0.0036631944444444446],[-0.2030859375,-0.014361979166666667],[-0.18578559027777777,-0.01657986111111111],[-0.17225694444444445,-0.011041666666666667],[-0.12161024305555555,-0.004027777777777778],[-0.1263498263888889,0.0014149305555555556],[-0.14121961805555555,0.006701388888888889],[-0.15332899305555556,0.010694444444444444],[-0.15360243055555556,0.0123828125],[-0.1539236111111111,0.014483506944444445],[-0.1559375,0.02050347222222222],[-0.15692274305555556,0.024383680555555554],[-0.1584157986111111,0.026762152777777777],[-0.16139756944444444,0.030924479166666668],[-0.16224392361111112,0.03293402777777778],[-0.16309027777777776,0.034895833333333334],[-0.16445746527777777,0.03685763888888889],[-0.16984375,0.041627604166666665],[-0.17363715277777778,0.04512586805555555],[-0.17500434027777778,0.045946180555555556],[-0.17703993055555556,0.04768229166666667],[-0.17813368055555556,0.048502604166666664],[-0.18016927083333334,0.05053819444444444],[-0.18126302083333334,0.05108506944444444],[-0.18126302083333334,0.051358506944444444],[-0.18153645833333334,0.051358506944444444],[-0.18153645833333334,0.051358506944444444],[-0.18153645833333334,0.051358506944444444],[-0.18153645833333334,0.051358506944444444],[-0.18153645833333334,0.051358506944444444],[-0.18153645833333334,0.051358506944444444]]]",1,[64],,,,,,,,,,,,,,tvstudio3.jpg,space,4.777400001,0,1,1,95,1,waitingroom2.jpg,warehouse2.jpg,stripmall6.jpg,weightroom4.jpg,,
Image_List_5,,,,,,,,,,,,,,,,46518,2022-02-06_14h03.48.131,analogCatScenes,2020.1.3,MacIntel,60,"[1440,900]","[[[-0.000030381944444444444,-0.2044921875],[-0.00030381944444444445,-0.2039453125],[-0.002018229166666667,-0.20016493055555556],[-0.013997395833333334,-0.18849826388888888],[-0.0396484375,-0.17121527777777779],[-0.10015625,-0.14041666666666666],[-0.12143229166666666,-0.12467881944444445],[-0.1330295138888889,-0.11480034722222222],[-0.1315798611111111,-0.1121484375],[-0.1315798611111111,-0.111328125],[-0.13069444444444445,-0.10954427083333333],[-0.12894965277777778,-0.10661892361111111],[-0.12922309027777779,-0.10607204861111111],[-0.1310763888888889,-0.10264756944444445],[-0.13137586805555557,-0.10205295138888888],[-0.13137586805555557,-0.1017795138888889],[-0.13164930555555557,-0.1015060763888889],[-0.1336892361111111,-0.09858072916666667],[-0.13548177083333332,-0.09441840277777777],[-0.13575520833333332,-0.09300347222222222],[-0.13602864583333332,-0.09300347222222222],[-0.13956597222222222,-0.08698350694444444],[-0.141875,-0.0826953125],[-0.141875,-0.081328125],[-0.141875,-0.0810546875],[-0.14365885416666666,-0.07927083333333333],[-0.14635850694444444,-0.07593315972222223],[-0.14832899305555555,-0.06822916666666666],[-0.14949652777777778,-0.066171875],[-0.15319444444444444,-0.061510416666666665],[-0.15990885416666667,-0.04897569444444445],[-0.1628168402777778,-0.047799479166666665],[-0.16223524305555556,-0.07643663194444444],[-0.16223524305555556,-0.07643663194444444],[-0.16223524305555556,-0.07643663194444444],[-0.16223524305555556,-0.07643663194444444],[-0.16223524305555556,-0.07643663194444444],[-0.16223524305555556,-0.07643663194444444],[-0.16223524305555556,-0.07643663194444444],[-0.16223524305555556,-0.07643663194444444],[-0.16223524305555556,-0.07643663194444444],[-0.16373697916666666,-0.07202690972222223],[-0.17496961805555555,-0.05199652777777778],[-0.1825173611111111,-0.036471354166666664],[-0.19421006944444444,-0.0221484375],[-0.21136284722222223,-0.010907118055555555],[-0.21401475694444444,-0.010308159722222222],[-0.21817708333333333,-0.009709201388888889],[-0.22305989583333333,-0.008680555555555556],[-0.23098958333333333,-0.007717013888888889],[-0.2327734375,-0.007118055555555555],[-0.23597222222222222,-0.006818576388888889],[-0.23770833333333333,-0.0065451388888888885],[-0.24036024305555556,-0.0065451388888888885],[-0.24177517361111112,-0.006814236111111111],[-0.24177517361111112,-0.006814236111111111],[-0.24177517361111112,-0.006814236111111111],[-0.24177517361111112,-0.006814236111111111],[-0.24177517361111112,-0.006814236111111111],[-0.24177517361111112,-0.006814236111111111],[-0.24150607638888888,-0.006814236111111111],[-0.24096788194444443,-0.006814236111111111],[-0.24069878472222223,-0.006540798611111111],[-0.2404296875,-0.006540798611111111],[-0.2404296875,-0.005993923611111111]]]",1,[65],,,,,,,,,,,,,,bridalboutique2.jpg,space,5.536200001,0,2,2,28,1,churchInside1.jpg,dancestudio5.jpg,citystreet10.jpg,clothingstore5.jpg,,
Image_List_5,,,,,,,,,,,,,,,,46518,2022-02-06_14h03.48.131,analogCatScenes,2020.1.3,MacIntel,60,"[1440,900]","[[[0.0005121527777777778,-0.19794270833333333],[0.004639756944444445,-0.19794270833333333],[0.029401041666666666,-0.19641493055555556],[0.06491753472222223,-0.19756944444444444],[0.09687934027777778,-0.19756944444444444],[0.13623697916666666,-0.19651909722222222],[0.18276909722222223,-0.1869140625],[0.19711805555555556,-0.17836371527777778],[0.2116449652777778,-0.16442708333333333],[0.21515190972222223,-0.154609375],[0.2167795138888889,-0.14946180555555555],[0.22328125,-0.13686631944444444],[0.22917534722222221,-0.12495659722222222],[0.23105034722222223,-0.11799479166666667],[0.23105034722222223,-0.11685329861111111],[0.23105034722222223,-0.11685329861111111],[0.23105034722222223,-0.11685329861111111],[0.23105034722222223,-0.11685329861111111],[0.23105034722222223,-0.11685329861111111],[0.23105034722222223,-0.11685329861111111],[0.23105034722222223,-0.11685329861111111]]]",1,[21],,,,,,,,,,,,,,igloo.jpg,space,3.2082,0,3,3,70,1,lockerroom4.jpg,pavilion.jpg,lockerroom3.jpg,minigolf8.jpg,,
Image_List_5,,,,,,,,,,,,,,,,46518,2022-02-06_14h03.48.131,analogCatScenes,2020.1.3,MacIntel,60,"[1440,900]","[[[0.007092013888888889,-0.19773871527777778],[0.007092013888888889,-0.19773871527777778],[0.007092013888888889,-0.19773871527777778],[0.009175347222222222,-0.1967361111111111],[0.0265234375,-0.19059461805555555],[0.05165364583333333,-0.18274739583333333],[0.081796875,-0.173828125],[0.1305859375,-0.16410590277777778],[0.16159288194444443,-0.15734375],[0.19832465277777778,-0.1462890625],[0.21717881944444445,-0.13603298611111111],[0.23163628472222222,-0.12718315972222222],[0.24198784722222222,-0.1245920138888889],[0.2546527777777778,-0.11953993055555556],[0.2699001736111111,-0.11327690972222222],[0.28096788194444444,-0.10907118055555555],[0.2940668402777778,-0.09763020833333333],[0.2999435763888889,-0.09182291666666667],[0.2999435763888889,-0.09154947916666667],[0.2999435763888889,-0.09154947916666667],[0.2999435763888889,-0.09154947916666667],[0.2999435763888889,-0.09154947916666667],[0.2999435763888889,-0.09154947916666667],[0.2999435763888889,-0.09154947916666667],[0.2999435763888889,-0.09127604166666667],[0.2999435763888889,-0.09127604166666667],[0.2999435763888889,-0.09127604166666667],[0.2999435763888889,-0.09127604166666667],[0.2999435763888889,-0.09127604166666667]]]",1,[29],,,,,,,,,,,,,,campusquad1.jpg,space,3.0056,0,4,4,34,1,deck4.jpg,diningroom5.jpg,courthouse4.jpg,diner11.jpg,,
Image_List_5,,,,,,,,,,,,,,,,46518,2022-02-06_14h03.48.131,analogCatScenes,2020.1.3,MacIntel,60,"[1440,900]","[[[-0.009908854166666667,-0.19870225694444443],[-0.009908854166666667,-0.19870225694444443],[-0.009908854166666667,-0.19870225694444443],[-0.009049479166666667,-0.19870225694444443],[0.0035069444444444445,-0.1957465277777778],[0.023407118055555554,-0.178828125],[0.04259982638888889,-0.15133680555555556],[0.04559027777777778,-0.12851128472222223],[0.04390190972222222,-0.09903211805555556],[0.04805555555555555,-0.05175347222222222],[0.06490885416666667,0.002287326388888889],[0.0808984375,0.06289496527777778],[0.08828125,0.11008246527777778],[0.10344618055555556,0.184609375],[0.10655381944444445,0.22411458333333334],[0.10718315972222223,0.24644097222222222],[0.10529079861111111,0.25417534722222224],[0.10501736111111111,0.25472222222222224],[0.10501736111111111,0.25418402777777777],[0.10528645833333333,0.25305555555555553],[0.1076388888888889,0.24397569444444445],[0.1114453125,0.22485243055555557],[0.12316840277777778,0.18073350694444446],[0.13998697916666666,0.13397569444444443],[0.14322916666666666,0.11907986111111112],[0.14233506944444443,0.11635416666666666],[0.1402517361111111,0.11340277777777778],[0.1397048611111111,0.11227430555555555],[0.13796875,0.11227430555555555],[0.13559027777777777,0.11317274305555555],[0.13504340277777777,0.11371961805555555],[0.13203559027777778,0.11640625],[0.1296137152777778,0.11914930555555556],[0.12723090277777777,0.12212239583333333],[0.12578993055555557,0.12358506944444445],[0.12578993055555557,0.12358506944444445],[0.12578993055555557,0.12358506944444445],[0.12578993055555557,0.12358506944444445],[0.12578993055555557,0.12331597222222222],[0.12578993055555557,0.12245659722222223],[0.12578993055555557,0.12245659722222223],[0.12578993055555557,0.12245659722222223],[0.12578993055555557,0.1221875],[0.12551649305555557,0.12191840277777778],[0.12432291666666667,0.1189236111111111],[0.12432291666666667,0.11538194444444444],[0.1245920138888889,0.11484375],[0.1245920138888889,0.11484375],[0.1245920138888889,0.11484375],[0.1243185763888889,0.11484375],[0.1243185763888889,0.11484375],[0.12377170138888889,0.1156640625],[0.12349826388888889,0.1159375],[0.12349826388888889,0.1159375],[0.12349826388888889,0.1159375]]]",1,[55],,,,,,,,,,,,,,highway2.jpg,space,3.153599999,0,5,5,63,1,hut2.jpg,museum6.jpg,hotelRoom2.jpg,lab4.jpg,,
Image_List_5,,,,,,,,,,,,,,,,46518,2022-02-06_14h03.48.131,analogCatScenes,2020.1.3,MacIntel,60,"[1440,900]","[[[0.0036371527777777778,-0.19264756944444444],[0.002816840277777778,-0.19237413194444444],[0.0003949652777777778,-0.19114149305555556],[-0.0076996527777777775,-0.18549913194444445],[-0.03501736111111111,-0.15813802083333334],[-0.05668402777777778,-0.13328125],[-0.08598958333333333,-0.10977864583333333],[-0.10622395833333333,-0.09286024305555556],[-0.12109375,-0.07703559027777777],[-0.1350954861111111,-0.06389322916666666],[-0.14519097222222221,-0.055026041666666664],[-0.15360243055555556,-0.05115885416666666],[-0.1582986111111111,-0.048515625],[-0.16562065972222223,-0.044869791666666665],[-0.17998697916666667,-0.03916232638888889],[-0.19094184027777777,-0.03593315972222222],[-0.2002126736111111,-0.032842881944444444],[-0.2094921875,-0.0287890625],[-0.21541232638888888,-0.026002604166666665],[-0.22368489583333334,-0.02375],[-0.2315060763888889,-0.02115451388888889],[-0.2338845486111111,-0.019366319444444443],[-0.23534722222222224,-0.018493923611111112],[-0.2361675347222222,-0.01822048611111111],[-0.2361675347222222,-0.01794704861111111],[-0.2361675347222222,-0.01794704861111111],[-0.2361675347222222,-0.01794704861111111],[-0.2361675347222222,-0.01794704861111111]]]",1,[28],,,,,,,,,,,,,,winebarrel2.jpg,space,2.327400001,0,6,6,98,1,weightroom5.jpg,wineVineyard8.jpg,warehouse3.jpg,winebarrel4.jpg,,
Image_List_5,,,,,,,,,,,,,,,,46518,2022-02-06_14h03.48.131,analogCatScenes,2020.1.3,MacIntel,60,"[1440,900]","[[[0.0008289930555555556,-0.1937934027777778],[0.0008289930555555556,-0.1937934027777778],[0.005729166666666666,-0.19555989583333333],[0.02861545138888889,-0.19625],[0.046749131944444446,-0.19315538194444445],[0.08805989583333333,-0.19005208333333334],[0.14230034722222223,-0.19132378472222222],[0.1806467013888889,-0.19011284722222221],[0.21260850694444444,-0.18555989583333332],[0.23633246527777776,-0.18000868055555555],[0.2458203125,-0.17439236111111112],[0.25364583333333335,-0.16129774305555555],[0.25601996527777776,-0.15379774305555555],[0.25990885416666665,-0.1416623263888889],[0.261875,-0.13129774305555555],[0.2638671875,-0.12325086805555556],[0.2686935763888889,-0.10470052083333334],[0.27511284722222223,-0.0835546875],[0.2782161458333333,-0.06845920138888889],[0.27946180555555555,-0.054639756944444444],[0.2800954861111111,-0.052083333333333336],[0.2800954861111111,-0.050941840277777775],[0.2800954861111111,-0.050941840277777775],[0.2800954861111111,-0.050941840277777775],[0.2800954861111111,-0.050941840277777775],[0.2800954861111111,-0.050941840277777775],[0.2800954861111111,-0.050941840277777775],[0.2800954861111111,-0.050941840277777775],[0.2800954861111111,-0.050941840277777775]]]",1,[29],,,,,,,,,,,,,,cabinIndoors5.jpg,space,2.2062,0,7,7,33,1,deck1.jpg,diningroom1.jpg,courthouse2.jpg,diner10.jpg,,
Image_List_5,,,,,,,,,,,,,,,,46518,2022-02-06_14h03.48.131,analogCatScenes,2020.1.3,MacIntel,60,"[1440,900]","[[[0.010243055555555556,-0.19524739583333334],[0.010243055555555556,-0.19524739583333334],[0.010833333333333334,-0.19410590277777778],[0.01818576388888889,-0.18732204861111112],[0.04927951388888889,-0.16615451388888888],[0.10540364583333334,-0.12024739583333334],[0.12233072916666667,-0.0967578125],[0.13354166666666667,-0.0758203125],[0.1375954861111111,-0.06486545138888888],[0.14053819444444443,-0.057044270833333334],[0.14146701388888888,-0.053936631944444445],[0.1417621527777778,-0.052473958333333334],[0.1417621527777778,-0.05192708333333333],[0.1414887152777778,-0.05051215277777778],[0.13880642361111112,-0.047239583333333335],[0.13731336805555555,-0.04486111111111111],[0.13671440972222224,-0.04307725694444445],[0.13614149305555556,-0.04220920138888889],[0.13614149305555556,-0.04220920138888889],[0.13614149305555556,-0.04220920138888889],[0.13586805555555556,-0.04193576388888889],[0.13586805555555556,-0.04193576388888889],[0.13586805555555556,-0.04138888888888889],[0.13586371527777777,-0.03467013888888889],[0.1361328125,-0.03357638888888889],[0.1361328125,-0.03357638888888889],[0.1361328125,-0.033845486111111114],[0.13706163194444446,-0.03634548611111111],[0.13866753472222224,-0.04252604166666667],[0.14442274305555555,-0.0541015625],[0.14614149305555554,-0.0558203125],[0.14614149305555554,-0.0558203125],[0.14614149305555554,-0.0558203125],[0.14559461805555557,-0.05635850694444444],[0.1396657986111111,-0.05862413194444444],[0.12402777777777778,-0.06301215277777777],[0.11683159722222222,-0.06279947916666667],[0.10491319444444444,-0.056280381944444444],[0.09208767361111111,-0.05117621527777778],[0.08489583333333334,-0.04775607638888889],[0.08288628472222222,-0.046610243055555556],[0.08288628472222222,-0.046610243055555556],[0.08288628472222222,-0.046610243055555556],[0.08288628472222222,-0.046610243055555556],[0.08470052083333333,-0.04594184027777778],[0.10049045138888889,-0.04095920138888889],[0.11360677083333333,-0.034127604166666665],[0.1233203125,-0.029891493055555555],[0.13212239583333332,-0.025421006944444446],[0.13239149305555556,-0.024600694444444446],[0.13239149305555556,-0.024600694444444446],[0.13239149305555556,-0.024327256944444445],[0.13354600694444443,-0.021080729166666666],[0.13499565972222222,-0.018428819444444446],[0.13748697916666666,-0.014956597222222222],[0.1405685763888889,-0.010889756944444445],[0.14308159722222222,-0.006458333333333333],[0.143671875,-0.0049956597222222225],[0.143671875,-0.0049956597222222225],[0.143671875,-0.0049956597222222225],[0.143671875,-0.0049956597222222225],[0.143671875,-0.0049956597222222225],[0.143671875,-0.0049956597222222225],[0.143671875,-0.0049956597222222225],[0.143671875,-0.0049956597222222225],[0.143671875,-0.0049956597222222225],[0.143671875,-0.005264756944444444]]]",1,[67],,,,,,,,,,,,,,alley3.jpg,space,4.141,0,8,8,3,1,apartmentBuilding2.jpg,attic1.jpg,aquarium1.jpg,appleorchard2.jpg,,
Image_List_5,,,,,,,,,,,,,,,,46518,2022-02-06_14h03.48.131,analogCatScenes,2020.1.3,MacIntel,60,"[1440,900]","[[[0.0045529513888888885,-0.20532552083333333],[0.006271701388888889,-0.20473090277777778],[0.010130208333333333,-0.19904079861111112],[0.01759548611111111,-0.18580729166666668],[0.02310329861111111,-0.1644357638888889],[0.02733940972222222,-0.14593315972222223],[0.030555555555555555,-0.12188368055555555],[0.02978298611111111,-0.11092881944444444],[0.0278515625,-0.10397569444444445],[0.021966145833333332,-0.08993055555555556],[0.016375868055555555,-0.08038194444444445],[0.0060026041666666665,-0.06796440972222222],[-0.0002734375,-0.060460069444444445],[-0.011597222222222222,-0.0458203125],[-0.019965277777777776,-0.0315234375],[-0.03724826388888889,-0.007513020833333333],[-0.04705295138888889,0.004969618055555555],[-0.053559027777777775,0.013229166666666667],[-0.05532118055555556,0.015013020833333333],[-0.05532118055555556,0.015286458333333334]]]",1,[20],,,,,,,,,,,,,,soccerfield2.jpg,space,2.511099999,0,9,9,92,1,staircase.jpg,volleyballcourt.jpg,skatepark7.jpg,tvstudio2.jpg,,
Image_List_5,,,,,,,,,,,,,,,,46518,2022-02-06_14h03.48.131,analogCatScenes,2020.1.3,MacIntel,60,"[1440,900]","[[[0.0016883680555555556,-0.19131944444444443],[0.006046006944444444,-0.1888064236111111],[0.027265625,-0.16622395833333334],[0.06710503472222222,-0.11107204861111111],[0.08476996527777778,-0.06075520833333333],[0.09482638888888889,-0.020963541666666665],[0.1018359375,-0.0035069444444444445],[0.10782118055555556,0.013177083333333334],[0.11022135416666666,0.021223958333333334],[0.11167100694444444,0.0271875],[0.11070746527777778,0.03161892361111111],[0.10819878472222222,0.03509114583333333],[0.1063671875,0.03783420138888889],[0.10515190972222223,0.040577256944444445],[0.10270833333333333,0.043958333333333335],[0.10243489583333333,0.043958333333333335],[0.10243489583333333,0.043958333333333335],[0.10243489583333333,0.043958333333333335],[0.10243489583333333,0.043958333333333335],[0.10243489583333333,0.043958333333333335],[0.10243489583333333,0.043958333333333335],[0.10243489583333333,0.04342013888888889]]]",1,[22],,,,,,,,,,,,,,basketballcourt7.jpg,space,2.1713,0,10,10,20,1,boardwalk6.jpg,cave.jpg,campsite3.jpg,cave4.jpg,,
Image_List_5,,,,,,,,,,,,,,,,46518,2022-02-06_14h03.48.131,analogCatScenes,2020.1.3,MacIntel,60,"[1440,900]","[[[0.0057465277777777775,-0.19039930555555556],[0.018168402777777776,-0.16108940972222222],[0.022356770833333334,-0.1288888888888889],[0.019305555555555555,-0.10606336805555555],[0.020885416666666667,-0.07386284722222222],[0.020885416666666667,-0.054214409722222225],[0.0201953125,-0.02347222222222222],[0.0201953125,-0.004331597222222222],[0.014431423611111112,0.026831597222222222],[0.0032552083333333335,0.06093315972222222],[-0.003910590277777778,0.08317274305555555],[-0.007278645833333333,0.09240017361111111],[-0.008927951388888888,0.0963671875],[-0.008927951388888888,0.096640625],[-0.00920138888888889,0.096640625],[-0.00920138888888889,0.09519097222222223],[-0.009500868055555556,0.0928298611111111],[-0.008550347222222223,0.08933159722222223],[-0.0073046875,0.084921875],[-0.0042751736111111115,0.07616753472222222],[-0.001896701388888889,0.0709939236111111],[-0.0013585069444444445,0.07045572916666666],[-0.0013585069444444445,0.07045572916666666],[-0.0013585069444444445,0.07045572916666666],[-0.0013585069444444445,0.07045572916666666],[-0.0013585069444444445,0.07045572916666666],[-0.0013585069444444445,0.07045572916666666]]]",1,[27],,,,,,,,,,,,,,readingroom2.jpg,space,2.184400001,0,11,11,83,1,readingroom1.jpg,sculpturegarden1.jpg,promenadeDeck6.jpg,restaurant8.jpg,,
Image_List_5,,,,,,,,,,,,,,,,46518,2022-02-06_14h03.48.131,analogCatScenes,2020.1.3,MacIntel,60,"[1440,900]",[],0,[],,,,,,,,,,,,,,dentist2.jpg,space,1.9763,0,12,12,41,1,dugout4.jpg,farm3.jpg,drymountains3.jpg,fabricstore1.jpg,,
Image_List_5,,,,,,,,,,,,,,,,46518,2022-02-06_14h03.48.131,analogCatScenes,2020.1.3,MacIntel,60,"[1440,900]","[[[0.005316840277777778,-0.2045876736111111],[0.028363715277777778,-0.1802907986111111],[0.0598828125,-0.1490407986111111],[0.08413628472222222,-0.1192578125],[0.08487847222222222,-0.10920138888888889],[0.08096788194444444,-0.09706597222222223],[0.07783854166666666,-0.08836805555555556],[0.07706597222222222,-0.07686197916666666],[0.07710503472222222,-0.07152777777777777],[0.07710503472222222,-0.07152777777777777],[0.07710503472222222,-0.07152777777777777],[0.08019965277777778,-0.058433159722222225],[0.08280381944444444,-0.04111111111111111],[0.084609375,-0.02115017361111111],[0.08428819444444445,-0.008146701388888889],[0.08401475694444445,-0.0066840277777777775],[0.08401475694444445,-0.0066840277777777775],[0.08401475694444445,-0.0066840277777777775],[0.08401475694444445,-0.0066840277777777775],[0.08401475694444445,-0.0066840277777777775],[0.06491753472222223,-0.0010416666666666667],[0.03648003472222222,0.02035590277777778],[0.02115451388888889,0.0465234375],[0.017217881944444444,0.06284288194444444],[0.016145833333333335,0.071484375],[0.013702256944444444,0.07972222222222222],[0.008953993055555555,0.08892795138888888],[0.006848958333333334,0.09194444444444444],[0.006848958333333334,0.09194444444444444],[0.006848958333333334,0.09194444444444444],[0.006848958333333334,0.09194444444444444],[0.006848958333333334,0.09194444444444444],[0.006848958333333334,0.09194444444444444],[0.006848958333333334,0.09194444444444444]]]",1,[34],,,,,,,,,,,,,,basketballcourt.jpg,space,3.633599999,0,13,13,19,1,boardwalk2.jpg,casino3.jpg,cafeteria1.jpg,castle4.jpg,,
Image_List_5,,,,,,,,,,,,,,,,46518,2022-02-06_14h03.48.131,analogCatScenes,2020.1.3,MacIntel,60,"[1440,900]","[[[-0.00030381944444444445,-0.1949262152777778],[0.0023394097222222223,-0.18510416666666665],[0.007621527777777777,-0.13733506944444446],[-0.0031987847222222222,-0.09561631944444444],[-0.022174479166666667,-0.05284288194444445],[-0.036953125,-0.026740451388888888],[-0.04313802083333333,-0.013693576388888889],[-0.04864583333333333,-0.0003255208333333333],[-0.05084201388888889,0.0024609375],[-0.05233940972222222,0.0057074652777777775],[-0.05380642361111111,0.007764756944444445],[-0.05380642361111111,0.007764756944444445],[-0.05380642361111111,0.007764756944444445],[-0.05380642361111111,0.007764756944444445]]]",1,[14],,,,,,,,,,,,,,backyard6.jpg,space,2.1895,0,14,14,13,1,balconyIN2.jpg,bowlingalley3.jpg,beach2.jpg,boardwalk4.jpg,,
Image_List_5,,,,,,,,,,,,,,,,46518,2022-02-06_14h03.48.131,analogCatScenes,2020.1.3,MacIntel,60,"[1440,900]","[[[0.001193576388888889,-0.19899739583333334],[0.001193576388888889,-0.19899739583333334],[0.001193576388888889,-0.19899739583333334],[0.008754340277777778,-0.1796875],[0.029045138888888888,-0.12965711805555555],[0.05395833333333333,-0.07451822916666667],[0.09187934027777778,-0.0141015625],[0.14020399305555556,0.04920138888888889],[0.1546657986111111,0.06368923611111112],[0.16192274305555557,0.06730902777777778],[0.1631032986111111,0.06907118055555556],[0.16708333333333333,0.08025607638888889],[0.19795138888888889,0.11663194444444444],[0.21620225694444445,0.13153645833333333],[0.2179470486111111,0.13359375],[0.21821614583333335,0.134140625],[0.21848524305555556,0.135234375],[0.21848524305555556,0.13610243055555554]]]",1,[18],,,,,,,,,,,,,,frontLawn2.jpg,space,2.4365,0,15,15,55,1,greenmountains.jpg,hotelRoom3.jpg,gazebo5.jpg,hotelRoom7.jpg,,
Image_List_5,,,,,,,,,,,,,,,,46518,2022-02-06_14h03.48.131,analogCatScenes,2020.1.3,MacIntel,60,"[1440,900]","[[[0.0027604166666666667,-0.2005642361111111],[0.003029513888888889,-0.2005642361111111],[0.003324652777777778,-0.19996961805555555],[0.012361111111111111,-0.18832465277777777],[0.023676215277777777,-0.1716579861111111],[0.049505208333333335,-0.13526041666666666],[0.0667013888888889,-0.11063802083333334],[0.09038628472222222,-0.07544704861111111],[0.1008984375,-0.05821614583333334],[0.1094314236111111,-0.04384982638888889],[0.1149609375,-0.031575520833333336],[0.12047309027777778,-0.021983506944444446],[0.12532118055555555,-0.011028645833333333],[0.132578125,0.005225694444444444],[0.13663194444444443,0.016180555555555556],[0.13756076388888888,0.01892361111111111],[0.13844618055555555,0.022074652777777776],[0.14151909722222222,0.03134548611111111],[0.14381944444444444,0.040616319444444444],[0.14727430555555557,0.05220486111111111],[0.14919270833333334,0.05915798611111111],[0.1515277777777778,0.06526475694444445],[0.15334201388888888,0.06896701388888889],[0.15422743055555554,0.0713454861111111],[0.1551128472222222,0.07367621527777778],[0.15629340277777778,0.0760546875],[0.1577690972222222,0.07902777777777778],[0.15894965277777778,0.08140625],[0.16072048611111112,0.08437934027777778],[0.16214409722222223,0.0858203125],[0.1632986111111111,0.08726128472222222],[0.16622395833333334,0.09110243055555556],[0.16681423611111112,0.09348090277777778]]]",1,[33],,,,,,,,,,,,,,sandbox.jpg,space,2.357599999,0,16,16,88,1,rooftop1.jpg,track.jpg,sculpturegarden4.jpg,soccerfield.jpg,,
Image_List_5,,,,,,,,,,,,,,,,46518,2022-02-06_14h03.48.131,analogCatScenes,2020.1.3,MacIntel,60,"[1440,900]","[[[0.003324652777777778,-0.2052517361111111],[0.003324652777777778,-0.2052517361111111],[0.0027083333333333334,-0.2036111111111111],[0.0029991319444444445,-0.18374131944444444],[0.007860243055555556,-0.14537760416666667],[0.0025564236111111113,-0.11831597222222222],[-0.005407986111111111,-0.093125],[-0.010572916666666666,-0.07507378472222222],[-0.016215277777777776,-0.05256510416666667],[-0.024496527777777777,-0.028763020833333333],[-0.030160590277777777,-0.010347222222222223],[-0.03328125,0.0012934027777777779],[-0.037057291666666665,0.0140234375],[-0.04006076388888889,0.02234375],[-0.04138454861111111,0.027447916666666666],[-0.042777777777777776,0.033368055555555554],[-0.043719618055555555,0.03647569444444444],[-0.04431857638888889,0.03885416666666667],[-0.045217013888888886,0.04063802083333334],[-0.04641493055555555,0.043611111111111114],[-0.04641493055555555,0.04388454861111111]]]",1,[21],,,,,,,,,,,,,,backyard5.jpg,space,2.031799999,0,17,17,12,1,baggageClaim4.jpg,bedroom6.jpg,bambooforest5.jpg,bleachers7.jpg,,
Image_List_5,,,,,,,,,,,,,,,,46518,2022-02-06_14h03.48.131,analogCatScenes,2020.1.3,MacIntel,60,"[1440,900]","[[[0.004097222222222223,-0.19632378472222223],[0.004097222222222223,-0.19632378472222223],[0.0026649305555555554,-0.18536458333333333],[-0.006480034722222222,-0.15889756944444444],[-0.06301649305555555,-0.1058767361111111],[-0.09897135416666666,-0.0728515625],[-0.11220920138888889,-0.05866319444444444],[-0.11453993055555556,-0.05633246527777778],[-0.11481336805555556,-0.05633246527777778],[-0.11481336805555556,-0.05633246527777778],[-0.11508680555555556,-0.05605902777777778]]]",1,[11],,,,,,,,,,,,,,airplanecabin3.jpg,space,7.135,0,18,18,0,1,airplanecabin1.jpg,alley2.jpg,appleorchard4.jpg,airplanecabin5.jpg,,
Image_List_5,,,,,,,,,,,,,,,,46518,2022-02-06_14h03.48.131,analogCatScenes,2020.1.3,MacIntel,60,"[1440,900]","[[[0.0027473958333333335,-0.19605902777777778],[0.0009592013888888889,-0.19368055555555555],[-0.004210069444444444,-0.1757638888888889],[-0.019596354166666666,-0.13881076388888888],[-0.031267361111111114,-0.114765625],[-0.04100694444444444,-0.0903515625],[-0.04579427083333333,-0.05358072916666667],[-0.04643229166666667,-0.022083333333333333],[-0.052109375,0.02029513888888889],[-0.0569921875,0.067578125],[-0.055499131944444446,0.09040364583333334],[-0.05430121527777778,0.099453125],[-0.05403211805555556,0.10032118055555556],[-0.0511328125,0.09830729166666667],[-0.050594618055555554,0.09830729166666667],[-0.05032552083333333,0.09830729166666667],[-0.05032552083333333,0.09830729166666667],[-0.05032552083333333,0.09830729166666667],[-0.05032552083333333,0.09830729166666667]]]",1,[19],,,,,,,,,,,,,,lockerroom.jpg,space,1.8898,0,19,19,75,1,pantry5.jpg,playground6.jpg,operatingroom4.jpg,park.jpg,,
Image_List_5,,,,,,,,,,,,,,,,46518,2022-02-06_14h03.48.131,analogCatScenes,2020.1.3,MacIntel,60,"[1440,900]","[[[-0.004131944444444444,-0.197578125],[-0.0035460069444444445,-0.19393229166666667],[-0.009683159722222221,-0.18202256944444445],[-0.030399305555555554,-0.15500868055555556],[-0.05485677083333333,-0.12765625],[-0.09404947916666667,-0.0941796875],[-0.12458333333333334,-0.07138020833333333],[-0.14742621527777777,-0.05845486111111111],[-0.17971788194444444,-0.040894097222222224],[-0.2051171875,-0.027925347222222223],[-0.22633246527777778,-0.01564236111111111],[-0.2384765625,-0.007430555555555556],[-0.24802517361111112,-0.0018402777777777777],[-0.2619097222222222,0.006618923611111111],[-0.2698480902777778,0.011618923611111111],[-0.2781293402777778,0.015173611111111112],[-0.28219618055555556,0.017981770833333334],[-0.28365885416666664,0.01885416666666667],[-0.28447916666666667,0.019401041666666667],[-0.28475260416666665,0.019674479166666668],[-0.28475260416666665,0.019674479166666668]]]",1,[21],,,,,,,,,,,,,,pasture8.jpg,space,1.9724,0,20,20,81,1,promenadeDeck.jpg,ruralroad5.jpg,promenadeDeck2.jpg,rainforest5.jpg,,
Image_List_5,,,,,,,,,,,,,,,,46518,2022-02-06_14h03.48.131,analogCatScenes,2020.1.3,MacIntel,60,"[1440,900]","[[[0.004097222222222223,-0.19369791666666666],[0.004366319444444444,-0.19369791666666666],[0.007955729166666667,-0.1963064236111111],[0.020147569444444444,-0.20220052083333334],[0.03926649305555555,-0.21268229166666666],[0.05430121527777778,-0.22167534722222224],[0.075703125,-0.2270486111111111],[0.09863715277777778,-0.22722222222222221],[0.11028211805555556,-0.22133246527777778],[0.13065972222222222,-0.21505208333333334],[0.16534722222222223,-0.20221788194444446],[0.18016059027777778,-0.1896657986111111],[0.1903732638888889,-0.1765234375],[0.19376736111111112,-0.1677517361111111],[0.1978689236111111,-0.16019965277777778],[0.20218315972222223,-0.15513888888888888],[0.20324652777777777,-0.1509939236111111],[0.20324652777777777,-0.14953125],[0.20324652777777777,-0.14953125],[0.20324652777777777,-0.14953125],[0.20324652777777777,-0.14953125],[0.20324652777777777,-0.14953125],[0.20324652777777777,-0.14953125],[0.20324652777777777,-0.14953125]]]",1,[24],,,,,,,,,,,,,,desertvegetation2.jpg,space,2.330799999,0,21,21,42,1,exerciseequipment3.jpg,firestation3.jpg,drymountains6.jpg,farm4.jpg,,
Image_List_5,,,,,,,,,,,,,,,,46518,2022-02-06_14h03.48.131,analogCatScenes,2020.1.3,MacIntel,60,"[1440,900]","[[[-0.0021788194444444446,-0.203828125],[-0.0021788194444444446,-0.2028689236111111],[-0.0021788194444444446,-0.20049045138888888],[-0.005759548611111111,-0.18520833333333334],[-0.008697916666666666,-0.1702517361111111],[-0.0062109375,-0.15575086805555555],[-0.0008116319444444445,-0.13516059027777777],[0.014075520833333334,-0.10483940972222222],[0.040516493055555554,-0.06609375],[0.06371527777777777,-0.017890625],[0.06693142361111111,-0.012465277777777778],[0.07032986111111111,-0.006844618055555555],[0.07236979166666667,-0.003324652777777778],[0.07338541666666666,0.0044140625]]]",1,[14],,,,,,,,,,,,,,dormroom6.jpg,space,2.0826,0,22,22,46,1,flowershop.jpg,frontLawn5.jpg,farmersmarket4.jpg,fountain4.jpg,,
Image_List_5,,,,,,,,,,,,,,,,46518,2022-02-06_14h03.48.131,analogCatScenes,2020.1.3,MacIntel,60,"[1440,900]","[[[-0.0058940972222222224,-0.19842447916666667],[-0.006328125,-0.18546440972222222],[-0.003880208333333333,-0.1659592013888889],[0.0011414930555555555,-0.13437065972222223],[0.0024609375,-0.08521267361111111],[0.002890625,-0.07007378472222223],[0.003910590277777778,-0.05420572916666667],[0.005329861111111111,-0.029609375],[0.004348958333333333,-0.009743923611111111],[0.0028862847222222224,0.013671875],[0.0013151041666666667,0.038776041666666664],[0.0007378472222222222,0.062378472222222224],[0.0026866319444444446,0.08224392361111112],[0.0033203125,0.11338541666666667]]]",1,[14],,,,,,,,,,,,,,library_aisle9.jpg,space,2.7183,0,23,23,73,1,musicStore3.jpg,photographer_studio2.jpg,nursery.jpg,nursery4.jpg,,
Image_List_5,,,,,,,,,,,,,,,,46518,2022-02-06_14h03.48.131,analogCatScenes,2020.1.3,MacIntel,60,"[1440,900]","[[[-0.0019097222222222222,-0.20360243055555555],[-0.0019097222222222222,-0.20360243055555555],[-0.0022526041666666666,-0.20223524305555557],[-0.01294704861111111,-0.1598046875],[-0.024913194444444446,-0.12524305555555557],[-0.033038194444444446,-0.09064236111111111],[-0.03672743055555556,-0.07195746527777777],[-0.03870659722222222,-0.05750434027777778],[-0.04252604166666667,-0.042278645833333336],[-0.04252604166666667,-0.026184895833333333],[-0.041380208333333335,-0.008823784722222222],[-0.037543402777777776,0.005082465277777778],[-0.035243055555555555,0.02130642361111111],[-0.03560763888888889,0.0311328125],[-0.03560763888888889,0.032000868055555555],[-0.03560763888888889,0.032000868055555555],[-0.03560763888888889,0.032000868055555555],[-0.03560763888888889,0.032000868055555555]]]",1,[18],,,,,,,,,,,,,,botanicalGarden4.jpg,space,3.5881,0,24,24,25,1,campsite7.jpg,conference3.jpg,church3.jpg,checkoutcounter2.jpg,,
Image_List_5,,,,,,,,,,,,,,,,46518,2022-02-06_14h03.48.131,analogCatScenes,2020.1.3,MacIntel,60,"[1440,900]","[[[0.0018402777777777777,-0.1974392361111111],[0.008107638888888888,-0.19385416666666666],[0.019500868055555554,-0.18737413194444444],[0.06498263888888889,-0.14093315972222223],[0.11009982638888889,-0.09998697916666667],[0.13850260416666665,-0.07459635416666667],[0.16014322916666668,-0.04586371527777778],[0.17253472222222221,-0.022243923611111112],[0.17561197916666665,-0.012925347222222222],[0.17837239583333334,-0.005868055555555555],[0.18018663194444445,-0.003125],[0.1829296875,0.0005772569444444445],[0.1834939236111111,0.0020399305555555557],[0.18376302083333335,0.0023133680555555555],[0.18376302083333335,0.0023133680555555555],[0.18376302083333335,0.0023133680555555555],[0.18376302083333335,0.0023133680555555555],[0.18376302083333335,0.0023133680555555555],[0.18376302083333335,0.0023133680555555555],[0.18376302083333335,0.0023133680555555555],[0.18376302083333335,0.0023133680555555555]]]",1,[21],,,,,,,,,,,,,,checkoutcounter9.jpg,space,2.2894,0,25,25,36,1,diner14.jpg,dormroom9.jpg,dining_car3.jpg,doctor1.jpg,,
Image_List_5,,,,,,,,,,,,,,,,46518,2022-02-06_14h03.48.131,analogCatScenes,2020.1.3,MacIntel,60,"[1440,900]","[[[0.009131944444444444,-0.19205729166666666],[0.007855902777777778,-0.18605034722222222],[0.003667534722222222,-0.16090277777777778],[-0.004839409722222222,-0.10320746527777777],[-0.028546006944444445,0.007795138888888889],[-0.041488715277777775,0.04247829861111111],[-0.046085069444444446,0.0508984375]]]",1,[7],,,,,,,,,,,,,,rooftop2.jpg,space,1.6174,0,26,26,84,1,readingroom5.jpg,sidewalk2.jpg,restaurant13.jpg,sandDunes_desert_outdoor.jpg,,
Image_List_5,,,,,,,,,,,,,,,,46518,2022-02-06_14h03.48.131,analogCatScenes,2020.1.3,MacIntel,60,"[1440,900]","[[[0.003363715277777778,-0.19328993055555554],[0.007947048611111111,-0.19223958333333332],[0.02670138888888889,-0.18682291666666667],[0.07022569444444444,-0.16934461805555556],[0.08415798611111111,-0.16265625],[0.08415798611111111,-0.16265625],[0.08415798611111111,-0.16265625],[0.08415798611111111,-0.16265625],[0.08415798611111111,-0.16265625],[0.08415798611111111,-0.16265625]]]",1,[10],,,,,,,,,,,,,,fabricstore2.jpg,space,3.3917,0,27,27,48,1,frontDoor2.jpg,golfcourse6.jpg,fittingroom5.jpg,golfcourse7.jpg,,
Image_List_5,,,,,,,,,,,,,,,,46518,2022-02-06_14h03.48.131,analogCatScenes,2020.1.3,MacIntel,60,"[1440,900]","[[[0.0009809027777777778,-0.19759114583333334],[-0.0026258680555555558,-0.19460069444444444],[-0.010859375,-0.1825043402777778],[-0.026028645833333332,-0.1542795138888889],[-0.03736545138888889,-0.12467447916666667],[-0.057426215277777776,-0.08771267361111111],[-0.07225260416666666,-0.06547309027777778],[-0.07864149305555555,-0.053198784722222225],[-0.08138454861111111,-0.04695746527777778],[-0.08193142361111111,-0.046410590277777775],[-0.08193142361111111,-0.046410590277777775],[-0.08193142361111111,-0.046410590277777775],[-0.08193142361111111,-0.046410590277777775],[-0.08193142361111111,-0.046410590277777775],[-0.08193142361111111,-0.046410590277777775]]]",1,[15],,,,,,,,,,,,,,ATM4.jpg,space,1.499599999,0,28,28,10,1,backstage2.jpg,barbershop3.jpg,ballroom4.jpg,basketballcourt3.jpg,,
Image_List_5,,,,,,,,,,,,,,,,46518,2022-02-06_14h03.48.131,analogCatScenes,2020.1.3,MacIntel,60,"[1440,900]","[[[0.0005859375,-0.19609809027777778],[0.0005859375,-0.19609809027777778],[0.0005859375,-0.19582465277777777],[-0.008402777777777778,-0.17608940972222223],[-0.03572482638888889,-0.14192274305555555],[-0.07386284722222222,-0.09786892361111112],[-0.09764756944444444,-0.06678385416666667],[-0.12076388888888889,-0.03177951388888889],[-0.13015625,-0.01843315972222222],[-0.13909288194444444,-0.005494791666666667],[-0.1410112847222222,-0.002486979166666667],[-0.1410112847222222,-0.0030251736111111113]]]",1,[12],,,,,,,,,,,,,,icecream2.jpg,space,1.6302,0,29,29,69,1,liquorstore8.jpg,parkinglot2.jpg,livingroom.jpg,metroInside1.jpg,,
Image_List_5,,,,,,,,,,,,,,,,46518,2022-02-06_14h03.48.131,analogCatScenes,2020.1.3,MacIntel,60,"[1440,900]","[[[-0.0029340277777777776,-0.20121961805555555],[-0.0029340277777777776,-0.20121961805555555],[-0.0003559027777777778,-0.19352864583333335],[0.005872395833333334,-0.14052083333333334],[0.012960069444444444,-0.06315538194444445],[0.016358506944444445,-0.03331163194444445],[0.015807291666666667,-0.010442708333333333],[0.016844618055555555,-0.004071180555555555],[0.016844618055555555,-0.0037977430555555555],[0.016844618055555555,-0.0037977430555555555],[0.016844618055555555,-0.0037977430555555555],[0.016844618055555555,-0.0037977430555555555]]]",1,[12],,,,,,,,,,,,,,yogastudio1.jpg,space,1.3739,0,30,30,99,1,wineVineyard9.jpg,yogastudio4.jpg,windmill2.jpg,wrestlingring7.jpg,,
Image_List_5,,,,,,,,,,,,,,,,46518,2022-02-06_14h03.48.131,analogCatScenes,2020.1.3,MacIntel,60,"[1440,900]","[[[-0.0026258680555555558,-0.20749131944444443],[-0.004223090277777778,-0.19462239583333332],[-0.0139453125,-0.15616753472222222],[-0.0293359375,-0.118984375],[-0.043302951388888886,-0.08778645833333333],[-0.04837673611111111,-0.07601128472222222],[-0.05023003472222222,-0.07318142361111112],[-0.05050347222222222,-0.07290798611111111],[-0.05050347222222222,-0.07263454861111111],[-0.05050347222222222,-0.07263454861111111],[-0.05077690972222222,-0.07263454861111111],[-0.05077690972222222,-0.07263454861111111]]]",1,[12],,,,,,,,,,,,,,applestore2.jpg,space,1.4112,0,31,31,7,1,attic2.jpg,banquetHall4.jpg,backstage1.jpg,baggageClaim3.jpg,,
Image_List_5,,,,,,,,,,,,,,,,46518,2022-02-06_14h03.48.131,analogCatScenes,2020.1.3,MacIntel,60,"[1440,900]","[[[0.0007942708333333334,-0.19999131944444445],[0.00296875,-0.190078125],[0.005190972222222222,-0.16792534722222222],[-0.010789930555555556,-0.10451388888888889],[-0.03233506944444445,-0.04223524305555556],[-0.05005208333333333,0.006983506944444444],[-0.05328559027777778,0.020030381944444446],[-0.05552083333333333,0.02799045138888889],[-0.056141493055555554,0.029817708333333335],[-0.056141493055555554,0.029817708333333335],[-0.056141493055555554,0.029817708333333335],[-0.056141493055555554,0.029817708333333335],[-0.056141493055555554,0.029817708333333335],[-0.056141493055555554,0.029817708333333335],[-0.056141493055555554,0.029817708333333335],[-0.056414930555555555,0.029817708333333335]]]",1,[16],,,,,,,,,,,,,,trainStation3.jpg,space,1.2795,0,32,32,94,1,treehouse.jpg,waitingroom3.jpg,staircase6.jpg,weightroom.jpg,,
Image_List_5,,,,,,,,,,,,,,,,46518,2022-02-06_14h03.48.131,analogCatScenes,2020.1.3,MacIntel,60,"[1440,900]","[[[0.005338541666666667,-0.1986892361111111],[0.00896267361111111,-0.18981770833333333],[0.02444878472222222,-0.13512152777777778],[0.03249565972222222,-0.09479600694444444],[0.04439670138888889,-0.06459201388888888],[0.049678819444444446,-0.0533984375],[0.04994791666666667,-0.052578125],[0.04994791666666667,-0.052578125],[0.04994791666666667,-0.052578125],[0.04994791666666667,-0.052578125],[0.04994791666666667,-0.052578125],[0.04994791666666667,-0.052578125]]]",1,[12],,,,,,,,,,,,,,beach1.jpeg,space,1.2275,0,33,33,21,1,botanicalGarden6.jpg,cemetery6.jpg,campusquad3.jpg,cave5.jpg,,
Image_List_5,,,,,,,,,,,,,,,,46518,2022-02-06_14h03.48.131,analogCatScenes,2020.1.3,MacIntel,60,"[1440,900]","[[[0.010954861111111111,-0.20103298611111112],[0.010954861111111111,-0.20075954861111112],[0.01068142361111111,-0.20048611111111111],[0.0085546875,-0.18193576388888888],[0.010928819444444444,-0.16761284722222222],[0.020590277777777777,-0.11812065972222222],[0.02275173611111111,-0.061475694444444444],[0.02085503472222222,-0.029887152777777776],[0.02394097222222222,-0.0038758680555555556],[0.02815972222222222,0.008763020833333333],[0.029539930555555555,0.012907986111111111],[0.029539930555555555,0.012907986111111111],[0.029539930555555555,0.012907986111111111],[0.029539930555555555,0.012907986111111111],[0.029539930555555555,0.012907986111111111],[0.029539930555555555,0.012907986111111111],[0.029539930555555555,0.012907986111111111]]]",1,[17],,,,,,,,,,,,,,parkinggarage4.jpg,space,1.5532,0,34,34,80,1,pavilion2.jpg,racecarcourse2.jpg,porch.jpg,poolhall5.jpg,,
Image_List_5,,,,,,,,,,,,,,,,46518,2022-02-06_14h03.48.131,analogCatScenes,2020.1.3,MacIntel,60,"[1440,900]","[[[-0.00023871527777777777,-0.19069010416666668],[-0.00023871527777777777,-0.19069010416666668],[-0.00023871527777777777,-0.18973090277777777],[0.0014670138888888888,-0.14911458333333333],[0.0008506944444444444,-0.10225260416666666],[-0.0016145833333333333,-0.053098958333333335],[-0.00026041666666666666,-0.0120703125],[-0.0023133680555555555,0.00002170138888888889],[-0.004756944444444445,0.007486979166666667],[-0.0059765625,0.010230034722222222],[-0.00625,0.011050347222222222],[-0.00625,0.011050347222222222],[-0.00625,0.011050347222222222],[-0.00625,0.011050347222222222],[-0.00625,0.011050347222222222],[-0.00625,0.011050347222222222]]]",1,[16],,,,,,,,,,,,,,frontFoyer.jpg,space,1.6107,0,35,35,54,1,greenhouse2.jpg,horsebarn11.jpg,gazebo2.jpg,homegarage4.jpg,,
Image_List_5,,,,,,,,,,,,,,,,46518,2022-02-06_14h03.48.131,analogCatScenes,2020.1.3,MacIntel,60,"[1440,900]","[[[-0.008012152777777778,-0.2053125],[-0.008012152777777778,-0.2019748263888889],[-0.008012152777777778,-0.19546875],[-0.012873263888888889,-0.14937934027777777],[-0.023815104166666667,-0.08636284722222222],[-0.026163194444444444,-0.07331597222222222],[-0.029986979166666667,-0.054175347222222225],[-0.032039930555555554,-0.03134982638888889],[-0.03249565972222222,-0.01966579861111111],[-0.032838541666666665,-0.012795138888888889],[-0.031714409722222225,-0.0045225694444444445],[-0.031714409722222225,0.00007378472222222222],[-0.03240017361111111,0.007486979166666667],[-0.032105034722222224,0.012907986111111111],[-0.03180989583333333,0.014691840277777778],[-0.031514756944444444,0.017799479166666667],[-0.031514756944444444,0.018346354166666665],[-0.031514756944444444,0.018346354166666665]]]",1,[18],,,,,,,,,,,,,,arcade2.jpg,space,1.4883,0,36,36,9,1,auto_showroom3.jpg,bar2.jpg,ballroom2.jpg,basement5.jpg,,
Image_List_5,,,,,,,,,,,,,,,,46518,2022-02-06_14h03.48.131,analogCatScenes,2020.1.3,MacIntel,60,"[1440,900]","[[[-0.010716145833333333,-0.19921440972222224],[-0.010716145833333333,-0.19921440972222224],[-0.013628472222222222,-0.18916232638888889],[-0.025377604166666668,-0.1565190972222222],[-0.049401041666666666,-0.10600694444444445],[-0.07587239583333333,-0.06422309027777778],[-0.08705729166666666,-0.05017361111111111],[-0.09104166666666667,-0.045460069444444445],[-0.09104166666666667,-0.045460069444444445],[-0.09104166666666667,-0.045460069444444445],[-0.09104166666666667,-0.045460069444444445],[-0.09104166666666667,-0.045460069444444445]]]",1,[12],,,,,,,,,,,,,,firestation5.jpg,space,1.423,0,37,37,51,1,gasstation6.jpg,hallway5.jpg,frontDoor5.jpg,hayfield4.jpg,,
Image_List_5,,,,,,,,,,,,,,,,46518,2022-02-06_14h03.48.131,analogCatScenes,2020.1.3,MacIntel,60,"[1440,900]","[[[0.00421875,-0.19491753472222223],[0.0045138888888888885,-0.19404947916666668],[0.020390625,-0.1762673611111111],[0.0700173611111111,-0.13746961805555555],[0.1467013888888889,-0.09414496527777778],[0.1753125,-0.0823046875],[0.20234809027777778,-0.06744791666666666],[0.2068142361111111,-0.06296440972222223],[0.2068142361111111,-0.06269097222222222],[0.2068142361111111,-0.06269097222222222],[0.2068142361111111,-0.06269097222222222],[0.2068142361111111,-0.06269097222222222],[0.2068142361111111,-0.06269097222222222],[0.2068142361111111,-0.06269097222222222],[0.2068142361111111,-0.06269097222222222],[0.2068142361111111,-0.06269097222222222]]]",1,[16],,,,,,,,,,,,,,observatory2.jpg,space,2.6653,0,38,38,79,1,pasture.jpg,poolhall2.jpeg,playground9.jpg,pier2.jpg,,
Image_List_5,,,,,,,,,,,,,,,,46518,2022-02-06_14h03.48.131,analogCatScenes,2020.1.3,MacIntel,60,"[1440,900]","[[[0.002673611111111111,-0.1981293402777778],[0.002942708333333333,-0.1981293402777778],[0.005985243055555555,-0.1954861111111111],[0.020789930555555555,-0.18263888888888888],[0.061332465277777776,-0.15676649305555557],[0.12936197916666667,-0.11843315972222222],[0.178671875,-0.0832421875],[0.19694010416666666,-0.06466145833333334],[0.1984765625,-0.05684027777777778],[0.19760416666666666,-0.055377604166666664],[0.19760416666666666,-0.055377604166666664],[0.19733072916666666,-0.05510416666666667],[0.19678385416666666,-0.05483072916666667],[0.19678385416666666,-0.05455729166666667],[0.19651041666666666,-0.05455729166666667]]]",1,[15],,,,,,,,,,,,,,applestore4.jpg,space,1.622,0,39,39,8,1,attic3.jpg,banquetHall6.jpg,balconyIN.jpg,bar.jpg,,
Image_List_5,,,,,,,,,,,,,,,,46518,2022-02-06_14h03.48.131,analogCatScenes,2020.1.3,MacIntel,60,"[1440,900]","[[[0.0054904513888888885,-0.19591145833333334],[0.004869791666666666,-0.19376302083333333],[0.0031553819444444446,-0.18825086805555555],[0.0052430555555555555,-0.16018229166666667],[0.021302083333333333,-0.09856770833333334],[0.029114583333333333,-0.06592013888888888],[0.03528645833333333,-0.04673611111111111],[0.03815972222222222,-0.035234375],[0.0419140625,-0.024596354166666667],[0.04313802083333333,-0.022174479166666667],[0.04313802083333333,-0.021901041666666666],[0.04313802083333333,-0.021901041666666666],[0.043997395833333335,-0.02103298611111111]]]",1,[13],,,,,,,,,,,,,,lightingstore2.jpg,space,1.5054,0,40,40,74,1,newsstand2.jpg,playground10.jpg,observatory4.jpeg,operatingroom1.jpg,,
Image_List_5,,,,,,,,,,,,,,,,46518,2022-02-06_14h03.48.131,analogCatScenes,2020.1.3,MacIntel,60,"[1440,900]","[[[0.008433159722222222,-0.19391493055555556],[0.008433159722222222,-0.19391493055555556],[0.008433159722222222,-0.19391493055555556],[0.007248263888888889,-0.19240885416666667],[0.005607638888888889,-0.18635416666666665],[0.004331597222222222,-0.1666623263888889],[0.0012760416666666666,-0.1292578125],[-0.013736979166666666,-0.10111111111111111],[-0.02670138888888889,-0.07881076388888889],[-0.03943576388888889,-0.061644965277777776],[-0.045807291666666666,-0.053094618055555556],[-0.054700520833333335,-0.03699652777777778],[-0.06725694444444444,-0.0139453125],[-0.0745138888888889,0.0008984375],[-0.07783854166666666,0.01294704861111111],[-0.08238715277777778,0.023585069444444443],[-0.08391927083333334,0.026328125],[-0.08479166666666667,0.028064236111111113],[-0.0856640625,0.029526909722222223]]]",1,[19],,,,,,,,,,,,,,tenniscourt.jpg,space,1.6853,0,41,41,93,1,tollbooth8.jpg,volleyballcourt4.jpg,staircase4.jpg,warehouseoutside2.jpg,,
Image_List_5,,,,,,,,,,,,,,,,46518,2022-02-06_14h03.48.131,analogCatScenes,2020.1.3,MacIntel,60,"[1440,900]","[[[-0.0002777777777777778,-0.20576822916666668],[-0.0002777777777777778,-0.20576822916666668],[-0.0002777777777777778,-0.20576822916666668],[-0.000008680555555555556,-0.20522135416666668],[0.0059635416666666665,-0.19655381944444444],[0.01767795138888889,-0.17838975694444445],[0.02914496527777778,-0.1516015625],[0.03578993055555556,-0.12799913194444446],[0.03485243055555556,-0.11290364583333333],[0.029231770833333334,-0.08935329861111112],[0.02606770833333333,-0.06342881944444445],[0.01953559027777778,-0.04026041666666667],[0.008485243055555555,-0.02637152777777778],[-0.004288194444444444,-0.01497829861111111],[-0.018927951388888888,-0.003654513888888889],[-0.0351171875,0.009587673611111111],[-0.05232638888888889,0.024075520833333332],[-0.07264756944444445,0.04226996527777778],[-0.08369791666666666,0.0552734375],[-0.09713541666666667,0.07959635416666666],[-0.104296875,0.09248697916666666],[-0.11625868055555555,0.10713107638888889],[-0.11877170138888889,0.1106467013888889],[-0.12013888888888889,0.11174045138888888],[-0.12013888888888889,0.11174045138888888],[-0.12013888888888889,0.11147135416666666]]]",1,[26],,,,,,,,,,,,,,dock4.jpg,space,2.6261,0,42,42,45,1,fittingroom2.jpg,frontFoyer7.jpg,factory1.jpg,forestpath4.jpg,,
Image_List_5,,,,,,,,,,,,,,,,46518,2022-02-06_14h03.48.131,analogCatScenes,2020.1.3,MacIntel,60,"[1440,900]","[[[0.0010243055555555556,-0.20730902777777777],[0.004748263888888889,-0.2063237847222222],[0.021571180555555555,-0.18046875],[0.04125434027777778,-0.13645833333333332],[0.05642795138888889,-0.11474392361111112],[0.06428385416666667,-0.10519097222222222],[0.0660546875,-0.10221788194444445],[0.0660546875,-0.10167100694444445],[0.0660546875,-0.10167100694444445],[0.0660546875,-0.10167100694444445],[0.0660546875,-0.10167100694444445],[0.0660546875,-0.10167100694444445],[0.0660546875,-0.10167100694444445],[0.0660546875,-0.10167100694444445]]]",1,[14],,,,,,,,,,,,,,clothingstore3.jpg,space,1.540900001,0,43,43,40,1,drycleaners4.jpg,farm1.jpg,drymountains.jpg,dugout1.jpg,,
Image_List_5,,,,,,,,,,,,,,,,46518,2022-02-06_14h03.48.131,analogCatScenes,2020.1.3,MacIntel,60,"[1440,900]","[[[0.0022526041666666666,-0.2034592013888889],[0.0010850694444444445,-0.20144965277777777],[-0.00008246527777777778,-0.1993923611111111],[-0.004040798611111111,-0.17651041666666667],[-0.014865451388888888,-0.12568142361111112],[-0.017491319444444445,-0.08024739583333333],[-0.02129340277777778,-0.05068142361111111],[-0.021705729166666667,-0.04108506944444444],[-0.021705729166666667,-0.03989583333333333],[-0.021705729166666667,-0.03989583333333333],[-0.021705729166666667,-0.040164930555555554]]]",1,[11],,,,,,,,,,,,,,hospitalroom3.jpg,space,1.228099999,0,44,44,68,1,liquorstore7.jpg,parkinglot.jpg,lightingstore4.jpg,lockerroom2.jpg,,
Image_List_5,,,,,,,,,,,,,,,,46518,2022-02-06_14h03.48.131,analogCatScenes,2020.1.3,MacIntel,60,"[1440,900]","[[[0.0012717013888888888,-0.19777777777777777],[-0.00019097222222222223,-0.18976996527777779],[-0.004605034722222222,-0.160390625],[-0.010199652777777778,-0.130234375],[-0.013090277777777777,-0.11772569444444445],[-0.013090277777777777,-0.11717881944444444],[-0.013090277777777777,-0.11717881944444444],[-0.013090277777777777,-0.11717881944444444],[-0.013090277777777777,-0.11717881944444444],[-0.013090277777777777,-0.11717881944444444],[-0.013090277777777777,-0.11717881944444444]]]",1,[11],,,,,,,,,,,,,,classroom1.jpg,space,2.661299999,0,45,45,38,1,dining_car2.jpg,elevatorOutside4.jpg,dock1.jpg,driveway8.jpg,,
Image_List_5,,,,,,,,,,,,,,,,46518,2022-02-06_14h03.48.131,analogCatScenes,2020.1.3,MacIntel,60,"[1440,900]","[[[0.002191840277777778,-0.19999131944444445],[0.002191840277777778,-0.19999131944444445],[0.002191840277777778,-0.19999131944444445],[0.010043402777777778,-0.19305121527777777],[0.02637152777777778,-0.17922743055555557],[0.03043402777777778,-0.17375868055555554],[0.03043402777777778,-0.17348524305555554],[0.03043402777777778,-0.17348524305555554],[0.03043402777777778,-0.17348524305555554],[0.03043402777777778,-0.17348524305555554],[0.03043402777777778,-0.17348524305555554]]]",1,[11],,,,,,,,,,,,,,observatory1.jpg,space,1.7012,0,46,46,78,1,parkinglot3.jpg,poolhall1.jpg,pier5.jpg,pavilion3.jpg,,
Image_List_5,,,,,,,,,,,,,,,,46518,2022-02-06_14h03.48.131,analogCatScenes,2020.1.3,MacIntel,60,"[1440,900]","[[[-0.002964409722222222,-0.19868055555555555],[-0.0040104166666666665,-0.19608940972222222],[-0.0044444444444444444,-0.18390625],[-0.0044444444444444444,-0.1540277777777778],[-0.0006076388888888889,-0.11127604166666667],[0.006293402777777778,-0.05905381944444445],[0.011180555555555555,-0.004652777777777777],[0.0068706597222222224,0.033893229166666664],[0.003910590277777778,0.04976128472222222],[0.0005164930555555555,0.05981336805555556],[-0.00040364583333333333,0.0625564236111111],[-0.0019184027777777778,0.06529947916666666],[-0.003263888888888889,0.06944444444444445],[-0.007265625,0.08271701388888889],[-0.010494791666666666,0.093671875],[-0.010859375,0.10244357638888889],[-0.011631944444444445,0.1153515625],[-0.010638020833333333,0.12177951388888889],[-0.010342881944444444,0.1251171875],[-0.010342881944444444,0.1256640625],[-0.010342881944444444,0.1256640625],[-0.010342881944444444,0.1256640625]]]",1,[22],,,,,,,,,,,,,,RVinside2.jpg,space,1.363599999,0,47,47,87,1,restaurantkitchen2.jpg,theater2.jpg,savanna.jpg,sculpturegarden2.jpg,,
Image_List_5,,,,,,,,,,,,,,,,46518,2022-02-06_14h03.48.131,analogCatScenes,2020.1.3,MacIntel,60,"[1440,900]","[[[-0.0008810763888888889,-0.18971788194444444],[0.0050651041666666665,-0.18862413194444444],[0.012916666666666667,-0.1851171875],[0.01591579861111111,-0.18274305555555556],[0.029361979166666666,-0.1613671875],[0.04368923611111111,-0.13332899305555557],[0.0577734375,-0.10774739583333333],[0.07501302083333333,-0.07996527777777777],[0.08166232638888889,-0.062482638888888886],[0.08386284722222222,-0.058880208333333336],[0.08496527777777778,-0.057465277777777775],[0.08609375,-0.05605034722222222],[0.08609375,-0.05605034722222222],[0.08609375,-0.05605034722222222],[0.08609375,-0.05605034722222222],[0.08609375,-0.05605034722222222],[0.08609375,-0.05605034722222222]]]",1,[17],,,,,,,,,,,,,,bridalboutique3.jpg,space,1.903400001,0,48,48,29,1,cornfield2.jpg,deck2.jpg,cliff2.jpg,constructionSite4.jpg,,
Image_List_5,,,,,,,,,,,,,,,,46518,2022-02-06_14h03.48.131,analogCatScenes,2020.1.3,MacIntel,60,"[1440,900]","[[[0.003003472222222222,-0.19909288194444444],[-0.001640625,-0.18358940972222224],[-0.012504340277777777,-0.13993055555555556],[-0.01773003472222222,-0.07348524305555555],[-0.023563368055555554,-0.012686631944444445],[-0.031584201388888886,0.03937934027777778],[-0.03473524305555555,0.08689236111111111],[-0.035967881944444446,0.10016927083333334],[-0.035967881944444446,0.10103732638888889],[-0.035967881944444446,0.10103732638888889],[-0.035967881944444446,0.10103732638888889],[-0.035967881944444446,0.10103732638888889],[-0.035967881944444446,0.10103732638888889],[-0.035967881944444446,0.10103732638888889],[-0.035967881944444446,0.10103732638888889],[-0.035967881944444446,0.10103732638888889]]]",1,[16],,,,,,,,,,,,,,dock2.jpg,space,1.5719,0,49,49,44,1,firestation2.jpg,frontFoyer4.jpg,elevatorOutside1.jpg,foodcourt6.jpg,,
Image_List_5,,,,,,,,,,,,,,,,46518,2022-02-06_14h03.48.131,analogCatScenes,2020.1.3,MacIntel,60,"[1440,900]","[[[-0.0020355902777777777,-0.20792100694444443],[-0.0020399305555555557,-0.20526909722222222],[-0.0012934027777777779,-0.19862413194444445],[0.0010199652777777778,-0.17629340277777777],[-0.0005425347222222222,-0.11868923611111111],[-0.013528645833333333,-0.07325520833333334],[-0.026080729166666667,-0.026380208333333332],[-0.027838541666666668,0.007517361111111111],[-0.030594618055555557,0.01943142361111111],[-0.03149305555555556,0.021809895833333332],[-0.033893229166666664,0.028641493055555557],[-0.033893229166666664,0.028914930555555555],[-0.033893229166666664,0.028914930555555555],[-0.033893229166666664,0.028645833333333332],[-0.033893229166666664,0.028645833333333332]]]",1,[15],,,,,,,,,,,,,,carmechanic2.jpg,space,1.457700001,0,50,50,35,1,deck5.jpg,dock3.jpg,cubicle7.jpg,dining_car6.jpg,,
Image_List_5,,,,,,,,,,,,,,,,46518,2022-02-06_14h03.48.131,analogCatScenes,2020.1.3,MacIntel,60,"[1440,900]","[[[0.004565972222222222,-0.19741319444444444],[0.004292534722222222,-0.19659288194444444],[0.002578125,-0.1951519097222222],[-0.00011284722222222222,-0.18991319444444443],[-0.00359375,-0.17336371527777777],[-0.0034418402777777776,-0.13145833333333334],[0.004952256944444444,-0.09967447916666666],[0.01197048611111111,-0.0640451388888889],[0.019874131944444446,-0.0365234375],[0.02224826388888889,-0.02665798611111111],[0.022543402777777777,-0.024921875],[0.0228125,-0.0246484375],[0.0228125,-0.0246484375],[0.0228125,-0.0246484375],[0.0228125,-0.0246484375],[0.0228125,-0.0246484375]]]",1,[16],,,,,,,,,,,,,,grocerystore3.jpg,space,1.7198,0,51,51,59,1,homegarden7.jpg,library_aisle8.jpg,highway4.jpg,kindergarten_classroom5.jpg,,
Image_List_5,,,,,,,,,,,,,,,,46518,2022-02-06_14h03.48.131,analogCatScenes,2020.1.3,MacIntel,60,"[1440,900]","[[[0.002634548611111111,-0.20219618055555555],[0.0017404513888888888,-0.2000954861111111],[-0.006015625,-0.18849826388888888],[-0.022573784722222223,-0.16001736111111112],[-0.036085069444444444,-0.14091579861111111],[-0.05887586805555556,-0.10675347222222223],[-0.07143229166666666,-0.08370225694444444],[-0.07603298611111112,-0.07260416666666666],[-0.07603298611111112,-0.07233072916666666],[-0.07603298611111112,-0.07233072916666666],[-0.07603298611111112,-0.07233072916666666],[-0.07603298611111112,-0.07233072916666666],[-0.07603298611111112,-0.07233072916666666]]]",1,[13],,,,,,,,,,,,,,bus_shelter3.jpg,space,1.3234,0,52,52,30,1,courthouse1.jpg,desertvegetation3.jpg,clothingstore2.jpg,copyroom2.jpg,,
Image_List_5,,,,,,,,,,,,,,,,46518,2022-02-06_14h03.48.131,analogCatScenes,2020.1.3,MacIntel,60,"[1440,900]","[[[-0.007048611111111111,-0.19463107638888888],[-0.0058246527777777776,-0.19092881944444445],[-0.011453993055555556,-0.17572916666666666],[-0.015603298611111111,-0.13909722222222223],[-0.01244357638888889,-0.09447482638888889],[-0.013411458333333333,-0.017669270833333334],[-0.018528645833333333,0.07470486111111112],[-0.0033940972222222224,0.1739453125],[0.002287326388888889,0.2155512152777778],[0.0057552083333333335,0.23787760416666667],[0.006458333333333333,0.24497395833333332],[0.006727430555555556,0.24584201388888888],[0.007265625,0.24557291666666667],[0.007534722222222222,0.24503472222222222],[0.0078515625,0.2440798611111111],[0.011792534722222222,0.2353689236111111],[0.013016493055555555,0.2329644097222222]]]",1,[17],,,,,,,,,,,,,,airportTerminal6.jpg,space,1.605299999,0,53,53,2,1,alley1.jpg,arcade1.jpg,applestore6.jpg,apartmentBuilding4.jpg,,
Image_List_5,,,,,,,,,,,,,,,,46518,2022-02-06_14h03.48.131,analogCatScenes,2020.1.3,MacIntel,60,"[1440,900]","[[[-0.0007682291666666666,-0.19523003472222222],[0.0012717013888888888,-0.19523003472222222],[0.002400173611111111,-0.19579427083333334],[0.005073784722222223,-0.19671875],[0.013016493055555555,-0.19278211805555556],[0.028828125,-0.18122829861111112],[0.05989149305555556,-0.16038194444444445],[0.10473090277777777,-0.12606770833333333],[0.15417534722222223,-0.09894965277777777],[0.18707465277777777,-0.08481770833333334],[0.20702256944444444,-0.07990017361111111],[0.21015625,-0.07831597222222222],[0.21182291666666667,-0.07774305555555555],[0.21263020833333332,-0.07774305555555555],[0.21263020833333332,-0.07774305555555555],[0.21263020833333332,-0.07746961805555555],[0.21263020833333332,-0.07746961805555555],[0.21235677083333335,-0.07746961805555555]]]",1,[18],,,,,,,,,,,,,,warehouse1.jpg,space,1.6457,0,54,54,96,1,warehouse4.jpg,warehouseoutside1.jpg,tenniscourt3.jpg,windmill1.jpg,,
Image_List_5,,,,,,,,,,,,,,,,46518,2022-02-06_14h03.48.131,analogCatScenes,2020.1.3,MacIntel,60,"[1440,900]","[[[0.0030164930555555557,-0.19338107638888888],[0.0030164930555555557,-0.19338107638888888],[0.0030164930555555557,-0.19338107638888888],[0.0030164930555555557,-0.1886935763888889],[-0.00015190972222222222,-0.16413194444444446],[-0.008020833333333333,-0.13315538194444446],[-0.01373263888888889,-0.1012673611111111],[-0.017465277777777777,-0.07452256944444445],[-0.022152777777777778,-0.05601996527777778],[-0.025316840277777777,-0.039605034722222224],[-0.03248263888888889,-0.01728298611111111],[-0.03485243055555556,-0.007417534722222222],[-0.03721788194444445,0.002400173611111111],[-0.03990451388888889,0.014040798611111112],[-0.0436328125,0.0261328125],[-0.04788194444444444,0.03540364583333333],[-0.05116319444444444,0.046861979166666665],[-0.05365017361111111,0.052960069444444445],[-0.05392361111111111,0.053233506944444446],[-0.05392361111111111,0.053233506944444446],[-0.05392361111111111,0.053233506944444446],[-0.05392361111111111,0.053233506944444446],[-0.05392361111111111,0.053233506944444446],[-0.05515625,0.05506076388888889]]]",1,[24],,,,,,,,,,,,,,hallway.jpg,space,1.7715,0,55,55,60,1,hometheater2.jpg,lightingstore3.jpg,homegarage.jpg,kindergarten_classroom6.jpg,,
Image_List_5,,,,,,,,,,,,,,,,46518,2022-02-06_14h03.48.131,analogCatScenes,2020.1.3,MacIntel,60,"[1440,900]","[[[0.005638020833333333,-0.1931032986111111],[0.012100694444444445,-0.16563368055555555],[0.019466145833333334,-0.12626736111111111],[0.03174479166666667,-0.08756076388888889],[0.04302517361111111,-0.047486979166666665],[0.045386284722222225,-0.017825520833333334],[0.046197916666666665,-0.007417534722222222],[0.04428819444444444,0.0013541666666666667],[0.042217881944444445,0.009991319444444445],[0.04123697916666667,0.02849392361111111],[0.04164496527777778,0.039952256944444445],[0.042504340277777775,0.05663628472222222],[0.04282118055555555,0.06287326388888889],[0.04282118055555555,0.0634201388888889],[0.04282118055555555,0.0634201388888889],[0.04282118055555555,0.0634201388888889],[0.04282118055555555,0.06315104166666667]]]",1,[17],,,,,,,,,,,,,,homegarage2.jpg,space,1.5169,0,56,56,64,1,igloo2.jpg,newsstand5.jpg,jewelrystore8.jpg,lab5.jpg,,
Image_List_5,,,,,,,,,,,,,,,,46518,2022-02-06_14h03.48.131,analogCatScenes,2020.1.3,MacIntel,60,"[1440,900]","[[[-0.0020876736111111113,-0.20911892361111112],[-0.0020876736111111113,-0.20911892361111112],[-0.0007725694444444444,-0.2075],[0.016666666666666666,-0.19246527777777778],[0.046861979166666665,-0.17294270833333333],[0.057352430555555556,-0.16257378472222223],[0.06661458333333334,-0.1528862847222222],[0.08000868055555556,-0.1418359375],[0.10394965277777778,-0.12641927083333335],[0.1330295138888889,-0.10434895833333334],[0.1504296875,-0.08627170138888889],[0.15294270833333334,-0.08017361111111111],[0.15294270833333334,-0.08017361111111111],[0.15294270833333334,-0.08017361111111111],[0.15294270833333334,-0.08017361111111111],[0.15294270833333334,-0.08017361111111111]]]",1,[16],,,,,,,,,,,,,,jewelrystore.jpg,space,1.6327,0,57,57,71,1,metroInside2.jpg,pavilion5.jpg,metroInside3.jpg,museum3.jpg,,
Image_List_5,,,,,,,,,,,,,,,,46518,2022-02-06_14h03.48.131,analogCatScenes,2020.1.3,MacIntel,60,"[1440,900]","[[[0.003932291666666666,-0.19880642361111112],[0.0067230902777777775,-0.19629340277777776],[0.014917534722222223,-0.18215277777777777],[0.027317708333333333,-0.1599001736111111],[0.03109809027777778,-0.141484375],[0.03422309027777778,-0.12229600694444444],[0.034965277777777776,-0.1140234375],[0.03736545138888889,-0.10714409722222222],[0.04030815972222222,-0.09937065972222223],[0.042569444444444444,-0.09291666666666666],[0.046362847222222225,-0.0795095486111111],[0.04840277777777778,-0.07091579861111111],[0.05005208333333333,-0.0594140625],[0.05005208333333333,-0.05322482638888889]]]",1,[14],,,,,,,,,,,,,,cabin4.jpg,space,1.4443,0,58,58,32,1,dancestudio6.jpg,diner12.jpg,constructionSite2.jpg,dentist4.jpg,,
Image_List_5,,,,,,,,,,,,,,,,46518,2022-02-06_14h03.48.131,analogCatScenes,2020.1.3,MacIntel,60,"[1440,900]","[[[0.005464409722222222,-0.20571614583333334],[0.005464409722222222,-0.20516927083333333],[0.005759548611111111,-0.20311197916666668],[0.004496527777777778,-0.19959635416666666],[0.0028993055555555556,-0.18895399305555555],[0.0005295138888888889,-0.1675824652777778],[-0.011762152777777778,-0.11667100694444445],[-0.018472222222222223,-0.08569444444444445],[-0.02943576388888889,-0.05838107638888889],[-0.03403211805555555,-0.042469618055555554],[-0.03553385416666666,-0.03714409722222222],[-0.03553385416666666,-0.03714409722222222],[-0.03553385416666666,-0.03714409722222222],[-0.03553385416666666,-0.03714409722222222],[-0.03553385416666666,-0.03714409722222222],[-0.03553385416666666,-0.03714409722222222],[-0.03638020833333333,-0.03627604166666667]]]",1,[17],,,,,,,,,,,,,,backyard1.jpg,space,1.455400001,0,59,59,11,1,backyard2.jpg,basketballcourt4.jpg,bambooforest3.jpg,baywindow5.jpg,,
Image_List_5,,,,,,,,,,,,,,,,46518,2022-02-06_14h03.48.131,analogCatScenes,2020.1.3,MacIntel,60,"[1440,900]","[[[-0.00018663194444444445,-0.19230902777777778],[-0.00018663194444444445,-0.19089409722222223],[0.00171875,-0.1792534722222222],[0.016158854166666667,-0.12215711805555556],[0.034344618055555554,-0.019149305555555555],[0.036770833333333336,0.020833333333333332],[0.036770833333333336,0.028880208333333334],[0.036814236111111114,0.040516493055555554],[0.03934461805555556,0.053198784722222225],[0.03984375,0.07752604166666667]]]",1,[10],,,,,,,,,,,,,,bleachers6.jpg,space,1.1787,0,60,60,23,1,bus_shelter.jpg,church8.jpg,carmechanic4.jpeg,cemetery3.jpg,,
Image_List_5,,,,,,,,,,,,,,,,46518,2022-02-06_14h03.48.131,analogCatScenes,2020.1.3,MacIntel,60,"[1440,900]","[[[-0.004861111111111111,-0.20580729166666667],[-0.0045920138888888885,-0.20553385416666667],[0.00003472222222222222,-0.19918402777777777],[0.014353298611111112,-0.16462239583333332],[0.025203993055555554,-0.11379340277777777],[0.030264756944444443,-0.08330729166666667],[0.03299913194444445,-0.07384982638888889],[0.036328125,-0.06607638888888889],[0.03881944444444444,-0.05925347222222222],[0.0391796875,-0.04993489583333333]]]",1,[10],,,,,,,,,,,,,,hayfield6.jpg,space,2.4322,0,61,61,61,1,HorseRaceTrack.jpg,metroInside4.jpg,homegarden6.jpg,kindergarten_classroom7.jpg,,
Image_List_5,,,,,,,,,,,,,,,,46518,2022-02-06_14h03.48.131,analogCatScenes,2020.1.3,MacIntel,60,"[1440,900]","[[[0.006844618055555555,-0.19413194444444445],[0.009631076388888889,-0.18085503472222222],[0.015651041666666667,-0.15328125],[0.02542534722222222,-0.11491753472222223],[0.025946180555555556,-0.09986545138888889],[0.025946180555555556,-0.09986545138888889],[0.025946180555555556,-0.10013454861111111]]]",1,[7],,,,,,,,,,,,,,amusement3.jpg,space,1.0971,0,62,62,5,1,artStudio3.jpg,bambooforest.jpg,auto_showroom4.jpg,attic4.jpg,,
Image_List_5,,,,,,,,,,,,,,,,46518,2022-02-06_14h03.48.131,analogCatScenes,2020.1.3,MacIntel,60,"[1440,900]","[[[-0.0011675347222222222,-0.21071614583333334],[-0.0008984375,-0.21071614583333334],[-0.0013541666666666667,-0.20634982638888888],[0.0017144097222222222,-0.17331597222222223],[0.017413194444444443,-0.12983940972222222],[0.03470486111111111,-0.08318576388888889],[0.04400607638888889,-0.03560329861111111],[0.04575520833333333,-0.010625],[0.04575520833333333,-0.003159722222222222],[0.04575520833333333,-0.003159722222222222],[0.04575520833333333,-0.0025651041666666665],[0.04534288194444445,0.0106640625],[0.04336371527777778,0.023389756944444444],[0.03983940972222222,0.04549045138888889],[0.03756076388888889,0.05467881944444444],[0.03728732638888889,0.055225694444444445],[0.03728732638888889,0.055225694444444445],[0.03728732638888889,0.055225694444444445]]]",1,[18],,,,,,,,,,,,,,boardwalk.jpg,space,1.382599999,0,63,63,24,1,campsite.jpg,cliff3.jpg,cave6.jpg,cemetery5.jpg,,
Image_List_5,,,,,,,,,,,,,,,,46518,2022-02-06_14h03.48.131,analogCatScenes,2020.1.3,MacIntel,60,"[1440,900]","[[[0.0045703125,-0.1905425347222222],[0.00375,-0.17899739583333332],[0.001814236111111111,-0.1543576388888889],[0.001814236111111111,-0.1174045138888889],[-0.005082465277777778,-0.03197916666666667],[-0.010503472222222223,0.004657118055555556],[-0.013350694444444445,0.013988715277777777],[-0.016276041666666668,0.0201953125],[-0.018806423611111112,0.027065972222222224],[-0.02111545138888889,0.031440972222222224]]]",1,[10],,,,,,,,,,,,,,cabin3.jpg,space,1.4474,0,64,64,31,1,cubicle4.jpg,desertvegetation6.jpg,conference4.jpg,courtroom2.jpg,,
Image_List_5,,,,,,,,,,,,,,,,46518,2022-02-06_14h03.48.131,analogCatScenes,2020.1.3,MacIntel,60,"[1440,900]","[[[-0.0031380208333333334,-0.19184895833333335],[0.0021223958333333333,-0.17734375],[0.01728298611111111,-0.1463845486111111],[0.03961805555555555,-0.09448350694444445],[0.06622829861111111,-0.025729166666666668],[0.10236545138888889,0.06325520833333333],[0.12229166666666667,0.10506510416666667],[0.13963541666666668,0.13930555555555554],[0.1538107638888889,0.16550347222222223],[0.16811631944444444,0.18890190972222223],[0.17528645833333334,0.2011111111111111]]]",1,[11],,,,,,,,,,,,,,botanicalGarden7.jpg,space,1.39,0,65,65,26,1,campusquad2.jpg,cornfield4.jpg,church4.jpg,churchInside3.jpg,,
Image_List_5,,,,,,,,,,,,,,,,46518,2022-02-06_14h03.48.131,analogCatScenes,2020.1.3,MacIntel,60,"[1440,900]","[[[-0.010828993055555555,-0.2005685763888889],[-0.010828993055555555,-0.2005685763888889],[-0.0119921875,-0.19651909722222222],[-0.014275173611111112,-0.1661328125],[-0.02388454861111111,-0.12868055555555555],[-0.03173611111111111,-0.1041015625],[-0.035555555555555556,-0.08482204861111112],[-0.03822048611111111,-0.07645399305555556],[-0.03881510416666667,-0.07403211805555555],[-0.03881510416666667,-0.07375868055555555],[-0.03881510416666667,-0.07375868055555555]]]",1,[11],,,,,,,,,,,,,,citystreet9.jpg,space,1.4187,0,66,66,37,1,dining_car.jpg,driveway4.jpg,dinosaur4.jpg,driveway7.jpg,,
Image_List_5,,,,,,,,,,,,,,,,46518,2022-02-06_14h03.48.131,analogCatScenes,2020.1.3,MacIntel,60,"[1440,900]","[[[-0.00032118055555555556,-0.20196614583333333],[0.0008072916666666667,-0.20279947916666666],[0.004383680555555556,-0.20143229166666668],[0.015694444444444445,-0.1900434027777778],[0.03521267361111111,-0.16548177083333335],[0.05333767361111111,-0.15188368055555557],[0.07690104166666667,-0.13805555555555554],[0.09809895833333333,-0.12523003472222222],[0.10273003472222222,-0.1205859375],[0.1033203125,-0.12001302083333333],[0.1033203125,-0.12001302083333333],[0.1033203125,-0.12001302083333333],[0.1033203125,-0.12001302083333333],[0.1027734375,-0.12028211805555555]]]",1,[14],,,,,,,,,,,,,,mallindoor6.jpg,space,1.4221,0,67,67,77,1,parkinggarage2.jpg,playroom6.jpg,pasture9.jpg,park8.jpg,,
Image_List_5,,,,,,,,,,,,,,,,46518,2022-02-06_14h03.48.131,analogCatScenes,2020.1.3,MacIntel,60,"[1440,900]","[[[-0.0025477430555555557,-0.19779079861111112],[-0.00018663194444444445,-0.1954123263888889],[0.0012109375,-0.19456597222222222],[0.0012109375,-0.19456597222222222],[0.0012109375,-0.19456597222222222],[0.002018229166666667,-0.19401909722222221],[0.00927951388888889,-0.18558159722222223],[0.023676215277777777,-0.17164496527777778],[0.045390625,-0.15247395833333333],[0.06715711805555556,-0.13657552083333332],[0.09776475694444445,-0.11685763888888889],[0.10970486111111111,-0.1075564236111111],[0.11220052083333333,-0.10474826388888889],[0.1130078125,-0.10360677083333333],[0.1153689236111111,-0.10122829861111111],[0.11625434027777778,-0.0988498263888889],[0.11654947916666666,-0.09766059027777778]]]",1,[17],,,,,,,,,,,,,,gasstation2.jpg,space,1.3831,0,68,68,56,1,grocerystore5.jpg,hut3.jpg,golfcourse10.jpg,hut1.jpg,,
Image_List_5,,,,,,,,,,,,,,,,46518,2022-02-06_14h03.48.131,analogCatScenes,2020.1.3,MacIntel,60,"[1440,900]","[[[-0.0023741319444444443,-0.2046440972222222],[-0.0018359375,-0.20409722222222224],[-0.00034288194444444443,-0.20199652777777777],[0.007100694444444444,-0.1837109375],[0.01867621527777778,-0.13131944444444443],[0.021028645833333335,-0.11377170138888888],[0.021410590277777777,-0.10681857638888889],[0.02310763888888889,-0.09358940972222222],[0.022057291666666666,-0.07348958333333333],[0.021527777777777778,-0.045924479166666664],[0.025104166666666667,-0.029878472222222223],[0.025421006944444446,-0.028372395833333335],[0.025421006944444446,-0.028372395833333335],[0.025959201388888888,-0.028372395833333335],[0.02622829861111111,-0.028098958333333333],[0.027200520833333332,-0.024175347222222223],[0.029079861111111112,-0.016119791666666668]]]",1,[17],,,,,,,,,,,,,,kindergarten_classroom.jpg,space,1.3149,0,69,69,72,1,museum5.jpg,pharmacy4.jpg,musicStore1.jpg,museum4.jpg,,
Image_List_5,,,,,,,,,,,,,,,,46518,2022-02-06_14h03.48.131,analogCatScenes,2020.1.3,MacIntel,60,"[1440,900]","[[[0.003515625,-0.20151475694444446],[0.0038107638888888887,-0.20064670138888888],[0.0038107638888888887,-0.1984982638888889],[0.009327256944444445,-0.18016927083333334],[0.027682291666666668,-0.12461371527777777],[0.04264756944444444,-0.08567274305555556],[0.04659288194444444,-0.0708984375],[0.047452256944444444,-0.06943576388888889],[0.047452256944444444,-0.06943576388888889],[0.047452256944444444,-0.06943576388888889],[0.047452256944444444,-0.06943576388888889],[0.047452256944444444,-0.06943576388888889],[0.04717881944444444,-0.06970486111111111]]]",1,[13],,,,,,,,,,,,,,diningroom3.jpg,space,1.5925,0,70,70,43,1,exerciseequipment5.jpg,forestpath10.jpg,dugout2.jpg,foodcourt.jpg,,
Image_List_5,,,,,,,,,,,,,,,,46518,2022-02-06_14h03.48.131,analogCatScenes,2020.1.3,MacIntel,60,"[1440,900]","[[[0.002612847222222222,-0.19700520833333332],[0.03197482638888889,-0.16648003472222223],[0.07744791666666667,-0.1179470486111111],[0.11264756944444444,-0.08162760416666667],[0.11611545138888889,-0.07783854166666666],[0.11665364583333333,-0.07697048611111111],[0.11665364583333333,-0.07697048611111111],[0.11610677083333333,-0.07697048611111111],[0.11555989583333333,-0.07697048611111111]]]",1,[9],,,,,,,,,,,,,,rooftop3.jpg,space,1.4318,0,71,71,85,1,recordingstudio4.jpg,sidewalk5.jpg,ruralroad2.jpg,sandDunes_desert_outdoor3.jpg,,
Image_List_5,,,,,,,,,,,,,,,,46518,2022-02-06_14h03.48.131,analogCatScenes,2020.1.3,MacIntel,60,"[1440,900]","[[[0.0027213541666666666,-0.19319444444444445],[-0.0023307291666666667,-0.16312934027777778],[-0.009904513888888888,-0.09698350694444445],[-0.014600694444444444,-0.060212673611111114],[-0.017795138888888888,-0.04084635416666667],[-0.01888888888888889,-0.033884548611111114],[-0.01888888888888889,-0.0321484375],[-0.017981770833333334,-0.028172743055555557],[-0.01825520833333333,-0.024791666666666667],[-0.01825520833333333,-0.024518229166666666],[-0.018828125,-0.02365017361111111]]]",1,[11],,,,,,,,,,,,,,horsebarn9.jpg,space,2.5236,0,72,72,66,1,library_aisle10.jpg,office3.jpg,laundromat3.jpg,liquorstore.jpg,,
Image_List_5,,,,,,,,,,,,,,,,46518,2022-02-06_14h03.48.131,analogCatScenes,2020.1.3,MacIntel,60,"[1440,900]","[[[-0.0015321180555555557,-0.19029079861111112],[-0.0015321180555555557,-0.19029079861111112],[-0.001896701388888889,-0.18792534722222223],[-0.009045138888888889,-0.1683420138888889],[-0.025282118055555556,-0.08297309027777777],[-0.026319444444444444,-0.0244921875],[-0.025190972222222222,-0.0006640625],[-0.028172743055555557,0.01665798611111111],[-0.02990451388888889,0.023211805555555555],[-0.03161892361111111,0.025221354166666668],[-0.03161892361111111,0.025221354166666668],[-0.03161892361111111,0.025221354166666668],[-0.031892361111111114,0.025494791666666666],[-0.041974826388888886,0.03399739583333333],[-0.053125,0.04621527777777778],[-0.06959635416666667,0.06993489583333333],[-0.08826388888888889,0.0917404513888889],[-0.09640625,0.10365451388888888],[-0.1017578125,0.11234809027777778],[-0.10248697916666667,0.11234809027777778],[-0.1028515625,0.11234809027777778],[-0.10358072916666666,0.11234809027777778],[-0.10358072916666666,0.11234809027777778],[-0.10358072916666666,0.11234809027777778],[-0.10358072916666666,0.11234809027777778],[-0.10358072916666666,0.11234809027777778]]]",1,[26],,,,,,,,,,,,,,sidewalk3.jpg,space,2.242,0,73,73,91,1,shoestore2.jpg,trainStation5.jpg,skatepark5.jpg,ticket_counter6.jpg,,
Image_List_5,,,,,,,,,,,,,,,,46518,2022-02-06_14h03.48.131,analogCatScenes,2020.1.3,MacIntel,60,"[1440,900]","[[[0.0048480902777777776,-0.20462239583333333],[0.004574652777777778,-0.20489149305555557],[0.004301215277777778,-0.20489149305555557],[0.004301215277777778,-0.204296875],[0.01154513888888889,-0.155390625],[0.022365451388888888,-0.06490451388888889],[0.024405381944444443,-0.042673611111111114],[0.024405381944444443,-0.04240017361111111],[0.024405381944444443,-0.04293836805555556]]]",1,[9],,,,,,,,,,,,,,fountain.jpg,space,1.436,0,74,74,53,1,gazebo3.jpg,homeoffice.jpg,frontLawn3.jpg,homegarage3.jpg,,
Image_List_5,,,,,,,,,,,,,,,,46518,2022-02-06_14h03.48.131,analogCatScenes,2020.1.3,MacIntel,60,"[1440,900]","[[[0.0008897569444444444,-0.18957465277777777],[0.0028081597222222223,-0.18080295138888888],[0.011167534722222223,-0.14509114583333332],[0.014691840277777778,-0.051080729166666665],[0.0034939236111111113,0.00703125],[-0.0005338541666666666,0.03404513888888889],[-0.0028125,0.05046006944444444],[-0.003246527777777778,0.06082465277777778],[-0.002348090277777778,0.0697439236111111],[0.0014409722222222222,0.07654947916666667],[0.008289930555555556,0.08585069444444444],[0.009266493055555556,0.0880859375],[0.009266493055555556,0.0880859375],[0.009266493055555556,0.0880859375],[0.009266493055555556,0.08754774305555556]]]",1,[15],,,,,,,,,,,,,,rooftop4.jpg,space,1.3795,0,75,75,86,1,restaurant14.jpg,stripmall.jpg,ruralroad3.jpg,sandDunes_desert_outdoor8.jpg,,
Image_List_5,,,,,,,,,,,,,,,,46518,2022-02-06_14h03.48.131,analogCatScenes,2020.1.3,MacIntel,60,"[1440,900]","[[[0.0047265625,-0.19980034722222223],[0.0047265625,-0.19980034722222223],[0.0020833333333333333,-0.18647135416666666],[-0.0026822916666666666,-0.09619357638888888],[0.011480034722222223,-0.0032508680555555555],[0.015399305555555555,0.036783854166666664],[0.017981770833333334,0.05974826388888889],[0.0194921875,0.0693923611111111],[0.0194921875,0.07085503472222222],[0.020464409722222222,0.07604600694444444],[0.019457465277777777,0.08477864583333333],[0.019157986111111112,0.08592013888888889],[0.019157986111111112,0.08592013888888889],[0.01888454861111111,0.08484375]]]",1,[14],,,,,,,,,,,,,,alley4.jpg,space,1.9908,0,76,76,4,1,artStudio1.jpg,baggageClaim2.jpg,auto_showroom1.jpg,appleorchard3.jpg,,
Image_List_5,,,,,,,,,,,,,,,,46518,2022-02-06_14h03.48.131,analogCatScenes,2020.1.3,MacIntel,60,"[1440,900]","[[[0.001796875,-0.20088541666666668],[0.003880208333333333,-0.20414930555555555],[0.004418402777777778,-0.20414930555555555],[0.004800347222222222,-0.19260416666666666],[0.001987847222222222,-0.113359375],[0.012074652777777778,-0.019600694444444445],[0.014670138888888889,-0.010368923611111112],[0.014670138888888889,-0.01009548611111111],[0.014670138888888889,-0.01009548611111111],[0.014670138888888889,-0.01009548611111111]]]",1,[10],,,,,,,,,,,,,,hayfield7.jpg,space,1.173700001,0,77,77,62,1,hotellobby2.jpg,minigolf.jpg,horsebarn8.jpg,lab3.jpg,,
Image_List_5,,,,,,,,,,,,,,,,46518,2022-02-06_14h03.48.131,analogCatScenes,2020.1.3,MacIntel,60,"[1440,900]","[[[0.0012934027777777779,-0.19341145833333334],[0.0025564236111111113,-0.18958767361111112],[0.0030729166666666665,-0.14941840277777776],[-0.009552951388888889,-0.08547743055555555],[-0.013836805555555555,-0.05942708333333333],[-0.014136284722222222,-0.05855902777777778],[-0.014136284722222222,-0.05855902777777778]]]",1,[7],,,,,,,,,,,,,,homeoffice8.jpg,space,0.9915,0,78,78,65,1,igloo5.jpg,newsstand7.jpg,laundromat2.jpeg,labClass7.jpg,,
Image_List_5,,,,,,,,,,,,,,,,46518,2022-02-06_14h03.48.131,analogCatScenes,2020.1.3,MacIntel,60,"[1440,900]","[[[0.002443576388888889,-0.19958333333333333],[0.002443576388888889,-0.19958333333333333],[0.0032118055555555554,-0.19476128472222223],[0.007022569444444444,-0.16309027777777776],[0.015546875,-0.08171875],[0.01611111111111111,-0.05664930555555556],[0.01611111111111111,-0.0401953125],[0.01742621527777778,-0.029552951388888887]]]",1,[8],,,,,,,,,,,,,,gazebo.jpg,space,0.9735,0,79,79,57,1,hayfield5.jpg,jail1.jpg,hallway4.jpg,hut5.jpg,,
Image_List_5,,,,,,,,,,,,,,,,46518,2022-02-06_14h03.48.131,analogCatScenes,2020.1.3,MacIntel,60,"[1440,900]","[[[0.0014973958333333334,-0.19744357638888888],[0.008120659722222222,-0.17788628472222223],[0.025338541666666665,-0.13723524305555557],[0.052612847222222224,-0.08166232638888889],[0.07399739583333333,-0.04428819444444444],[0.07542100694444444,-0.039049479166666665],[0.07542100694444444,-0.039049479166666665],[0.07542100694444444,-0.03931857638888889]]]",1,[8],,,,,,,,,,,,,,warehouseoutside3.jpg,space,1.032,0,80,80,97,1,warehouseoutside4.jpg,wineVineyard2.jpg,waitingroom4.jpg,winebarrel3.jpg,,
Image_List_5,,,,,,,,,,,,,,,,46518,2022-02-06_14h03.48.131,analogCatScenes,2020.1.3,MacIntel,60,"[1440,900]","[[[0.0043359375,-0.19580729166666666],[0.0058246527777777776,-0.1952126736111111],[0.009036458333333334,-0.17584635416666666],[0.006796875,-0.13716145833333335],[0.0015321180555555557,-0.10357638888888888],[-0.0039800347222222225,-0.06700086805555555],[-0.008059895833333334,-0.026145833333333333],[-0.012638888888888889,-0.0009852430555555556],[-0.014782986111111111,0.005572916666666667],[-0.016614583333333332,0.008315972222222223],[-0.01869357638888889,0.0135546875]]]",1,[11],,,,,,,,,,,,,,sculpturegarden3.jpg,space,1.1643,0,81,81,89,1,ruralroad7.jpg,track5.jpg,ShowJumping7.jpg,staircase7.jpg,,
Image_List_5,,,,,,,,,,,,,,,,46518,2022-02-06_14h03.48.131,analogCatScenes,2020.1.3,MacIntel,60,"[1440,900]","[[[-0.0008854166666666666,-0.19481336805555555],[0.0004296875,-0.1926953125],[0.0019010416666666668,-0.16453559027777778],[0.004518229166666667,-0.09496527777777777],[0.007994791666666667,-0.024995659722222223],[0.008289930555555556,-0.02325954861111111],[0.008901909722222223,-0.020151909722222222],[0.008901909722222223,-0.01905815972222222]]]",1,[8],,,,,,,,,,,,,,airportTerminal2.jpg,space,1.1116,0,82,82,1,1,airportTerminal4.jpg,apartmentBuilding1.jpg,applestore1.jpg,airportTerminal3.jpg,,
Image_List_5,,,,,,,,,,,,,,,,46518,2022-02-06_14h03.48.131,analogCatScenes,2020.1.3,MacIntel,60,"[1440,900]","[[[0.0045920138888888885,-0.1943359375],[0.00515625,-0.19374131944444445],[0.007191840277777778,-0.18805121527777777],[0.012795138888888889,-0.165625],[0.023133680555555557,-0.11802083333333334],[0.028294270833333333,-0.07578993055555555],[0.030403645833333333,-0.06914496527777778],[0.030967881944444445,-0.06800347222222222],[0.031236979166666668,-0.06773003472222222],[0.033893229166666664,-0.06475694444444445],[0.03525173611111111,-0.06001736111111111],[0.03525173611111111,-0.05974392361111111]]]",1,[12],,,,,,,,,,,,,,bar8.jpg,space,1.3332,0,83,83,15,1,bambooforest4.jpg,cafeteria5.jpg,bleachers8.jpg,cabinIndoors.jpg,,
Image_List_5,,,,,,,,,,,,,,,,46518,2022-02-06_14h03.48.131,analogCatScenes,2020.1.3,MacIntel,60,"[1440,900]","[[[-0.00006076388888888889,-0.20555555555555555],[-0.00006076388888888889,-0.20528211805555555],[-0.004114583333333333,-0.19186631944444443],[-0.026493055555555554,-0.13353732638888888],[-0.03414930555555556,-0.10103732638888889],[-0.05150173611111111,-0.03463541666666667],[-0.07856336805555555,0.04943576388888889],[-0.09651475694444445,0.09794704861111111],[-0.1000173611111111,0.10785590277777778],[-0.10293402777777778,0.11295138888888889],[-0.10473958333333333,0.11537326388888888],[-0.10473958333333333,0.11537326388888888],[-0.10473958333333333,0.11510416666666666]]]",1,[13],,,,,,,,,,,,,,basement6.jpg,space,1.4703,0,84,84,18,1,bleachers5.jpg,casino1.jpg,brewery4.jpg,castle2.jpg,,
Image_List_5,,,,,,,,,,,,,,,,46518,2022-02-06_14h03.48.131,analogCatScenes,2020.1.3,MacIntel,60,"[1440,900]","[[[-0.006519097222222222,-0.19530381944444444],[-0.006519097222222222,-0.19530381944444444],[-0.006519097222222222,-0.19503038194444444],[-0.006519097222222222,-0.19448350694444444],[-0.0029383680555555556,-0.18052517361111112],[0.009973958333333333,-0.1426345486111111],[0.03264756944444445,-0.0655859375],[0.04726128472222222,0.00011284722222222222],[0.06013020833333333,0.03954861111111111],[0.06269097222222222,0.04765190972222222],[0.06296006944444445,0.04847222222222222],[0.06322916666666667,0.051076388888888886],[0.06322916666666667,0.05134982638888889],[0.06322916666666667,0.051080729166666665]]]",1,[14],,,,,,,,,,,,,,brewery2.jpg,space,1.8603,0,85,85,27,1,castle3.jpg,courtroom3.jpg,churchInside4.jpg,closet.jpg,,
Image_List_5,,,,,,,,,,,,,,,,46518,2022-02-06_14h03.48.131,analogCatScenes,2020.1.3,MacIntel,60,"[1440,900]","[[[-0.0037630208333333335,-0.20118055555555556],[-0.0034939236111111113,-0.20118055555555556],[-0.008068576388888889,-0.1812109375],[-0.039361979166666665,-0.0178125],[-0.06179253472222222,0.06266059027777778],[-0.06329861111111111,0.06808159722222222],[-0.06293836805555555,0.06808159722222222],[-0.06293836805555555,0.06808159722222222],[-0.06293836805555555,0.06808159722222222],[-0.06293836805555555,0.0678125]]]",1,[10],,,,,,,,,,,,,,ballroom3.jpg,space,1.3507,0,86,86,14,1,ballroom1.jpg,breakroom5.jpg,bistrooutdoor5.jpg,botanicalGarden5.jpg,,
Image_List_5,,,,,,,,,,,,,,,,46518,2022-02-06_14h03.48.131,analogCatScenes,2020.1.3,MacIntel,60,"[1440,900]","[[[-0.0016927083333333334,-0.2107769097222222],[-0.0037760416666666667,-0.20869357638888889],[-0.0008723958333333333,-0.19108940972222221],[0.028407118055555555,-0.1130859375],[0.03032986111111111,0.03809461805555556],[0.03032986111111111,0.04423611111111111],[0.03032986111111111,0.04478298611111111],[0.03032986111111111,0.04478298611111111],[0.03032986111111111,0.04478298611111111]]]",1,[9],,,,,,,,,,,,,,forestpath2.jpg,space,1.517400001,0,87,87,52,1,gasstation7.jpg,hardwarestore1.jpg,frontFoyer6.jpg,highway.jpg,,
Image_List_5,,,,,,,,,,,,,,,,46518,2022-02-06_14h03.48.131,analogCatScenes,2020.1.3,MacIntel,60,"[1440,900]","[[[0.0074826388888888885,-0.1983029513888889],[0.0074826388888888885,-0.1983029513888889],[0.0074826388888888885,-0.19770833333333335],[0.008138020833333334,-0.18324652777777778],[0.006536458333333333,-0.11972222222222222],[0.013949652777777778,-0.07760416666666667],[0.02375434027777778,-0.034895833333333334],[0.028706597222222224,-0.005221354166666667],[0.03756944444444445,0.04567708333333333],[0.04088107638888889,0.0648611111111111],[0.04332465277777778,0.08628038194444444],[0.04290364583333333,0.11779079861111111],[0.03996961805555556,0.12997395833333333],[0.03730902777777778,0.13874565972222222],[0.03666666666666667,0.14262586805555555],[0.03738715277777778,0.14362847222222222],[0.037747395833333336,0.14399305555555555]]]",1,[17],,,,,,,,,,,,,,hospitalroom2.jpg,space,4.0844,0,88,88,67,1,library_aisle3.jpg,park7.jpg,laundromat4.jpg,liquorstore2.jpg,,
Image_List_5,,,,,,,,,,,,,,,,46518,2022-02-06_14h03.48.131,analogCatScenes,2020.1.3,MacIntel,60,"[1440,900]",[],0,[],,,,,,,,,,,,,,apartmentBuilding3.jpg,space,0.155,0,89,89,6,1,ATM1.jpg,banquetHall2.jpg,auto_showroom5.jpg,baggageClaim1.jpg,,
Image_List_5,,,,,,,,,,,,,,,,46518,2022-02-06_14h03.48.131,analogCatScenes,2020.1.3,MacIntel,60,"[1440,900]","[[[-0.0003515625,-0.19984809027777778],[-0.0003515625,-0.19984809027777778],[-0.0003515625,-0.19984809027777778],[-0.0003515625,-0.19957465277777778],[0.00034722222222222224,-0.19629774305555556],[0.0007552083333333333,-0.1848394097222222],[-0.0008854166666666666,-0.1733376736111111],[0.0013151041666666667,-0.09190972222222223],[0.009053819444444444,-0.020256076388888888],[0.010859375,-0.0009765625],[0.012191840277777777,0.014756944444444444],[0.015494791666666667,0.029166666666666667],[0.015855034722222223,0.03508680555555556],[0.016171875,0.04274739583333333],[0.016171875,0.043615451388888886],[0.016171875,0.043615451388888886],[0.016171875,0.04334635416666666]]]",1,[17],,,,,,,,,,,,,,lookout4.jpg,space,1.4768,0,90,90,76,1,parkinggarage.jpg,playroom4.jpg,parkinggarage3.jpg,park2.jpg,,
Image_List_5,,,,,,,,,,,,,,,,46518,2022-02-06_14h03.48.131,analogCatScenes,2020.1.3,MacIntel,60,"[1440,900]","[[[-0.001796875,-0.20869357638888889],[-0.001796875,-0.20869357638888889],[-0.001796875,-0.20869357638888889],[0.005512152777777778,-0.15571180555555555],[0.013029513888888889,-0.12756944444444446],[0.017100694444444446,-0.1102951388888889],[0.018072916666666668,-0.10490885416666666],[0.019088541666666667,-0.09989583333333334],[0.018697916666666668,-0.08830729166666666],[0.017534722222222222,-0.07162326388888889],[0.018098958333333335,-0.06569444444444444]]]",1,[11],,,,,,,,,,,,,,elevatorOutside2.jpg,space,1.7487,0,91,91,47,1,frontDoor.jpg,gasstation8.jpg,firestation4.jpg,fountain7.jpg,,
Image_List_5,,,,,,,,,,,,,,,,46518,2022-02-06_14h03.48.131,analogCatScenes,2020.1.3,MacIntel,60,"[1440,900]","[[[0.010073784722222222,-0.2064453125],[0.010073784722222222,-0.2064453125],[0.009774305555555555,-0.20557725694444445],[0.009774305555555555,-0.1973046875],[0.010633680555555556,-0.1857595486111111],[0.014622395833333333,-0.1573394097222222],[0.017586805555555557,-0.13260416666666666],[0.01855902777777778,-0.11755642361111111],[0.025160590277777777,-0.07484375],[0.026901041666666667,-0.0498828125],[0.0273046875,-0.03697482638888889],[0.02636284722222222,-0.03250434027777778],[0.02636284722222222,-0.03250434027777778],[0.02636284722222222,-0.03250434027777778],[0.02636284722222222,-0.03250434027777778]]]",1,[15],,,,,,,,,,,,,,bistrooutdoor6.jpg,space,1.4869,0,92,92,22,1,bowlingalley5.jpg,church6.jpg,cargo5.jpg,cemetery.jpg,,
Image_List_5,,,,,,,,,,,,,,,,46518,2022-02-06_14h03.48.131,analogCatScenes,2020.1.3,MacIntel,60,"[1440,900]","[[[-0.0011588541666666668,-0.19208767361111112],[-0.0022135416666666666,-0.1837065972222222],[-0.004175347222222223,-0.14378472222222222],[-0.014279513888888888,-0.05783854166666667],[-0.016514756944444445,-0.01576388888888889],[-0.0155859375,-0.0010373263888888888],[-0.016744791666666668,0.010052083333333333],[-0.017109375,0.016506076388888888],[-0.017109375,0.023198784722222223],[-0.017109375,0.023745659722222222],[-0.017109375,0.024019097222222223],[-0.0173828125,0.025434027777777778]]]",1,[12],,,,,,,,,,,,,,barbershop2.jpg,space,1.9233,0,93,93,16,1,basement.jpg,cafeteria6.jpg,breakroom2.jpg,campusquad4.jpg,,
Image_List_5,,,,,,,,,,,,,,,,46518,2022-02-06_14h03.48.131,analogCatScenes,2020.1.3,MacIntel,60,"[1440,900]","[[[0.007643229166666667,-0.20266927083333333],[0.0040581597222222225,-0.19133680555555554],[0.004683159722222222,-0.15745225694444445],[0.006493055555555556,-0.13234809027777777],[0.008020833333333333,-0.12125868055555555],[0.007586805555555556,-0.10630208333333334],[0.006401909722222222,-0.09111979166666667],[0.0054600694444444445,-0.08395399305555555],[0.0051171875,-0.07803385416666667],[0.005091145833333333,-0.07373697916666666],[0.005998263888888889,-0.06944010416666667],[0.006293402777777778,-0.06857204861111112],[0.006293402777777778,-0.06857204861111112],[0.006293402777777778,-0.06857204861111112],[0.006293402777777778,-0.06884114583333334]]]",1,[15],,,,,,,,,,,,,,baseball6.jpg,space,1.7043,0,94,94,17,1,bikerack1.jpg,campsite6.jpg,breakroom4.jpg,carmechanic.jpg,,
Image_List_5,,,,,,,,,,,,,,,,46518,2022-02-06_14h03.48.131,analogCatScenes,2020.1.3,MacIntel,60,"[1440,900]","[[[0.008168402777777778,-0.19451388888888888],[0.007868923611111111,-0.19337239583333332],[0.007595486111111111,-0.19255208333333335],[0.007595486111111111,-0.1896875],[0.009427083333333334,-0.17777777777777778],[0.014097222222222223,-0.14717447916666668],[0.023133680555555557,-0.11674045138888889],[0.029253472222222222,-0.0955078125],[0.03309461805555555,-0.08391927083333334],[0.03505642361111111,-0.07178385416666666],[0.0353515625,-0.06730902777777778],[0.03591579861111111,-0.06497829861111111],[0.038420138888888886,-0.052335069444444444],[0.0395703125,-0.045881076388888886],[0.0395703125,-0.040998263888888886],[0.0395703125,-0.038346354166666666],[0.0395703125,-0.0332421875],[0.039184027777777776,-0.02592013888888889],[0.03990451388888889,-0.01773003472222222],[0.04022135416666667,-0.015581597222222222],[0.04022135416666667,-0.015581597222222222],[0.04022135416666667,-0.015850694444444445],[0.04022135416666667,-0.015850694444444445],[0.04022135416666667,-0.016119791666666668],[0.04022135416666667,-0.016119791666666668],[0.04022135416666667,-0.016119791666666668],[0.04022135416666667,-0.016119791666666668],[0.04022135416666667,-0.016119791666666668],[0.04022135416666667,-0.016119791666666668]]]",1,[29],,,,,,,,,,,,,,shoestore4.jpg,space,2.0942,0,95,95,90,1,savanna5.jpg,trainStation1.jpg,sidewalk1.jpg,stripmall3.jpg,,
Image_List_5,,,,,,,,,,,,,,,,46518,2022-02-06_14h03.48.131,analogCatScenes,2020.1.3,MacIntel,60,"[1440,900]","[[[0.004830729166666666,-0.20078125],[0.004830729166666666,-0.20078125],[0.004830729166666666,-0.20078125],[0.005099826388888889,-0.2005078125],[0.025772569444444445,-0.1885894097222222],[0.07164930555555556,-0.16448350694444444],[0.09107204861111111,-0.14781684027777778],[0.10632378472222222,-0.13178819444444445],[0.10927083333333333,-0.12745659722222222],[0.11069444444444444,-0.1257204861111111],[0.11069444444444444,-0.1257204861111111],[0.11069444444444444,-0.1257204861111111],[0.11069444444444444,-0.1257204861111111],[0.11069444444444444,-0.1257204861111111],[0.11069444444444444,-0.1257204861111111]]]",1,[15],,,,,,,,,,,,,,farm2.jpg,space,1.6568,0,96,96,49,1,frontDoor3.jpg,greenhouse5.jpg,flowershop3.jpg,greenhouse.jpg,,
