image_list,key_resp_intructions.keys,key_resp_intructions.rt,key_resp_intructions_3.keys,key_resp_intructions_3.rt,PracticeComplete_2.keys,PracticeComplete_2.rt,PracticeComplete_3.keys,PracticeComplete_3.rt,demo_trials.thisRepN,demo_trials.thisTrialN,demo_trials.thisN,demo_trials.thisIndex,demo_trials.ran,demo_images,path_images,participant,date,expName,psychopyVersion,OS,frameRate,windowSize,drawing,numDrawings,drawingSizes,practice_complete.keys,practice_complete.rt,PracticeComplete.keys,PracticeComplete.rt,practice_trials.thisRepN,practice_trials.thisTrialN,practice_trials.thisN,practice_trials.thisIndex,practice_trials.ran,practice_images,feedback_images,key_resp_intructions_2.keys,key_resp_intructions_2.rt,Image_List_4,trial_complete.keys,trial_complete.rt,trials.thisRepN,trials.thisTrialN,trials.thisN,trials.thisIndex,trials.ran,Image_List_1,Image_List_2,Image_List_3,Image_List_5,key_resp.keys,key_resp.rt
Image_List_4,space,6.299,space,5.8171,space,5.6801,space,3.1945,0,0,0,4,1,left.jpg,left_path.jpg,46546,2022-03-01_20h03.42.126,analogCatScenes,2020.1.3,Win32,60,,,,,,,,,,,,,,,,,,,,,,,,,,,,,,,
Image_List_4,,,,,space,2.0723,space,0.7449,0,1,1,0,1,ahead.jpg,ahead_path.jpg,46546,2022-03-01_20h03.42.126,analogCatScenes,2020.1.3,Win32,60,,,,,,,,,,,,,,,,,,,,,,,,,,,,,,,
Image_List_4,,,,,space,2.2687,space,0.9812,0,2,2,6,1,right_left.jpg,right_left_path.jpg,46546,2022-03-01_20h03.42.126,analogCatScenes,2020.1.3,Win32,60,,,,,,,,,,,,,,,,,,,,,,,,,,,,,,,
Image_List_4,,,,,space,0.7657,space,0.6483,0,3,3,1,1,ahead_left.jpg,ahead_left_path.jpg,46546,2022-03-01_20h03.42.126,analogCatScenes,2020.1.3,Win32,60,,,,,,,,,,,,,,,,,,,,,,,,,,,,,,,
Image_List_4,,,,,space,0.7878,space,2.7328,0,4,4,3,1,ahead_right_left.jpg,ahead_right_left_path.jpg,46546,2022-03-01_20h03.42.126,analogCatScenes,2020.1.3,Win32,60,,,,,,,,,,,,,,,,,,,,,,,,,,,,,,,
Image_List_4,,,,,space,1.2963,space,1.6055,0,5,5,2,1,ahead_right.jpg,ahead_right_path.jpg,46546,2022-03-01_20h03.42.126,analogCatScenes,2020.1.3,Win32,60,,,,,,,,,,,,,,,,,,,,,,,,,,,,,,,
Image_List_4,,,,,space,0.6103,space,0.3687,0,6,6,5,1,right.jpg,right_path.jpg,46546,2022-03-01_20h03.42.126,analogCatScenes,2020.1.3,Win32,60,,,,,,,,,,,,,,,,,,,,,,,,,,,,,,,
Image_List_4,,,,,,,,,,,,,,,,46546,2022-03-01_20h03.42.126,analogCatScenes,2020.1.3,Win32,60,"[1366,768]",[],0,[],space,0.9591,space,2.2784,0,0,0,3,1,ahead_right_left_2.jpg,ahead_right_left_2_path.jpg,,,,,,,,,,,,,,,,
Image_List_4,,,,,,,,,,,,,,,,46546,2022-03-01_20h03.42.126,analogCatScenes,2020.1.3,Win32,60,"[1366,768]",[],0,[],space,1.1114,space,1.0647,0,1,1,6,1,right_left_2.jpg,right_left_2_path.jpg,,,,,,,,,,,,,,,,
Image_List_4,,,,,,,,,,,,,,,,46546,2022-03-01_20h03.42.126,analogCatScenes,2020.1.3,Win32,60,"[1366,768]","[[[-0.00390625,-0.19270833333333334],[-0.00390625,-0.18880208333333334],[-0.00390625,-0.18229166666666666],[-0.00390625,-0.17578125],[-0.005208333333333333,-0.16927083333333334],[-0.005208333333333333,-0.1640625],[-0.0078125,-0.15234375],[-0.0078125,-0.14453125],[-0.0078125,-0.13411458333333334],[-0.0078125,-0.125],[-0.0078125,-0.11848958333333333],[-0.0078125,-0.1015625],[-0.006510416666666667,-0.0859375],[-0.006510416666666667,-0.078125],[-0.006510416666666667,-0.07161458333333333],[-0.005208333333333333,-0.059895833333333336],[-0.005208333333333333,-0.045572916666666664],[-0.00390625,-0.036458333333333336],[-0.0026041666666666665,-0.028645833333333332],[-0.0013020833333333333,-0.022135416666666668],[-0.0013020833333333333,-0.015625],[0,-0.0078125],[0.0013020833333333333,0.0026041666666666665],[0.0026041666666666665,0.010416666666666666],[0.00390625,0.018229166666666668],[0.00390625,0.02734375],[0.00390625,0.032552083333333336],[0.005208333333333333,0.037760416666666664],[0.005208333333333333,0.04296875],[0.005208333333333333,0.05078125],[0.005208333333333333,0.0546875],[0.005208333333333333,0.05859375],[0.006510416666666667,0.06510416666666667],[0.006510416666666667,0.06770833333333333],[0.006510416666666667,0.0703125],[0.006510416666666667,0.07552083333333333],[0.0078125,0.07942708333333333],[0.009114583333333334,0.08333333333333333],[0.009114583333333334,0.08854166666666667],[0.010416666666666666,0.09375],[0.01171875,0.09895833333333333],[0.013020833333333334,0.10807291666666667],[0.016927083333333332,0.11848958333333333],[0.016927083333333332,0.12239583333333333],[0.018229166666666668,0.12760416666666666],[0.01953125,0.13151041666666666],[0.01953125,0.1328125],[0.01953125,0.13411458333333334],[0.01953125,0.13671875],[0.01953125,0.13802083333333334],[0.020833333333333332,0.13802083333333334],[0.020833333333333332,0.14192708333333334],[0.020833333333333332,0.1484375],[0.022135416666666668,0.15494791666666666],[0.022135416666666668,0.15755208333333334],[0.022135416666666668,0.15755208333333334],[0.022135416666666668,0.15755208333333334],[0.022135416666666668,0.15755208333333334]]]",1,[58],space,15.7232,space,2.4141,0,2,2,0,1,ahead_2.jpg,ahead_2_path.jpg,,,,,,,,,,,,,,,,
Image_List_4,,,,,,,,,,,,,,,,46546,2022-03-01_20h03.42.126,analogCatScenes,2020.1.3,Win32,60,"[1366,768]","[[[0.00390625,-0.20052083333333334],[0.00390625,-0.20052083333333334],[0.00390625,-0.20052083333333334],[0.005208333333333333,-0.1953125],[0.014322916666666666,-0.18619791666666666],[0.024739583333333332,-0.17708333333333334],[0.029947916666666668,-0.171875],[0.0390625,-0.16536458333333334],[0.046875,-0.15885416666666666],[0.0546875,-0.15364583333333334],[0.06640625,-0.14453125],[0.08072916666666667,-0.13671875],[0.08854166666666667,-0.13151041666666666],[0.09635416666666667,-0.12760416666666666],[0.10677083333333333,-0.12369791666666667],[0.12109375,-0.11979166666666667],[0.13802083333333334,-0.11458333333333333],[0.14973958333333334,-0.11067708333333333],[0.16536458333333334,-0.109375],[0.18489583333333334,-0.10807291666666667],[0.20703125,-0.10677083333333333],[0.22786458333333334,-0.10677083333333333],[0.23697916666666666,-0.10677083333333333],[0.24609375,-0.10677083333333333],[0.2513020833333333,-0.10677083333333333],[0.2513020833333333,-0.10677083333333333],[0.2513020833333333,-0.10677083333333333],[0.2513020833333333,-0.10677083333333333]],[[0.005208333333333333,-0.20182291666666666],[0.005208333333333333,-0.19921875],[0.005208333333333333,-0.19270833333333334],[0.005208333333333333,-0.18619791666666666],[0.005208333333333333,-0.17447916666666666],[0.005208333333333333,-0.15104166666666666],[0.00390625,-0.13671875],[0.0026041666666666665,-0.12630208333333334],[0.0013020833333333333,-0.11197916666666667],[0.0013020833333333333,-0.10286458333333333],[0,-0.08984375],[-0.0013020833333333333,-0.078125],[-0.0026041666666666665,-0.0625],[-0.00390625,-0.049479166666666664],[-0.005208333333333333,-0.032552083333333336],[-0.005208333333333333,-0.022135416666666668],[-0.005208333333333333,-0.014322916666666666],[-0.005208333333333333,-0.006510416666666667],[-0.005208333333333333,0.00390625],[-0.005208333333333333,0.014322916666666666],[-0.006510416666666667,0.024739583333333332],[-0.006510416666666667,0.033854166666666664],[-0.0078125,0.0390625],[-0.010416666666666666,0.045572916666666664],[-0.010416666666666666,0.048177083333333336],[-0.01171875,0.05078125],[-0.01171875,0.0546875],[-0.013020833333333334,0.05859375],[-0.015625,0.061197916666666664],[-0.016927083333333332,0.06380208333333333],[-0.018229166666666668,0.06510416666666667],[-0.018229166666666668,0.06640625],[-0.018229166666666668,0.06901041666666667],[-0.01953125,0.06901041666666667],[-0.020833333333333332,0.0703125],[-0.020833333333333332,0.07161458333333333],[-0.020833333333333332,0.07161458333333333],[-0.020833333333333332,0.07161458333333333],[-0.020833333333333332,0.07161458333333333],[-0.020833333333333332,0.07161458333333333],[-0.020833333333333332,0.07161458333333333]]]",2,"[28,41]",space,5.0172,space,1.03,0,3,3,2,1,ahead_right_2.jpg,ahead_right_2_path.jpg,,,,,,,,,,,,,,,,
Image_List_4,,,,,,,,,,,,,,,,46546,2022-03-01_20h03.42.126,analogCatScenes,2020.1.3,Win32,60,"[1366,768]","[[[0.0078125,-0.19401041666666666],[0.01953125,-0.18229166666666666],[0.036458333333333336,-0.1640625],[0.044270833333333336,-0.15755208333333334],[0.053385416666666664,-0.14973958333333334],[0.06901041666666667,-0.13932291666666666],[0.08072916666666667,-0.12760416666666666],[0.09765625,-0.11328125],[0.11197916666666667,-0.1015625],[0.12760416666666666,-0.08723958333333333],[0.14453125,-0.078125],[0.15625,-0.06770833333333333],[0.17317708333333334,-0.053385416666666664],[0.1875,-0.044270833333333336],[0.19661458333333334,-0.0390625],[0.20442708333333334,-0.03515625],[0.21744791666666666,-0.028645833333333332],[0.2265625,-0.0234375],[0.23046875,-0.020833333333333332],[0.23828125,-0.018229166666666668],[0.24348958333333334,-0.015625],[0.24739583333333334,-0.013020833333333334],[0.2513020833333333,-0.01171875],[0.2526041666666667,-0.010416666666666666],[0.2526041666666667,-0.010416666666666666],[0.2526041666666667,-0.010416666666666666],[0.2526041666666667,-0.010416666666666666],[0.2526041666666667,-0.010416666666666666]]]",1,[28],space,4.1016,space,1.5169,0,4,4,5,1,right_2.jpg,right_2_path.jpg,,,,,,,,,,,,,,,,
Image_List_4,,,,,,,,,,,,,,,,46546,2022-03-01_20h03.42.126,analogCatScenes,2020.1.3,Win32,60,"[1366,768]","[[[0.0078125,-0.20052083333333334],[0.0078125,-0.20052083333333334],[0.0078125,-0.20052083333333334],[0.016927083333333332,-0.1875],[0.033854166666666664,-0.16015625],[0.05078125,-0.13541666666666666],[0.055989583333333336,-0.12630208333333334],[0.0625,-0.11197916666666667],[0.06770833333333333,-0.10026041666666667],[0.07552083333333333,-0.07682291666666667],[0.07682291666666667,-0.06380208333333333],[0.07682291666666667,-0.05078125],[0.078125,-0.041666666666666664],[0.08072916666666667,-0.029947916666666668],[0.08203125,-0.016927083333333332],[0.08463541666666667,-0.0026041666666666665],[0.08854166666666667,0.016927083333333332],[0.09375,0.041666666666666664],[0.09635416666666667,0.057291666666666664],[0.09895833333333333,0.07421875],[0.09895833333333333,0.09244791666666667],[0.1015625,0.10807291666666667],[0.1015625,0.11328125],[0.1015625,0.11979166666666667],[0.10026041666666667,0.12760416666666666],[0.09895833333333333,0.1328125],[0.09635416666666667,0.14192708333333334],[0.09375,0.14713541666666666],[0.09244791666666667,0.15364583333333334],[0.08984375,0.16536458333333334],[0.0859375,0.171875],[0.08333333333333333,0.17708333333333334],[0.08203125,0.18098958333333334],[0.08072916666666667,0.18359375],[0.07942708333333333,0.18359375],[0.07942708333333333,0.18359375],[0.07942708333333333,0.18359375],[0.07942708333333333,0.18359375],[0.07942708333333333,0.18359375],[0.07942708333333333,0.18359375],[0.07942708333333333,0.18359375],[0.07942708333333333,0.18359375],[0.07942708333333333,0.18359375]]]",1,[43],space,4.0843,space,1.6978,0,5,5,1,1,ahead_left_2.jpg,ahead_left_2_path.jpg,,,,,,,,,,,,,,,,
Image_List_4,,,,,,,,,,,,,,,,46546,2022-03-01_20h03.42.126,analogCatScenes,2020.1.3,Win32,60,"[1366,768]","[[[0,-0.19140625],[0,-0.18619791666666666],[0,-0.17578125],[-0.0013020833333333333,-0.16666666666666666],[-0.0026041666666666665,-0.15494791666666666],[-0.0026041666666666665,-0.1484375],[-0.005208333333333333,-0.14192708333333334],[-0.006510416666666667,-0.13020833333333334],[-0.0078125,-0.12239583333333333],[-0.010416666666666666,-0.11848958333333333],[-0.010416666666666666,-0.11328125],[-0.01171875,-0.10807291666666667],[-0.015625,-0.10026041666666667],[-0.01953125,-0.09505208333333333],[-0.0234375,-0.08463541666666667],[-0.02734375,-0.07682291666666667],[-0.032552083333333336,-0.06770833333333333],[-0.0390625,-0.0546875],[-0.046875,-0.040364583333333336],[-0.05078125,-0.032552083333333336],[-0.055989583333333336,-0.024739583333333332],[-0.06380208333333333,-0.015625],[-0.06901041666666667,-0.009114583333333334],[-0.07291666666666667,-0.0013020833333333333],[-0.078125,0.005208333333333333],[-0.08333333333333333,0.014322916666666666],[-0.09244791666666667,0.022135416666666668],[-0.09505208333333333,0.026041666666666668],[-0.10026041666666667,0.029947916666666668],[-0.11067708333333333,0.0390625],[-0.12239583333333333,0.048177083333333336],[-0.12890625,0.0546875],[-0.13411458333333334,0.05859375],[-0.13932291666666666,0.0625],[-0.14583333333333334,0.06770833333333333],[-0.15625,0.07291666666666667],[-0.16666666666666666,0.07682291666666667],[-0.17578125,0.08072916666666667],[-0.18098958333333334,0.08333333333333333],[-0.1875,0.0859375],[-0.19921875,0.08984375],[-0.20442708333333334,0.09244791666666667],[-0.2109375,0.09765625],[-0.21484375,0.10026041666666667],[-0.22265625,0.10546875],[-0.2265625,0.10807291666666667],[-0.23046875,0.109375],[-0.234375,0.11067708333333333],[-0.23697916666666666,0.11197916666666667],[-0.23828125,0.11328125],[-0.23958333333333334,0.11328125],[-0.2421875,0.11328125],[-0.24479166666666666,0.11328125],[-0.24479166666666666,0.11328125],[-0.24479166666666666,0.11328125],[-0.24479166666666666,0.11328125]]]",1,[56],space,5.9177,space,0.4631,0,6,6,4,1,left_2.jpg,left_2_path.jpg,,,,,,,,,,,,,,,,
Image_List_4,,,,,,,,,,,,,,,,46546,2022-03-01_20h03.42.126,analogCatScenes,2020.1.3,Win32,60,"[1366,768]","[[[0.005208333333333333,-0.19791666666666666],[0.00390625,-0.19661458333333334],[0.0026041666666666665,-0.19270833333333334],[-0.0013020833333333333,-0.18229166666666666],[-0.00390625,-0.17578125],[-0.006510416666666667,-0.17057291666666666],[-0.0078125,-0.16145833333333334],[-0.010416666666666666,-0.15364583333333334],[-0.01171875,-0.14713541666666666],[-0.013020833333333334,-0.14322916666666666],[-0.014322916666666666,-0.13671875],[-0.015625,-0.13020833333333334],[-0.018229166666666668,-0.12369791666666667],[-0.022135416666666668,-0.11458333333333333],[-0.026041666666666668,-0.10416666666666667],[-0.02734375,-0.09375],[-0.029947916666666668,-0.0859375],[-0.03125,-0.078125],[-0.032552083333333336,-0.06640625],[-0.032552083333333336,-0.055989583333333336],[-0.033854166666666664,-0.05078125],[-0.036458333333333336,-0.044270833333333336],[-0.036458333333333336,-0.04296875],[-0.036458333333333336,-0.040364583333333336],[-0.036458333333333336,-0.040364583333333336],[-0.036458333333333336,-0.040364583333333336],[-0.036458333333333336,-0.040364583333333336]],[[0,-0.1953125],[0,-0.1953125],[-0.005208333333333333,-0.19140625],[-0.01171875,-0.1875],[-0.018229166666666668,-0.18489583333333334],[-0.026041666666666668,-0.1796875],[-0.033854166666666664,-0.17578125],[-0.046875,-0.17317708333333334],[-0.06380208333333333,-0.17057291666666666],[-0.08072916666666667,-0.16927083333333334],[-0.09505208333333333,-0.16927083333333334],[-0.10416666666666667,-0.16927083333333334],[-0.11979166666666667,-0.16927083333333334],[-0.12890625,-0.16927083333333334],[-0.13802083333333334,-0.16796875],[-0.1484375,-0.16796875],[-0.16536458333333334,-0.16796875],[-0.18229166666666666,-0.16796875],[-0.19661458333333334,-0.16666666666666666],[-0.203125,-0.16666666666666666],[-0.2109375,-0.16666666666666666],[-0.21875,-0.16536458333333334],[-0.22526041666666666,-0.1640625],[-0.23177083333333334,-0.1640625],[-0.2421875,-0.16145833333333334],[-0.24869791666666666,-0.16145833333333334],[-0.2526041666666667,-0.15885416666666666],[-0.2578125,-0.15885416666666666],[-0.2630208333333333,-0.15755208333333334],[-0.265625,-0.15755208333333334],[-0.265625,-0.15755208333333334],[-0.265625,-0.15755208333333334],[-0.265625,-0.15755208333333334],[-0.265625,-0.15755208333333334]]]",2,"[27,34]",,,,,,,,,,,,space,3.2784,homegarage4.jpg,space,5.8168,0,0,0,54,1,greenhouse2.jpg,horsebarn11.jpg,gazebo2.jpg,frontFoyer.jpg,,
Image_List_4,,,,,,,,,,,,,,,,46546,2022-03-01_20h03.42.126,analogCatScenes,2020.1.3,Win32,60,"[1366,768]","[[[-0.0026041666666666665,-0.20182291666666666],[-0.0026041666666666665,-0.20182291666666666],[0.0013020833333333333,-0.19921875],[0.0078125,-0.19401041666666666],[0.01171875,-0.18880208333333334],[0.020833333333333332,-0.18489583333333334],[0.03125,-0.17838541666666666],[0.052083333333333336,-0.16796875],[0.0703125,-0.16145833333333334],[0.09895833333333333,-0.15364583333333334],[0.11588541666666667,-0.1484375],[0.13020833333333334,-0.14453125],[0.14973958333333334,-0.13932291666666666],[0.16145833333333334,-0.13541666666666666],[0.17057291666666666,-0.13411458333333334],[0.19010416666666666,-0.1328125],[0.21354166666666666,-0.13151041666666666],[0.22395833333333334,-0.13151041666666666],[0.23307291666666666,-0.13151041666666666],[0.23828125,-0.13020833333333334],[0.24348958333333334,-0.13020833333333334],[0.24869791666666666,-0.13020833333333334],[0.25390625,-0.13020833333333334],[0.2591145833333333,-0.13020833333333334],[0.2630208333333333,-0.13020833333333334],[0.265625,-0.13020833333333334],[0.26953125,-0.13020833333333334],[0.2721354166666667,-0.13020833333333334],[0.2760416666666667,-0.13020833333333334],[0.2786458333333333,-0.13151041666666666],[0.2786458333333333,-0.13151041666666666],[0.2786458333333333,-0.13151041666666666],[0.2786458333333333,-0.13151041666666666],[0.2786458333333333,-0.13151041666666666]],[[-0.0078125,-0.19791666666666666],[-0.005208333333333333,-0.19661458333333334],[-0.00390625,-0.19140625],[-0.0013020833333333333,-0.18619791666666666],[0.0013020833333333333,-0.18229166666666666],[0.0013020833333333333,-0.17578125],[0.0013020833333333333,-0.17057291666666666],[0.00390625,-0.16145833333333334],[0.006510416666666667,-0.14973958333333334],[0.009114583333333334,-0.13802083333333334],[0.013020833333333334,-0.12369791666666667],[0.015625,-0.10807291666666667],[0.016927083333333332,-0.09895833333333333],[0.018229166666666668,-0.09244791666666667],[0.01953125,-0.08723958333333333],[0.020833333333333332,-0.08072916666666667],[0.022135416666666668,-0.07552083333333333],[0.0234375,-0.06901041666666667],[0.0234375,-0.0625],[0.0234375,-0.05859375],[0.0234375,-0.053385416666666664],[0.0234375,-0.05078125],[0.022135416666666668,-0.046875],[0.022135416666666668,-0.045572916666666664],[0.022135416666666668,-0.045572916666666664],[0.022135416666666668,-0.045572916666666664],[0.022135416666666668,-0.045572916666666664],[0.022135416666666668,-0.045572916666666664],[0.022135416666666668,-0.045572916666666664],[0.022135416666666668,-0.045572916666666664],[0.022135416666666668,-0.045572916666666664]]]",2,"[34,31]",,,,,,,,,,,,,,operatingroom1.jpg,space,6.7367,0,1,1,74,1,newsstand2.jpg,playground10.jpg,observatory4.jpeg,lightingstore2.jpg,,
Image_List_4,,,,,,,,,,,,,,,,46546,2022-03-01_20h03.42.126,analogCatScenes,2020.1.3,Win32,60,"[1366,768]","[[[0.0026041666666666665,-0.19401041666666666],[0.0026041666666666665,-0.19401041666666666],[0.0026041666666666665,-0.19401041666666666],[0.0026041666666666665,-0.19401041666666666],[0.00390625,-0.19401041666666666],[0.006510416666666667,-0.19140625],[0.01171875,-0.18880208333333334],[0.01953125,-0.18619791666666666],[0.03125,-0.18489583333333334],[0.040364583333333336,-0.18359375],[0.05078125,-0.18098958333333334],[0.053385416666666664,-0.1796875],[0.055989583333333336,-0.1796875],[0.059895833333333336,-0.17708333333333334],[0.06380208333333333,-0.17578125],[0.0703125,-0.17317708333333334],[0.078125,-0.16927083333333334],[0.08984375,-0.16536458333333334],[0.10026041666666667,-0.16145833333333334],[0.109375,-0.15885416666666666],[0.11588541666666667,-0.15625],[0.12369791666666667,-0.15234375],[0.12890625,-0.15104166666666666],[0.13671875,-0.14713541666666666],[0.14322916666666666,-0.14322916666666666],[0.14713541666666666,-0.14192708333333334],[0.15104166666666666,-0.140625],[0.15755208333333334,-0.13671875],[0.16536458333333334,-0.13411458333333334],[0.17317708333333334,-0.13020833333333334],[0.17708333333333334,-0.12890625],[0.1796875,-0.12630208333333334],[0.1875,-0.12369791666666667],[0.1953125,-0.11979166666666667],[0.19921875,-0.11848958333333333],[0.20442708333333334,-0.11458333333333333],[0.20572916666666666,-0.11328125],[0.21223958333333334,-0.109375],[0.21744791666666666,-0.10677083333333333],[0.22135416666666666,-0.10546875],[0.22395833333333334,-0.10286458333333333],[0.2265625,-0.1015625],[0.22916666666666666,-0.10026041666666667],[0.23046875,-0.10026041666666667],[0.23046875,-0.10026041666666667],[0.23046875,-0.09895833333333333],[0.23177083333333334,-0.09895833333333333],[0.23307291666666666,-0.09765625],[0.23307291666666666,-0.09765625],[0.23307291666666666,-0.09765625],[0.23307291666666666,-0.09765625],[0.23307291666666666,-0.09765625],[0.23307291666666666,-0.09765625],[0.23307291666666666,-0.09765625],[0.23307291666666666,-0.09765625],[0.23307291666666666,-0.09765625],[0.23307291666666666,-0.09765625],[0.23307291666666666,-0.09765625]]]",1,[58],,,,,,,,,,,,,,clothingstore5.jpg,space,5.5297,0,2,2,28,1,churchInside1.jpg,dancestudio5.jpg,citystreet10.jpg,bridalboutique2.jpg,,
Image_List_4,,,,,,,,,,,,,,,,46546,2022-03-01_20h03.42.126,analogCatScenes,2020.1.3,Win32,60,"[1366,768]","[[[0.010416666666666666,-0.20703125],[0.010416666666666666,-0.20703125],[0.01171875,-0.20703125],[0.01953125,-0.203125],[0.03125,-0.20052083333333334],[0.048177083333333336,-0.1953125],[0.07161458333333333,-0.19010416666666666],[0.08723958333333333,-0.1875],[0.09895833333333333,-0.18489583333333334],[0.11458333333333333,-0.1796875],[0.13411458333333334,-0.17447916666666666],[0.1484375,-0.16536458333333334],[0.15625,-0.15885416666666666],[0.1640625,-0.15364583333333334],[0.17447916666666666,-0.14713541666666666],[0.17838541666666666,-0.14453125],[0.18359375,-0.140625],[0.18880208333333334,-0.13541666666666666],[0.19791666666666666,-0.12760416666666666],[0.20572916666666666,-0.12109375],[0.2109375,-0.1171875],[0.21744791666666666,-0.11197916666666667],[0.22395833333333334,-0.10677083333333333],[0.23567708333333334,-0.09895833333333333],[0.24088541666666666,-0.09505208333333333],[0.24739583333333334,-0.08984375],[0.2513020833333333,-0.08723958333333333],[0.25390625,-0.08463541666666667],[0.2565104166666667,-0.08203125],[0.2578125,-0.08203125],[0.2591145833333333,-0.08072916666666667],[0.2591145833333333,-0.08072916666666667],[0.2591145833333333,-0.08072916666666667]],[[0,-0.1953125],[0,-0.1953125],[0,-0.1953125],[0,-0.1953125],[-0.0026041666666666665,-0.19401041666666666],[-0.010416666666666666,-0.18619791666666666],[-0.022135416666666668,-0.17708333333333334],[-0.029947916666666668,-0.16796875],[-0.03515625,-0.15625],[-0.0390625,-0.13671875],[-0.041666666666666664,-0.125],[-0.04296875,-0.11067708333333333],[-0.04296875,-0.09244791666666667],[-0.040364583333333336,-0.07552083333333333],[-0.03515625,-0.061197916666666664],[-0.026041666666666668,-0.04296875],[-0.014322916666666666,-0.024739583333333332],[-0.0078125,-0.016927083333333332],[0,-0.009114583333333334],[0.009114583333333334,0.0026041666666666665],[0.015625,0.010416666666666666],[0.022135416666666668,0.016927083333333332],[0.02734375,0.0234375],[0.032552083333333336,0.028645833333333332],[0.03515625,0.032552083333333336],[0.03515625,0.032552083333333336],[0.03515625,0.032552083333333336],[0.03515625,0.032552083333333336],[0.03515625,0.032552083333333336],[0.03515625,0.032552083333333336],[0.03515625,0.032552083333333336]]]",2,"[33,31]",,,,,,,,,,,,,,dentist4.jpg,space,5.5219,0,3,3,32,1,dancestudio6.jpg,diner12.jpg,constructionSite2.jpg,cabin4.jpg,,
Image_List_4,,,,,,,,,,,,,,,,46546,2022-03-01_20h03.42.126,analogCatScenes,2020.1.3,Win32,60,"[1366,768]","[[[-0.0026041666666666665,-0.19661458333333334],[-0.0026041666666666665,-0.19661458333333334],[-0.0026041666666666665,-0.1953125],[0.006510416666666667,-0.19270833333333334],[0.016927083333333332,-0.18880208333333334],[0.032552083333333336,-0.18489583333333334],[0.041666666666666664,-0.18359375],[0.053385416666666664,-0.17838541666666666],[0.0703125,-0.17317708333333334],[0.08072916666666667,-0.17057291666666666],[0.09114583333333333,-0.16796875],[0.10546875,-0.16276041666666666],[0.11197916666666667,-0.15885416666666666],[0.12109375,-0.15234375],[0.13802083333333334,-0.14322916666666666],[0.14583333333333334,-0.13932291666666666],[0.15755208333333334,-0.13411458333333334],[0.1640625,-0.13020833333333334],[0.17708333333333334,-0.12630208333333334],[0.18229166666666666,-0.12369791666666667],[0.18880208333333334,-0.12109375],[0.1953125,-0.11979166666666667],[0.20052083333333334,-0.11588541666666667],[0.20442708333333334,-0.11458333333333333],[0.20572916666666666,-0.11458333333333333],[0.20572916666666666,-0.11458333333333333],[0.20572916666666666,-0.11458333333333333]],[[-0.0078125,-0.19791666666666666],[-0.009114583333333334,-0.19791666666666666],[-0.014322916666666666,-0.19140625],[-0.016927083333333332,-0.18619791666666666],[-0.020833333333333332,-0.18098958333333334],[-0.0234375,-0.17838541666666666],[-0.029947916666666668,-0.171875],[-0.0390625,-0.16276041666666666],[-0.045572916666666664,-0.15755208333333334],[-0.052083333333333336,-0.15234375],[-0.059895833333333336,-0.14583333333333334],[-0.0625,-0.13932291666666666],[-0.06770833333333333,-0.1328125],[-0.07421875,-0.12369791666666667],[-0.07942708333333333,-0.11588541666666667],[-0.08854166666666667,-0.10546875],[-0.09895833333333333,-0.09244791666666667],[-0.10546875,-0.08333333333333333],[-0.11197916666666667,-0.07552083333333333],[-0.125,-0.061197916666666664],[-0.13932291666666666,-0.041666666666666664],[-0.14713541666666666,-0.03125],[-0.15885416666666666,-0.016927083333333332],[-0.1640625,-0.010416666666666666],[-0.171875,0],[-0.18098958333333334,0.014322916666666666],[-0.18619791666666666,0.020833333333333332],[-0.19010416666666666,0.032552083333333336],[-0.19401041666666666,0.040364583333333336],[-0.19661458333333334,0.046875],[-0.19921875,0.055989583333333336],[-0.20442708333333334,0.06510416666666667],[-0.20963541666666666,0.07421875],[-0.21354166666666666,0.07942708333333333],[-0.21614583333333334,0.08463541666666667],[-0.21744791666666666,0.08984375],[-0.21875,0.09375],[-0.22005208333333334,0.09505208333333333],[-0.22005208333333334,0.09505208333333333],[-0.22005208333333334,0.09505208333333333]],[[-0.006510416666666667,-0.19401041666666666],[-0.006510416666666667,-0.19140625],[-0.010416666666666666,-0.18359375],[-0.018229166666666668,-0.1640625],[-0.024739583333333332,-0.1484375],[-0.032552083333333336,-0.13020833333333334],[-0.044270833333333336,-0.10677083333333333],[-0.052083333333333336,-0.09114583333333333],[-0.059895833333333336,-0.078125],[-0.06640625,-0.06510416666666667],[-0.07161458333333333,-0.0546875],[-0.07552083333333333,-0.04296875],[-0.08072916666666667,-0.032552083333333336],[-0.0859375,-0.01953125],[-0.08854166666666667,-0.013020833333333334],[-0.09244791666666667,-0.00390625],[-0.09375,0.0013020833333333333],[-0.09635416666666667,0.006510416666666667],[-0.09765625,0.009114583333333334],[-0.09895833333333333,0.01171875],[-0.09895833333333333,0.016927083333333332],[-0.09895833333333333,0.022135416666666668],[-0.09765625,0.026041666666666668],[-0.09635416666666667,0.028645833333333332],[-0.09505208333333333,0.029947916666666668],[-0.09375,0.03125],[-0.08984375,0.033854166666666664],[-0.08463541666666667,0.036458333333333336],[-0.08203125,0.036458333333333336],[-0.078125,0.0390625],[-0.078125,0.0390625],[-0.07682291666666667,0.0390625],[-0.07682291666666667,0.0390625],[-0.07682291666666667,0.0390625],[-0.07682291666666667,0.0390625],[-0.07682291666666667,0.0390625],[-0.07682291666666667,0.0390625]]]",3,"[27,40,37]",,,,,,,,,,,,,,poolhall5.jpg,space,8.8509,0,4,4,80,1,pavilion2.jpg,racecarcourse2.jpg,porch.jpg,parkinggarage4.jpg,,
Image_List_4,,,,,,,,,,,,,,,,46546,2022-03-01_20h03.42.126,analogCatScenes,2020.1.3,Win32,60,"[1366,768]","[[[-0.0026041666666666665,-0.1953125],[-0.0026041666666666665,-0.1953125],[-0.0026041666666666665,-0.1953125],[-0.0026041666666666665,-0.19401041666666666],[-0.0026041666666666665,-0.19010416666666666],[-0.0026041666666666665,-0.18098958333333334],[-0.0013020833333333333,-0.17578125],[0,-0.16927083333333334],[0.0013020833333333333,-0.16536458333333334],[0.0026041666666666665,-0.16145833333333334],[0.0026041666666666665,-0.15755208333333334],[0.00390625,-0.15364583333333334],[0.005208333333333333,-0.14973958333333334],[0.009114583333333334,-0.14453125],[0.014322916666666666,-0.13541666666666666],[0.018229166666666668,-0.13020833333333334],[0.022135416666666668,-0.125],[0.026041666666666668,-0.1171875],[0.032552083333333336,-0.109375],[0.037760416666666664,-0.10416666666666667],[0.04296875,-0.09895833333333333],[0.049479166666666664,-0.09505208333333333],[0.055989583333333336,-0.08984375],[0.059895833333333336,-0.08723958333333333],[0.06510416666666667,-0.08463541666666667],[0.06901041666666667,-0.08203125],[0.07291666666666667,-0.07942708333333333],[0.078125,-0.07682291666666667],[0.08203125,-0.07421875],[0.09114583333333333,-0.07161458333333333],[0.1015625,-0.06640625],[0.11067708333333333,-0.0625],[0.11328125,-0.061197916666666664],[0.12109375,-0.057291666666666664],[0.12760416666666666,-0.0546875],[0.13151041666666666,-0.053385416666666664],[0.13802083333333334,-0.052083333333333336],[0.14192708333333334,-0.05078125],[0.1484375,-0.049479166666666664],[0.16145833333333334,-0.045572916666666664],[0.17838541666666666,-0.041666666666666664],[0.19140625,-0.037760416666666664],[0.20052083333333334,-0.03515625],[0.20963541666666666,-0.033854166666666664],[0.21614583333333334,-0.032552083333333336],[0.22005208333333334,-0.032552083333333336],[0.22526041666666666,-0.03125],[0.22786458333333334,-0.03125],[0.23046875,-0.029947916666666668],[0.23307291666666666,-0.029947916666666668],[0.23307291666666666,-0.029947916666666668],[0.23307291666666666,-0.029947916666666668],[0.23307291666666666,-0.029947916666666668],[0.23307291666666666,-0.029947916666666668]]]",1,[54],,,,,,,,,,,,,,park.jpg,space,4.1061,0,5,5,75,1,pantry5.jpg,playground6.jpg,operatingroom4.jpg,lockerroom.jpg,,
Image_List_4,,,,,,,,,,,,,,,,46546,2022-03-01_20h03.42.126,analogCatScenes,2020.1.3,Win32,60,"[1366,768]","[[[-0.005208333333333333,-0.19401041666666666],[-0.005208333333333333,-0.19401041666666666],[-0.0026041666666666665,-0.19270833333333334],[0.005208333333333333,-0.18619791666666666],[0.009114583333333334,-0.18098958333333334],[0.014322916666666666,-0.17447916666666666],[0.018229166666666668,-0.16796875],[0.0234375,-0.15625],[0.024739583333333332,-0.14973958333333334],[0.02734375,-0.14192708333333334],[0.03125,-0.13151041666666666],[0.036458333333333336,-0.11848958333333333],[0.04296875,-0.10416666666666667],[0.044270833333333336,-0.08984375],[0.045572916666666664,-0.07942708333333333],[0.046875,-0.07421875],[0.048177083333333336,-0.06770833333333333],[0.048177083333333336,-0.059895833333333336],[0.048177083333333336,-0.057291666666666664],[0.048177083333333336,-0.053385416666666664],[0.048177083333333336,-0.05078125],[0.048177083333333336,-0.05078125],[0.048177083333333336,-0.05078125],[0.048177083333333336,-0.05078125],[0.048177083333333336,-0.05078125],[0.048177083333333336,-0.05078125],[0.048177083333333336,-0.05078125]],[[0.005208333333333333,-0.20442708333333334],[0.005208333333333333,-0.20442708333333334],[0.013020833333333334,-0.20182291666666666],[0.037760416666666664,-0.19921875],[0.078125,-0.1953125],[0.1171875,-0.18880208333333334],[0.13671875,-0.18359375],[0.15234375,-0.17838541666666666],[0.16666666666666666,-0.17447916666666666],[0.18098958333333334,-0.171875],[0.19270833333333334,-0.16796875],[0.20703125,-0.1640625],[0.22265625,-0.15494791666666666],[0.234375,-0.1484375],[0.2421875,-0.14192708333333334],[0.25390625,-0.12890625],[0.2721354166666667,-0.10807291666666667],[0.28125,-0.09635416666666667],[0.2890625,-0.08203125],[0.2942708333333333,-0.07421875],[0.2981770833333333,-0.06640625],[0.30078125,-0.057291666666666664],[0.3020833333333333,-0.052083333333333336],[0.3033854166666667,-0.046875],[0.3033854166666667,-0.045572916666666664],[0.3033854166666667,-0.045572916666666664],[0.3033854166666667,-0.045572916666666664],[0.3033854166666667,-0.045572916666666664],[0.3033854166666667,-0.045572916666666664],[0.3033854166666667,-0.045572916666666664],[0.3033854166666667,-0.045572916666666664],[0.3033854166666667,-0.045572916666666664],[0.3033854166666667,-0.045572916666666664],[0.3033854166666667,-0.045572916666666664]]]",2,"[27,34]",,,,,,,,,,,,,,igloo4.jpg,space,6.5284,0,6,6,58,1,highway7.jpg,lab1.jpg,hedgemaze1.jpg,grocerystore2.jpg,,
Image_List_4,,,,,,,,,,,,,,,,46546,2022-03-01_20h03.42.126,analogCatScenes,2020.1.3,Win32,60,"[1366,768]","[[[0.00390625,-0.19401041666666666],[0.00390625,-0.19401041666666666],[0.0026041666666666665,-0.19401041666666666],[-0.0026041666666666665,-0.19010416666666666],[-0.0078125,-0.18619791666666666],[-0.020833333333333332,-0.17838541666666666],[-0.037760416666666664,-0.16276041666666666],[-0.048177083333333336,-0.15364583333333334],[-0.059895833333333336,-0.14322916666666666],[-0.07291666666666667,-0.12890625],[-0.08463541666666667,-0.11458333333333333],[-0.08984375,-0.10546875],[-0.09635416666666667,-0.09505208333333333],[-0.10807291666666667,-0.07552083333333333],[-0.1171875,-0.053385416666666664],[-0.12109375,-0.0390625],[-0.12760416666666666,-0.016927083333333332],[-0.1328125,0],[-0.13411458333333334,0.0078125],[-0.13541666666666666,0.016927083333333332],[-0.13541666666666666,0.028645833333333332],[-0.13541666666666666,0.033854166666666664],[-0.13671875,0.0390625],[-0.13671875,0.041666666666666664],[-0.13671875,0.041666666666666664],[-0.13671875,0.041666666666666664],[-0.13671875,0.041666666666666664],[-0.13671875,0.041666666666666664],[-0.13671875,0.041666666666666664],[-0.13671875,0.041666666666666664],[-0.13671875,0.041666666666666664]]]",1,[31],,,,,,,,,,,,,,basement5.jpg,space,4.4169,0,7,7,9,1,auto_showroom3.jpg,bar2.jpg,ballroom2.jpg,arcade2.jpg,,
Image_List_4,,,,,,,,,,,,,,,,46546,2022-03-01_20h03.42.126,analogCatScenes,2020.1.3,Win32,60,"[1366,768]","[[[0.0078125,-0.20052083333333334],[0.0078125,-0.20052083333333334],[0.0078125,-0.20052083333333334],[0.0078125,-0.20052083333333334],[0.009114583333333334,-0.19791666666666666],[0.014322916666666666,-0.19140625],[0.018229166666666668,-0.1875],[0.024739583333333332,-0.18098958333333334],[0.03125,-0.17578125],[0.037760416666666664,-0.171875],[0.049479166666666664,-0.16276041666666666],[0.0625,-0.15364583333333334],[0.07682291666666667,-0.14322916666666666],[0.08984375,-0.13802083333333334],[0.1015625,-0.1328125],[0.12369791666666667,-0.125],[0.14192708333333334,-0.11979166666666667],[0.14973958333333334,-0.1171875],[0.17057291666666666,-0.11197916666666667],[0.19791666666666666,-0.10546875],[0.22916666666666666,-0.1015625],[0.24609375,-0.1015625],[0.2708333333333333,-0.09895833333333333],[0.2838541666666667,-0.09895833333333333],[0.2877604166666667,-0.09895833333333333],[0.2942708333333333,-0.09895833333333333],[0.30078125,-0.09895833333333333],[0.3072916666666667,-0.09895833333333333],[0.3125,-0.09765625],[0.3138020833333333,-0.09765625],[0.3151041666666667,-0.09765625],[0.3151041666666667,-0.09765625],[0.3151041666666667,-0.09765625],[0.3151041666666667,-0.09765625],[0.3151041666666667,-0.09765625],[0.3151041666666667,-0.09765625],[0.3151041666666667,-0.09765625],[0.3151041666666667,-0.09765625]]]",1,[38],,,,,,,,,,,,,,kindergarten_classroom5.jpg,space,3.6102,0,8,8,59,1,homegarden7.jpg,library_aisle8.jpg,highway4.jpg,grocerystore3.jpg,,
Image_List_4,,,,,,,,,,,,,,,,46546,2022-03-01_20h03.42.126,analogCatScenes,2020.1.3,Win32,60,"[1366,768]","[[[-0.006510416666666667,-0.19140625],[-0.0078125,-0.17708333333333334],[-0.015625,-0.13932291666666666],[-0.020833333333333332,-0.109375],[-0.024739583333333332,-0.08333333333333333],[-0.033854166666666664,-0.029947916666666668],[-0.045572916666666664,0.016927083333333332],[-0.05078125,0.046875],[-0.053385416666666664,0.08333333333333333],[-0.052083333333333336,0.10416666666666667],[-0.046875,0.12369791666666667],[-0.040364583333333336,0.13932291666666666],[-0.033854166666666664,0.15494791666666666],[-0.029947916666666668,0.16145833333333334],[-0.0234375,0.17447916666666666],[-0.018229166666666668,0.18098958333333334],[-0.015625,0.18619791666666666],[-0.014322916666666666,0.1875],[-0.014322916666666666,0.1875],[-0.014322916666666666,0.1875],[-0.014322916666666666,0.1875],[-0.014322916666666666,0.1875],[-0.014322916666666666,0.1875]],[[0,-0.19661458333333334],[-0.0026041666666666665,-0.19661458333333334],[-0.005208333333333333,-0.19661458333333334],[-0.010416666666666666,-0.19661458333333334],[-0.013020833333333334,-0.19661458333333334],[-0.015625,-0.19661458333333334],[-0.01953125,-0.1953125],[-0.026041666666666668,-0.1953125],[-0.03125,-0.19401041666666666],[-0.040364583333333336,-0.19401041666666666],[-0.052083333333333336,-0.19401041666666666],[-0.0703125,-0.19401041666666666],[-0.078125,-0.19401041666666666],[-0.08723958333333333,-0.19401041666666666],[-0.09765625,-0.19270833333333334],[-0.10416666666666667,-0.19270833333333334],[-0.1171875,-0.19270833333333334],[-0.12760416666666666,-0.19270833333333334],[-0.14192708333333334,-0.19010416666666666],[-0.15625,-0.19010416666666666],[-0.16276041666666666,-0.19010416666666666],[-0.18098958333333334,-0.18880208333333334],[-0.19401041666666666,-0.1875],[-0.19921875,-0.18489583333333334],[-0.20572916666666666,-0.18359375],[-0.21484375,-0.18098958333333334],[-0.22526041666666666,-0.1796875],[-0.23046875,-0.1796875],[-0.234375,-0.1796875],[-0.23828125,-0.1796875],[-0.24348958333333334,-0.17838541666666666],[-0.2526041666666667,-0.17708333333333334],[-0.2591145833333333,-0.17447916666666666],[-0.2643229166666667,-0.17317708333333334],[-0.2721354166666667,-0.171875],[-0.2760416666666667,-0.17057291666666666],[-0.2760416666666667,-0.17057291666666666],[-0.2799479166666667,-0.16796875],[-0.2838541666666667,-0.16666666666666666],[-0.2864583333333333,-0.16536458333333334],[-0.29296875,-0.1640625],[-0.296875,-0.16276041666666666],[-0.3020833333333333,-0.16015625],[-0.3020833333333333,-0.16015625],[-0.3033854166666667,-0.15885416666666666],[-0.3033854166666667,-0.15755208333333334],[-0.3033854166666667,-0.15625]]]",2,"[23,47]",,,,,,,,,,,,,,driveway8.jpg,space,7.6667,0,9,9,38,1,dining_car2.jpg,elevatorOutside4.jpg,dock1.jpg,classroom1.jpg,,
Image_List_4,,,,,,,,,,,,,,,,46546,2022-03-01_20h03.42.126,analogCatScenes,2020.1.3,Win32,60,"[1366,768]","[[[0.00390625,-0.19791666666666666],[0.00390625,-0.19791666666666666],[0.00390625,-0.19401041666666666],[0.006510416666666667,-0.1875],[0.0078125,-0.17578125],[0.0078125,-0.16276041666666666],[0.010416666666666666,-0.15104166666666666],[0.01171875,-0.140625],[0.01171875,-0.13411458333333334],[0.013020833333333334,-0.12630208333333334],[0.013020833333333334,-0.11458333333333333],[0.014322916666666666,-0.10416666666666667],[0.015625,-0.09244791666666667],[0.018229166666666668,-0.08203125],[0.020833333333333332,-0.07161458333333333],[0.024739583333333332,-0.057291666666666664],[0.02734375,-0.048177083333333336],[0.029947916666666668,-0.033854166666666664],[0.03125,-0.014322916666666666],[0.03125,-0.006510416666666667],[0.032552083333333336,0.0026041666666666665],[0.03515625,0.014322916666666666],[0.0390625,0.029947916666666668],[0.040364583333333336,0.0390625],[0.041666666666666664,0.048177083333333336],[0.04296875,0.057291666666666664],[0.044270833333333336,0.0703125],[0.045572916666666664,0.078125],[0.046875,0.08333333333333333],[0.046875,0.08723958333333333],[0.046875,0.09375],[0.046875,0.09895833333333333],[0.048177083333333336,0.10807291666666667],[0.049479166666666664,0.11328125],[0.049479166666666664,0.11848958333333333],[0.052083333333333336,0.12239583333333333],[0.052083333333333336,0.12890625],[0.052083333333333336,0.13151041666666666],[0.052083333333333336,0.13151041666666666],[0.052083333333333336,0.13151041666666666]],[[-0.005208333333333333,-0.20442708333333334],[-0.0078125,-0.20572916666666666],[-0.013020833333333334,-0.20572916666666666],[-0.02734375,-0.20572916666666666],[-0.0390625,-0.20182291666666666],[-0.049479166666666664,-0.1953125],[-0.06640625,-0.18880208333333334],[-0.08463541666666667,-0.17838541666666666],[-0.109375,-0.1640625],[-0.12369791666666667,-0.15234375],[-0.13932291666666666,-0.140625],[-0.15494791666666666,-0.12369791666666667],[-0.16666666666666666,-0.10677083333333333],[-0.16796875,-0.09895833333333333],[-0.17057291666666666,-0.08723958333333333],[-0.17057291666666666,-0.07421875],[-0.17057291666666666,-0.06380208333333333],[-0.17317708333333334,-0.052083333333333336],[-0.17447916666666666,-0.041666666666666664],[-0.17447916666666666,-0.03125],[-0.17578125,-0.013020833333333334],[-0.17578125,0.00390625],[-0.17317708333333334,0.01953125],[-0.17057291666666666,0.028645833333333332],[-0.16666666666666666,0.040364583333333336],[-0.1640625,0.05078125],[-0.16145833333333334,0.05859375],[-0.16145833333333334,0.0625],[-0.16015625,0.06770833333333333],[-0.15755208333333334,0.07291666666666667],[-0.15104166666666666,0.08463541666666667],[-0.14713541666666666,0.08984375],[-0.14192708333333334,0.09635416666666667],[-0.13020833333333334,0.10677083333333333],[-0.11588541666666667,0.11588541666666667],[-0.11067708333333333,0.11979166666666667],[-0.10546875,0.12239583333333333],[-0.10546875,0.12369791666666667],[-0.10546875,0.12369791666666667],[-0.10546875,0.12369791666666667],[-0.10546875,0.12369791666666667],[-0.10546875,0.12369791666666667],[-0.10546875,0.12369791666666667]]]",2,"[40,43]",,,,,,,,,,,,,,pier2.jpg,space,6.9003,0,10,10,79,1,pasture.jpg,poolhall2.jpeg,playground9.jpg,observatory2.jpg,,
Image_List_4,,,,,,,,,,,,,,,,46546,2022-03-01_20h03.42.126,analogCatScenes,2020.1.3,Win32,60,"[1366,768]","[[[-0.0013020833333333333,-0.19010416666666666],[-0.0013020833333333333,-0.19010416666666666],[-0.0013020833333333333,-0.19010416666666666],[-0.0013020833333333333,-0.19010416666666666],[-0.0013020833333333333,-0.19010416666666666],[-0.0013020833333333333,-0.18880208333333334],[-0.0026041666666666665,-0.18619791666666666],[-0.00390625,-0.18098958333333334],[-0.005208333333333333,-0.17578125],[-0.006510416666666667,-0.17317708333333334],[-0.010416666666666666,-0.16796875],[-0.013020833333333334,-0.16145833333333334],[-0.018229166666666668,-0.15234375],[-0.024739583333333332,-0.14453125],[-0.029947916666666668,-0.13932291666666666],[-0.033854166666666664,-0.13671875],[-0.040364583333333336,-0.13151041666666666],[-0.04296875,-0.12890625],[-0.045572916666666664,-0.12630208333333334],[-0.049479166666666664,-0.12369791666666667],[-0.053385416666666664,-0.12239583333333333],[-0.059895833333333336,-0.1171875],[-0.06380208333333333,-0.11588541666666667],[-0.06901041666666667,-0.11197916666666667],[-0.078125,-0.11067708333333333],[-0.08203125,-0.11067708333333333],[-0.08463541666666667,-0.109375],[-0.08463541666666667,-0.109375],[-0.08463541666666667,-0.109375]],[[0.00390625,-0.19010416666666666],[0.00390625,-0.19010416666666666],[0.00390625,-0.19010416666666666],[0.005208333333333333,-0.18880208333333334],[0.009114583333333334,-0.18098958333333334],[0.016927083333333332,-0.171875],[0.02734375,-0.16276041666666666],[0.040364583333333336,-0.15364583333333334],[0.049479166666666664,-0.14713541666666666],[0.057291666666666664,-0.140625],[0.0625,-0.13541666666666666],[0.06770833333333333,-0.13151041666666666],[0.07552083333333333,-0.12890625],[0.09635416666666667,-0.125],[0.109375,-0.12369791666666667],[0.11848958333333333,-0.12239583333333333],[0.13151041666666666,-0.12109375],[0.14453125,-0.12109375],[0.15364583333333334,-0.12109375],[0.16015625,-0.12239583333333333],[0.1640625,-0.12369791666666667],[0.1640625,-0.12369791666666667],[0.1640625,-0.125],[0.1640625,-0.125]],[[-0.00390625,-0.19140625],[-0.0026041666666666665,-0.1875],[-0.0013020833333333333,-0.18619791666666666],[-0.0013020833333333333,-0.18098958333333334],[0,-0.16927083333333334],[0.0013020833333333333,-0.16145833333333334],[0.006510416666666667,-0.14973958333333334],[0.009114583333333334,-0.14192708333333334],[0.014322916666666666,-0.125],[0.018229166666666668,-0.1171875],[0.022135416666666668,-0.109375],[0.024739583333333332,-0.10416666666666667],[0.029947916666666668,-0.09244791666666667],[0.037760416666666664,-0.078125],[0.041666666666666664,-0.07161458333333333],[0.044270833333333336,-0.06770833333333333],[0.048177083333333336,-0.061197916666666664],[0.053385416666666664,-0.053385416666666664],[0.059895833333333336,-0.040364583333333336],[0.06640625,-0.029947916666666668],[0.0703125,-0.020833333333333332],[0.07161458333333333,-0.014322916666666666],[0.07291666666666667,-0.010416666666666666],[0.07291666666666667,-0.009114583333333334],[0.07421875,-0.0078125],[0.07421875,-0.0078125],[0.07421875,-0.0078125],[0.07421875,-0.0078125],[0.07421875,-0.0078125]]]",3,"[29,24,29]",,,,,,,,,,,,,,forestpath4.jpg,space,7.1237,0,11,11,45,1,fittingroom2.jpg,frontFoyer7.jpg,factory1.jpg,dock4.jpg,,
Image_List_4,,,,,,,,,,,,,,,,46546,2022-03-01_20h03.42.126,analogCatScenes,2020.1.3,Win32,60,"[1366,768]","[[[0.006510416666666667,-0.20182291666666666],[0.006510416666666667,-0.20182291666666666],[0.005208333333333333,-0.19661458333333334],[0.00390625,-0.19140625],[0.00390625,-0.18489583333333334],[0.0026041666666666665,-0.17838541666666666],[0.0026041666666666665,-0.16927083333333334],[0.00390625,-0.16276041666666666],[0.009114583333333334,-0.15104166666666666],[0.016927083333333332,-0.13541666666666666],[0.0234375,-0.12630208333333334],[0.036458333333333336,-0.10807291666666667],[0.045572916666666664,-0.09765625],[0.06640625,-0.07682291666666667],[0.08463541666666667,-0.06510416666666667],[0.09375,-0.059895833333333336],[0.10286458333333333,-0.053385416666666664],[0.12239583333333333,-0.04296875],[0.15364583333333334,-0.028645833333333332],[0.17447916666666666,-0.022135416666666668],[0.19270833333333334,-0.014322916666666666],[0.20182291666666666,-0.009114583333333334],[0.20833333333333334,-0.006510416666666667],[0.20963541666666666,-0.005208333333333333],[0.20963541666666666,-0.005208333333333333],[0.20963541666666666,-0.005208333333333333],[0.20963541666666666,-0.005208333333333333]],[[0,-0.19791666666666666],[0,-0.19791666666666666],[0,-0.19791666666666666],[0,-0.19791666666666666],[-0.0026041666666666665,-0.19401041666666666],[-0.0078125,-0.18359375],[-0.018229166666666668,-0.17317708333333334],[-0.026041666666666668,-0.16666666666666666],[-0.032552083333333336,-0.16015625],[-0.041666666666666664,-0.14583333333333334],[-0.049479166666666664,-0.13411458333333334],[-0.061197916666666664,-0.11588541666666667],[-0.0703125,-0.10026041666666667],[-0.07942708333333333,-0.08463541666666667],[-0.0859375,-0.0703125],[-0.09244791666666667,-0.055989583333333336],[-0.09505208333333333,-0.046875],[-0.09765625,-0.029947916666666668],[-0.09765625,-0.016927083333333332],[-0.09895833333333333,0.00390625],[-0.09895833333333333,0.016927083333333332],[-0.09895833333333333,0.040364583333333336],[-0.09895833333333333,0.053385416666666664],[-0.09895833333333333,0.06510416666666667],[-0.09765625,0.08072916666666667],[-0.09505208333333333,0.09635416666666667],[-0.09244791666666667,0.11328125],[-0.08984375,0.12109375],[-0.08854166666666667,0.12890625],[-0.0859375,0.13541666666666666],[-0.08203125,0.14453125],[-0.07682291666666667,0.15494791666666666],[-0.07161458333333333,0.16536458333333334],[-0.0625,0.1796875],[-0.049479166666666664,0.19270833333333334],[-0.041666666666666664,0.19921875],[-0.036458333333333336,0.20182291666666666],[-0.032552083333333336,0.20442708333333334],[-0.03125,0.20572916666666666],[-0.03125,0.20703125],[-0.026041666666666668,0.20963541666666666],[-0.024739583333333332,0.2109375],[-0.022135416666666668,0.21223958333333334],[-0.020833333333333332,0.21354166666666666],[-0.01953125,0.21614583333333334],[-0.016927083333333332,0.21744791666666666],[-0.015625,0.21875],[-0.014322916666666666,0.22005208333333334],[-0.013020833333333334,0.22135416666666666],[-0.010416666666666666,0.22395833333333334],[-0.009114583333333334,0.2265625],[-0.0078125,0.22786458333333334],[-0.006510416666666667,0.22786458333333334],[-0.006510416666666667,0.22916666666666666],[-0.005208333333333333,0.23046875],[-0.00390625,0.23177083333333334],[-0.00390625,0.23307291666666666],[-0.0026041666666666665,0.23307291666666666],[-0.0026041666666666665,0.234375],[0,0.23567708333333334],[0.0026041666666666665,0.23697916666666666],[0.0026041666666666665,0.23828125],[0.00390625,0.23828125],[0.00390625,0.23828125],[0.00390625,0.23828125],[0.00390625,0.23828125],[0.00390625,0.23828125],[0.00390625,0.23828125],[0.005208333333333333,0.23828125],[0.013020833333333334,0.24348958333333334],[0.018229166666666668,0.24869791666666666],[0.020833333333333332,0.25],[0.0234375,0.2513020833333333],[0.024739583333333332,0.25390625],[0.026041666666666668,0.25390625],[0.02734375,0.2552083333333333],[0.028645833333333332,0.2552083333333333],[0.032552083333333336,0.2578125],[0.036458333333333336,0.2604166666666667],[0.0390625,0.2643229166666667],[0.040364583333333336,0.265625],[0.04296875,0.2669270833333333],[0.044270833333333336,0.26953125],[0.048177083333333336,0.2721354166666667],[0.053385416666666664,0.2760416666666667],[0.057291666666666664,0.27734375],[0.059895833333333336,0.2799479166666667],[0.06640625,0.28125],[0.0859375,0.2864583333333333],[0.09895833333333333,0.2903645833333333],[0.11197916666666667,0.2942708333333333],[0.12109375,0.2981770833333333],[0.12369791666666667,0.2981770833333333],[0.12630208333333334,0.2994791666666667],[0.13411458333333334,0.3020833333333333],[0.140625,0.3046875],[0.14713541666666666,0.3072916666666667],[0.15234375,0.30859375],[0.15494791666666666,0.3098958333333333],[0.15494791666666666,0.3098958333333333],[0.15494791666666666,0.3098958333333333],[0.15494791666666666,0.3098958333333333]]]",2,"[27,102]",,,,,,,,,,,,,,dugout1.jpg,space,7.927,0,12,12,40,1,drycleaners4.jpg,farm1.jpg,drymountains.jpg,clothingstore3.jpg,,
Image_List_4,,,,,,,,,,,,,,,,46546,2022-03-01_20h03.42.126,analogCatScenes,2020.1.3,Win32,60,"[1366,768]","[[[-0.00390625,-0.19921875],[-0.00390625,-0.19921875],[-0.0026041666666666665,-0.19140625],[-0.0026041666666666665,-0.1796875],[-0.0026041666666666665,-0.15104166666666666],[-0.0026041666666666665,-0.12890625],[-0.0026041666666666665,-0.11067708333333333],[-0.00390625,-0.09375],[-0.00390625,-0.07682291666666667],[-0.005208333333333333,-0.05859375],[-0.0078125,-0.04296875],[-0.0078125,-0.03125],[-0.0078125,-0.0234375],[-0.009114583333333334,-0.010416666666666666],[-0.010416666666666666,0.00390625],[-0.010416666666666666,0.009114583333333334],[-0.010416666666666666,0.014322916666666666],[-0.010416666666666666,0.01953125],[-0.01171875,0.022135416666666668],[-0.01171875,0.022135416666666668],[-0.01171875,0.022135416666666668]]]",1,[21],,,,,,,,,,,,,,winebarrel3.jpg,space,2.8683,0,13,13,97,1,warehouseoutside4.jpg,wineVineyard2.jpg,waitingroom4.jpg,warehouseoutside3.jpg,,
Image_List_4,,,,,,,,,,,,,,,,46546,2022-03-01_20h03.42.126,analogCatScenes,2020.1.3,Win32,60,"[1366,768]","[[[0.0026041666666666665,-0.1953125],[0.0026041666666666665,-0.1953125],[0.0026041666666666665,-0.1953125],[0.005208333333333333,-0.19661458333333334],[0.013020833333333334,-0.19661458333333334],[0.0234375,-0.19661458333333334],[0.036458333333333336,-0.19661458333333334],[0.059895833333333336,-0.1953125],[0.08723958333333333,-0.18880208333333334],[0.10677083333333333,-0.18619791666666666],[0.12239583333333333,-0.18489583333333334],[0.140625,-0.18359375],[0.1484375,-0.18359375],[0.15494791666666666,-0.18359375],[0.15885416666666666,-0.18359375],[0.171875,-0.18359375],[0.18619791666666666,-0.18359375],[0.19010416666666666,-0.18229166666666666],[0.19010416666666666,-0.18229166666666666]],[[0.0013020833333333333,-0.19661458333333334],[0,-0.19661458333333334],[-0.01171875,-0.19661458333333334],[-0.033854166666666664,-0.19270833333333334],[-0.06510416666666667,-0.18619791666666666],[-0.08333333333333333,-0.18359375],[-0.09505208333333333,-0.18098958333333334],[-0.10807291666666667,-0.17838541666666666],[-0.11848958333333333,-0.17317708333333334],[-0.13020833333333334,-0.16666666666666666],[-0.14453125,-0.15885416666666666],[-0.15364583333333334,-0.15494791666666666],[-0.16927083333333334,-0.14973958333333334],[-0.1796875,-0.1484375],[-0.18619791666666666,-0.14583333333333334],[-0.19791666666666666,-0.14192708333333334],[-0.20442708333333334,-0.13932291666666666],[-0.21223958333333334,-0.13541666666666666],[-0.22916666666666666,-0.12890625],[-0.2526041666666667,-0.1171875],[-0.265625,-0.109375],[-0.26953125,-0.10677083333333333],[-0.2708333333333333,-0.10546875],[-0.2721354166666667,-0.10416666666666667],[-0.2734375,-0.10416666666666667],[-0.2734375,-0.10416666666666667],[-0.2734375,-0.10416666666666667],[-0.2734375,-0.10416666666666667]]]",2,"[19,28]",,,,,,,,,,,,,,baggageClaim1.jpg,space,3.6109,0,14,14,6,1,ATM1.jpg,banquetHall2.jpg,auto_showroom5.jpg,apartmentBuilding3.jpg,,
Image_List_4,,,,,,,,,,,,,,,,46546,2022-03-01_20h03.42.126,analogCatScenes,2020.1.3,Win32,60,"[1366,768]","[[[-0.0078125,-0.19401041666666666],[-0.0078125,-0.19401041666666666],[-0.014322916666666666,-0.19401041666666666],[-0.0390625,-0.18619791666666666],[-0.0625,-0.1796875],[-0.10807291666666667,-0.16927083333333334],[-0.14713541666666666,-0.15625],[-0.17447916666666666,-0.14192708333333334],[-0.18880208333333334,-0.13151041666666666],[-0.19921875,-0.12369791666666667],[-0.20963541666666666,-0.11197916666666667],[-0.21484375,-0.1015625],[-0.21614583333333334,-0.09375],[-0.22005208333333334,-0.08072916666666667],[-0.22005208333333334,-0.07291666666666667],[-0.22005208333333334,-0.06640625],[-0.22005208333333334,-0.055989583333333336],[-0.21875,-0.041666666666666664],[-0.21744791666666666,-0.029947916666666668],[-0.21744791666666666,-0.020833333333333332],[-0.21614583333333334,-0.015625],[-0.21484375,-0.010416666666666666],[-0.21484375,-0.010416666666666666],[-0.21484375,-0.010416666666666666],[-0.21484375,-0.010416666666666666],[-0.21484375,-0.010416666666666666]]]",1,[26],,,,,,,,,,,,,,hotelRoom7.jpg,space,2.8462,0,15,15,55,1,greenmountains.jpg,hotelRoom3.jpg,gazebo5.jpg,frontLawn2.jpg,,
Image_List_4,,,,,,,,,,,,,,,,46546,2022-03-01_20h03.42.126,analogCatScenes,2020.1.3,Win32,60,"[1366,768]","[[[-0.0013020833333333333,-0.19010416666666666],[-0.0013020833333333333,-0.19140625],[-0.0078125,-0.19401041666666666],[-0.016927083333333332,-0.1953125],[-0.033854166666666664,-0.19661458333333334],[-0.049479166666666664,-0.19661458333333334],[-0.06770833333333333,-0.19661458333333334],[-0.08463541666666667,-0.19661458333333334],[-0.12890625,-0.1953125],[-0.15625,-0.1953125],[-0.16796875,-0.1953125],[-0.18098958333333334,-0.1953125],[-0.19401041666666666,-0.1953125],[-0.20572916666666666,-0.1953125],[-0.21354166666666666,-0.1953125],[-0.21354166666666666,-0.1953125],[-0.21354166666666666,-0.1953125]],[[-0.0013020833333333333,-0.19401041666666666],[0.0013020833333333333,-0.19401041666666666],[0.006510416666666667,-0.19401041666666666],[0.018229166666666668,-0.19270833333333334],[0.044270833333333336,-0.18229166666666666],[0.07682291666666667,-0.16927083333333334],[0.10807291666666667,-0.15885416666666666],[0.12369791666666667,-0.15364583333333334],[0.13932291666666666,-0.14453125],[0.16015625,-0.1328125],[0.18359375,-0.11848958333333333],[0.20442708333333334,-0.11067708333333333],[0.21354166666666666,-0.10677083333333333],[0.22265625,-0.1015625],[0.23958333333333334,-0.09114583333333333],[0.2578125,-0.08072916666666667],[0.265625,-0.07682291666666667],[0.2682291666666667,-0.07421875],[0.2721354166666667,-0.06901041666666667],[0.2747395833333333,-0.06640625],[0.2786458333333333,-0.061197916666666664],[0.2799479166666667,-0.05859375],[0.2838541666666667,-0.055989583333333336],[0.2864583333333333,-0.05078125],[0.2890625,-0.046875],[0.29296875,-0.040364583333333336],[0.2955729166666667,-0.03515625],[0.2981770833333333,-0.029947916666666668],[0.2994791666666667,-0.02734375],[0.30078125,-0.026041666666666668],[0.30078125,-0.0234375],[0.30078125,-0.0234375],[0.30078125,-0.0234375],[0.30078125,-0.0234375],[0.30078125,-0.0234375],[0.3020833333333333,-0.022135416666666668],[0.3020833333333333,-0.020833333333333332],[0.3020833333333333,-0.020833333333333332],[0.3020833333333333,-0.020833333333333332],[0.3020833333333333,-0.020833333333333332],[0.3020833333333333,-0.020833333333333332],[0.3020833333333333,-0.020833333333333332],[0.3020833333333333,-0.020833333333333332],[0.3020833333333333,-0.020833333333333332],[0.3020833333333333,-0.020833333333333332],[0.3020833333333333,-0.020833333333333332]]]",2,"[17,46]",,,,,,,,,,,,,,lab3.jpg,space,4.1957,0,16,16,62,1,hotellobby2.jpg,minigolf.jpg,horsebarn8.jpg,hayfield7.jpg,,
Image_List_4,,,,,,,,,,,,,,,,46546,2022-03-01_20h03.42.126,analogCatScenes,2020.1.3,Win32,60,"[1366,768]","[[[-0.00390625,-0.19661458333333334],[-0.00390625,-0.19661458333333334],[-0.005208333333333333,-0.19401041666666666],[-0.01953125,-0.18098958333333334],[-0.04296875,-0.16536458333333334],[-0.06770833333333333,-0.15104166666666666],[-0.08333333333333333,-0.14453125],[-0.11067708333333333,-0.140625],[-0.14192708333333334,-0.13802083333333334],[-0.16666666666666666,-0.1328125],[-0.18489583333333334,-0.12890625],[-0.1953125,-0.12630208333333334],[-0.21354166666666666,-0.125],[-0.23177083333333334,-0.125],[-0.2421875,-0.125],[-0.24739583333333334,-0.125],[-0.2513020833333333,-0.125],[-0.2526041666666667,-0.125],[-0.25390625,-0.12630208333333334]],[[0.006510416666666667,-0.19401041666666666],[0.006510416666666667,-0.1953125],[0.006510416666666667,-0.19401041666666666],[0.0078125,-0.19010416666666666],[0.013020833333333334,-0.18489583333333334],[0.0234375,-0.17317708333333334],[0.041666666666666664,-0.15625],[0.0625,-0.140625],[0.07552083333333333,-0.13151041666666666],[0.08723958333333333,-0.12630208333333334],[0.10286458333333333,-0.125],[0.12109375,-0.12369791666666667],[0.14322916666666666,-0.12239583333333333],[0.15494791666666666,-0.12109375],[0.16536458333333334,-0.11979166666666667],[0.17578125,-0.1171875],[0.17838541666666666,-0.1171875],[0.17838541666666666,-0.1171875]]]",2,"[19,18]",,,,,,,,,,,,,,park8.jpg,space,4.2469,0,17,17,77,1,parkinggarage2.jpg,playroom6.jpg,pasture9.jpg,mallindoor6.jpg,,
Image_List_4,,,,,,,,,,,,,,,,46546,2022-03-01_20h03.42.126,analogCatScenes,2020.1.3,Win32,60,"[1366,768]","[[[0.010416666666666666,-0.19401041666666666],[0.024739583333333332,-0.18880208333333334],[0.0390625,-0.18489583333333334],[0.07942708333333333,-0.17447916666666666],[0.13020833333333334,-0.1640625],[0.16015625,-0.15755208333333334],[0.18489583333333334,-0.15104166666666666],[0.19921875,-0.14583333333333334],[0.203125,-0.14453125],[0.203125,-0.14453125]]]",1,[10],,,,,,,,,,,,,,baywindow5.jpg,space,2.8285,0,18,18,11,1,backyard2.jpg,basketballcourt4.jpg,bambooforest3.jpg,backyard1.jpg,,
Image_List_4,,,,,,,,,,,,,,,,46546,2022-03-01_20h03.42.126,analogCatScenes,2020.1.3,Win32,60,"[1366,768]","[[[-0.0013020833333333333,-0.1953125],[-0.0013020833333333333,-0.1875],[-0.0013020833333333333,-0.17578125],[-0.0026041666666666665,-0.1640625],[-0.006510416666666667,-0.15234375],[-0.009114583333333334,-0.14583333333333334],[-0.01171875,-0.12890625],[-0.01171875,-0.10807291666666667],[-0.015625,-0.08854166666666667],[-0.01953125,-0.06901041666666667],[-0.0234375,-0.053385416666666664],[-0.028645833333333332,-0.04296875],[-0.033854166666666664,-0.03515625],[-0.04296875,-0.024739583333333332],[-0.05078125,-0.015625],[-0.059895833333333336,-0.006510416666666667],[-0.07161458333333333,0],[-0.0859375,0.0078125],[-0.09375,0.013020833333333334],[-0.1015625,0.016927083333333332],[-0.11848958333333333,0.022135416666666668],[-0.14192708333333334,0.02734375],[-0.15234375,0.02734375],[-0.16796875,0.028645833333333332],[-0.17578125,0.028645833333333332],[-0.17708333333333334,0.029947916666666668]],[[0.006510416666666667,-0.19791666666666666],[0.006510416666666667,-0.19791666666666666],[0.006510416666666667,-0.19010416666666666],[0.006510416666666667,-0.17578125],[0.010416666666666666,-0.15234375],[0.014322916666666666,-0.13671875],[0.016927083333333332,-0.11588541666666667],[0.01953125,-0.09635416666666667],[0.020833333333333332,-0.08723958333333333],[0.022135416666666668,-0.07682291666666667],[0.022135416666666668,-0.06901041666666667],[0.022135416666666668,-0.057291666666666664],[0.022135416666666668,-0.052083333333333336],[0.022135416666666668,-0.040364583333333336],[0.022135416666666668,-0.03125],[0.022135416666666668,-0.0234375],[0.022135416666666668,-0.014322916666666666],[0.022135416666666668,-0.0078125],[0.022135416666666668,0],[0.024739583333333332,0.009114583333333334],[0.026041666666666668,0.018229166666666668],[0.029947916666666668,0.02734375],[0.033854166666666664,0.036458333333333336],[0.040364583333333336,0.04296875],[0.053385416666666664,0.048177083333333336],[0.0625,0.049479166666666664],[0.07291666666666667,0.052083333333333336],[0.08203125,0.053385416666666664],[0.08984375,0.053385416666666664],[0.09765625,0.053385416666666664],[0.10546875,0.053385416666666664],[0.10677083333333333,0.053385416666666664],[0.10677083333333333,0.053385416666666664]]]",2,"[26,33]",,,,,,,,,,,,,,churchInside3.jpg,space,4.2976,0,19,19,26,1,campusquad2.jpg,cornfield4.jpg,church4.jpg,botanicalGarden7.jpg,,
Image_List_4,,,,,,,,,,,,,,,,46546,2022-03-01_20h03.42.126,analogCatScenes,2020.1.3,Win32,60,"[1366,768]","[[[-0.009114583333333334,-0.20442708333333334],[-0.009114583333333334,-0.203125],[-0.005208333333333333,-0.20182291666666666],[0.00390625,-0.19791666666666666],[0.020833333333333332,-0.1953125],[0.06380208333333333,-0.19010416666666666],[0.10677083333333333,-0.18359375],[0.12760416666666666,-0.17708333333333334],[0.15755208333333334,-0.16536458333333334],[0.18880208333333334,-0.15494791666666666],[0.20182291666666666,-0.1484375],[0.20963541666666666,-0.14192708333333334],[0.22005208333333334,-0.12760416666666666],[0.23958333333333334,-0.10026041666666667],[0.24739583333333334,-0.08463541666666667],[0.2591145833333333,-0.06380208333333333],[0.2669270833333333,-0.040364583333333336],[0.2734375,-0.01953125],[0.2786458333333333,0.0013020833333333333],[0.2825520833333333,0.024739583333333332],[0.2838541666666667,0.036458333333333336],[0.28515625,0.045572916666666664],[0.2890625,0.0546875],[0.2890625,0.057291666666666664],[0.2890625,0.057291666666666664],[0.2890625,0.057291666666666664]],[[-0.0078125,-0.19921875],[-0.0078125,-0.19921875],[-0.009114583333333334,-0.19921875],[-0.016927083333333332,-0.19270833333333334],[-0.037760416666666664,-0.17838541666666666],[-0.05859375,-0.16666666666666666],[-0.08072916666666667,-0.15625],[-0.10286458333333333,-0.14583333333333334],[-0.125,-0.12890625],[-0.14453125,-0.11458333333333333],[-0.16536458333333334,-0.1015625],[-0.18229166666666666,-0.08984375],[-0.1953125,-0.07942708333333333],[-0.20833333333333334,-0.06640625],[-0.22395833333333334,-0.049479166666666664],[-0.23567708333333334,-0.032552083333333336],[-0.24479166666666666,-0.014322916666666666],[-0.2578125,0.010416666666666666],[-0.2669270833333333,0.03125],[-0.27734375,0.049479166666666664],[-0.2890625,0.0703125],[-0.29296875,0.08072916666666667],[-0.2955729166666667,0.08723958333333333],[-0.2981770833333333,0.09505208333333333],[-0.2994791666666667,0.1015625],[-0.3033854166666667,0.10807291666666667],[-0.3033854166666667,0.11067708333333333],[-0.3046875,0.11328125],[-0.3046875,0.11458333333333333],[-0.3046875,0.11458333333333333],[-0.3046875,0.11458333333333333]]]",2,"[26,31]",,,,,,,,,,,,,,minigolf8.jpg,space,5.5695,0,20,20,70,1,lockerroom4.jpg,pavilion.jpg,lockerroom3.jpg,igloo.jpg,,
Image_List_4,,,,,,,,,,,,,,,,46546,2022-03-01_20h03.42.126,analogCatScenes,2020.1.3,Win32,60,"[1366,768]","[[[-0.006510416666666667,-0.19661458333333334],[-0.006510416666666667,-0.19661458333333334],[-0.005208333333333333,-0.19661458333333334],[0,-0.19791666666666666],[0.01953125,-0.19791666666666666],[0.04296875,-0.1953125],[0.06510416666666667,-0.19270833333333334],[0.07421875,-0.18880208333333334],[0.0859375,-0.18098958333333334],[0.09244791666666667,-0.17578125],[0.10026041666666667,-0.1640625],[0.10416666666666667,-0.15885416666666666],[0.10807291666666667,-0.15494791666666666],[0.11197916666666667,-0.14583333333333334],[0.11458333333333333,-0.13802083333333334],[0.11979166666666667,-0.12239583333333333],[0.12109375,-0.1171875],[0.12239583333333333,-0.11197916666666667],[0.12239583333333333,-0.10807291666666667],[0.12239583333333333,-0.10416666666666667],[0.12239583333333333,-0.1015625],[0.12239583333333333,-0.10026041666666667]],[[-0.00390625,-0.18880208333333334],[-0.006510416666666667,-0.19140625],[-0.010416666666666666,-0.19270833333333334],[-0.018229166666666668,-0.19270833333333334],[-0.02734375,-0.19270833333333334],[-0.045572916666666664,-0.18619791666666666],[-0.06770833333333333,-0.17838541666666666],[-0.09765625,-0.16536458333333334],[-0.11979166666666667,-0.15364583333333334],[-0.15364583333333334,-0.1328125],[-0.17708333333333334,-0.11848958333333333],[-0.19270833333333334,-0.10416666666666667],[-0.19921875,-0.09505208333333333],[-0.20833333333333334,-0.08203125],[-0.21354166666666666,-0.07682291666666667],[-0.21744791666666666,-0.07291666666666667],[-0.21744791666666666,-0.0703125],[-0.21875,-0.06640625],[-0.21875,-0.06640625],[-0.22005208333333334,-0.06510416666666667]]]",2,"[22,20]",,,,,,,,,,,,,,pavilion3.jpg,space,5.4755,0,21,21,78,1,parkinglot3.jpg,poolhall1.jpg,pier5.jpg,observatory1.jpg,,
Image_List_4,,,,,,,,,,,,,,,,46546,2022-03-01_20h03.42.126,analogCatScenes,2020.1.3,Win32,60,"[1366,768]","[[[0.005208333333333333,-0.1953125],[0.005208333333333333,-0.1953125],[0.014322916666666666,-0.1796875],[0.03125,-0.15364583333333334],[0.044270833333333336,-0.140625],[0.055989583333333336,-0.13541666666666666],[0.059895833333333336,-0.13411458333333334],[0.059895833333333336,-0.13411458333333334]]]",1,[8],,,,,,,,,,,,,,doctor1.jpg,space,2.9404,0,22,22,36,1,diner14.jpg,dormroom9.jpg,dining_car3.jpg,checkoutcounter9.jpg,,
Image_List_4,,,,,,,,,,,,,,,,46546,2022-03-01_20h03.42.126,analogCatScenes,2020.1.3,Win32,60,"[1366,768]","[[[0.006510416666666667,-0.19921875],[0.006510416666666667,-0.19921875],[0.022135416666666668,-0.19791666666666666],[0.04296875,-0.19140625],[0.059895833333333336,-0.18359375],[0.07421875,-0.17447916666666666],[0.08854166666666667,-0.16536458333333334],[0.1015625,-0.15234375],[0.11067708333333333,-0.13671875],[0.1171875,-0.125],[0.12109375,-0.11588541666666667],[0.12630208333333334,-0.1015625],[0.12760416666666666,-0.09244791666666667],[0.13151041666666666,-0.07552083333333333],[0.13151041666666666,-0.046875],[0.13151041666666666,-0.032552083333333336],[0.13020833333333334,-0.01171875],[0.12630208333333334,0.013020833333333334],[0.12239583333333333,0.029947916666666668],[0.1171875,0.04296875],[0.11458333333333333,0.05078125],[0.11067708333333333,0.059895833333333336],[0.10546875,0.07161458333333333],[0.10286458333333333,0.07552083333333333],[0.10026041666666667,0.07942708333333333],[0.09895833333333333,0.08333333333333333],[0.09765625,0.08463541666666667],[0.09765625,0.08463541666666667],[0.09765625,0.08463541666666667],[0.09765625,0.08463541666666667]]]",1,[30],,,,,,,,,,,,,,attic4.jpg,space,2.7107,0,23,23,5,1,artStudio3.jpg,bambooforest.jpg,auto_showroom4.jpg,amusement3.jpg,,
Image_List_4,,,,,,,,,,,,,,,,46546,2022-03-01_20h03.42.126,analogCatScenes,2020.1.3,Win32,60,"[1366,768]","[[[0.00390625,-0.19921875],[0.00390625,-0.19921875],[0.0026041666666666665,-0.19921875],[0,-0.1953125],[-0.00390625,-0.19270833333333334],[-0.009114583333333334,-0.19140625],[-0.014322916666666666,-0.1875],[-0.020833333333333332,-0.18489583333333334],[-0.033854166666666664,-0.17838541666666666],[-0.044270833333333336,-0.17317708333333334],[-0.059895833333333336,-0.16666666666666666],[-0.06901041666666667,-0.1640625],[-0.078125,-0.16145833333333334],[-0.09505208333333333,-0.15625],[-0.109375,-0.15234375],[-0.1328125,-0.14583333333333334],[-0.14583333333333334,-0.14192708333333334],[-0.16666666666666666,-0.13411458333333334],[-0.18489583333333334,-0.13020833333333334],[-0.18880208333333334,-0.12890625],[-0.19140625,-0.12890625],[-0.19140625,-0.12890625],[-0.19140625,-0.12890625]],[[0.006510416666666667,-0.19921875],[0.006510416666666667,-0.19921875],[0.006510416666666667,-0.19921875],[0.009114583333333334,-0.19661458333333334],[0.015625,-0.19140625],[0.020833333333333332,-0.18619791666666666],[0.026041666666666668,-0.18359375],[0.040364583333333336,-0.17838541666666666],[0.053385416666666664,-0.17708333333333334],[0.07421875,-0.17317708333333334],[0.08203125,-0.17057291666666666],[0.08333333333333333,-0.17057291666666666],[0.08333333333333333,-0.17057291666666666],[0.08723958333333333,-0.16927083333333334],[0.09114583333333333,-0.16927083333333334],[0.09505208333333333,-0.16927083333333334],[0.09635416666666667,-0.16927083333333334],[0.09635416666666667,-0.16927083333333334],[0.09635416666666667,-0.16927083333333334],[0.09635416666666667,-0.16927083333333334]]]",2,"[23,20]",,,,,,,,,,,,,,castle4.jpg,space,5.1425,0,24,24,19,1,boardwalk2.jpg,casino3.jpg,cafeteria1.jpg,basketballcourt.jpg,,
Image_List_4,,,,,,,,,,,,,,,,46546,2022-03-01_20h03.42.126,analogCatScenes,2020.1.3,Win32,60,"[1366,768]","[[[0.0026041666666666665,-0.19140625],[0.0026041666666666665,-0.19140625],[0.0078125,-0.19140625],[0.020833333333333332,-0.18880208333333334],[0.037760416666666664,-0.18359375],[0.06510416666666667,-0.17447916666666666],[0.11197916666666667,-0.16015625],[0.140625,-0.15494791666666666],[0.17708333333333334,-0.15234375],[0.1953125,-0.15104166666666666],[0.20572916666666666,-0.1484375],[0.20833333333333334,-0.14713541666666666],[0.20833333333333334,-0.14713541666666666],[0.20833333333333334,-0.14713541666666666]],[[0.0013020833333333333,-0.19791666666666666],[0.0013020833333333333,-0.19791666666666666],[-0.0026041666666666665,-0.1953125],[-0.009114583333333334,-0.19010416666666666],[-0.03125,-0.171875],[-0.06640625,-0.1484375],[-0.09505208333333333,-0.13020833333333334],[-0.11588541666666667,-0.11979166666666667],[-0.12109375,-0.1171875],[-0.125,-0.1171875],[-0.12630208333333334,-0.11588541666666667],[-0.12630208333333334,-0.11588541666666667],[-0.12630208333333334,-0.11588541666666667]]]",2,"[14,13]",,,,,,,,,,,,,,closet.jpg,space,3.6683,0,25,25,27,1,castle3.jpg,courtroom3.jpg,churchInside4.jpg,brewery2.jpg,,
Image_List_4,,,,,,,,,,,,,,,,46546,2022-03-01_20h03.42.126,analogCatScenes,2020.1.3,Win32,60,"[1366,768]","[[[-0.00390625,-0.19921875],[-0.005208333333333333,-0.19921875],[-0.016927083333333332,-0.19661458333333334],[-0.0390625,-0.18880208333333334],[-0.08723958333333333,-0.17708333333333334],[-0.11848958333333333,-0.16927083333333334],[-0.1484375,-0.16145833333333334],[-0.1796875,-0.15104166666666666],[-0.19270833333333334,-0.14583333333333334],[-0.19270833333333334,-0.14583333333333334],[-0.19270833333333334,-0.14583333333333334]],[[0,-0.19791666666666666],[0.0026041666666666665,-0.19921875],[0.010416666666666666,-0.20052083333333334],[0.029947916666666668,-0.20052083333333334],[0.046875,-0.1953125],[0.0625,-0.19270833333333334],[0.08333333333333333,-0.1875],[0.09505208333333333,-0.18359375],[0.11458333333333333,-0.17447916666666666],[0.13411458333333334,-0.16015625],[0.14713541666666666,-0.1484375],[0.16015625,-0.13151041666666666],[0.16536458333333334,-0.11848958333333333],[0.171875,-0.10286458333333333],[0.17578125,-0.08333333333333333],[0.17708333333333334,-0.06380208333333333],[0.17578125,-0.05078125],[0.17057291666666666,-0.036458333333333336],[0.17057291666666666,-0.032552083333333336],[0.16927083333333334,-0.028645833333333332],[0.16927083333333334,-0.02734375],[0.16927083333333334,-0.02734375]],[[-0.0026041666666666665,-0.20182291666666666],[-0.0026041666666666665,-0.20182291666666666],[-0.0026041666666666665,-0.20182291666666666],[0.0026041666666666665,-0.20182291666666666],[0.036458333333333336,-0.20182291666666666],[0.08854166666666667,-0.19791666666666666],[0.14453125,-0.18619791666666666],[0.16927083333333334,-0.18098958333333334],[0.19791666666666666,-0.16927083333333334],[0.20703125,-0.16276041666666666],[0.21223958333333334,-0.15494791666666666],[0.21614583333333334,-0.14583333333333334],[0.22265625,-0.13151041666666666],[0.23046875,-0.1171875],[0.234375,-0.10807291666666667],[0.23828125,-0.09635416666666667],[0.24348958333333334,-0.08463541666666667],[0.24739583333333334,-0.07421875],[0.25390625,-0.061197916666666664],[0.2578125,-0.05078125],[0.2604166666666667,-0.0390625],[0.2643229166666667,-0.0234375],[0.26953125,-0.006510416666666667],[0.2708333333333333,0.005208333333333333],[0.2721354166666667,0.01171875],[0.2721354166666667,0.01953125],[0.2734375,0.026041666666666668],[0.2734375,0.03125],[0.2734375,0.036458333333333336],[0.2747395833333333,0.04296875],[0.2747395833333333,0.048177083333333336],[0.2747395833333333,0.049479166666666664],[0.2747395833333333,0.049479166666666664],[0.2747395833333333,0.049479166666666664]],[[0,-0.19661458333333334],[0.01953125,-0.19661458333333334],[0.040364583333333336,-0.1953125],[0.0703125,-0.19270833333333334],[0.09505208333333333,-0.18619791666666666],[0.11328125,-0.18098958333333334],[0.13020833333333334,-0.17447916666666666],[0.14973958333333334,-0.16796875],[0.17057291666666666,-0.16145833333333334],[0.1875,-0.15364583333333334],[0.1953125,-0.1484375],[0.20052083333333334,-0.14322916666666666],[0.21223958333333334,-0.13671875],[0.22265625,-0.12630208333333334],[0.23177083333333334,-0.11979166666666667],[0.23958333333333334,-0.11197916666666667],[0.25,-0.10026041666666667],[0.2604166666666667,-0.0859375],[0.265625,-0.07552083333333333],[0.2721354166666667,-0.0625],[0.27734375,-0.046875],[0.28125,-0.03515625],[0.2864583333333333,-0.020833333333333332],[0.2877604166666667,-0.010416666666666666],[0.2890625,-0.00390625],[0.2903645833333333,0.005208333333333333],[0.2903645833333333,0.01171875],[0.2916666666666667,0.016927083333333332],[0.2916666666666667,0.020833333333333332],[0.29296875,0.028645833333333332],[0.29296875,0.036458333333333336],[0.2942708333333333,0.04296875],[0.296875,0.05078125],[0.2981770833333333,0.061197916666666664],[0.2994791666666667,0.06640625],[0.3020833333333333,0.0703125],[0.3033854166666667,0.07421875],[0.3072916666666667,0.08203125],[0.3111979166666667,0.08854166666666667],[0.31640625,0.09505208333333333],[0.3190104166666667,0.1015625],[0.3203125,0.10416666666666667],[0.3216145833333333,0.10677083333333333],[0.3229166666666667,0.10677083333333333],[0.3229166666666667,0.10807291666666667],[0.32421875,0.109375],[0.3255208333333333,0.11067708333333333],[0.3255208333333333,0.11197916666666667],[0.3255208333333333,0.11328125],[0.3268229166666667,0.11458333333333333],[0.328125,0.11588541666666667],[0.328125,0.11588541666666667],[0.328125,0.1171875],[0.3294270833333333,0.11848958333333333],[0.3294270833333333,0.11848958333333333],[0.3294270833333333,0.11848958333333333],[0.3307291666666667,0.11848958333333333],[0.3307291666666667,0.11979166666666667],[0.3307291666666667,0.11979166666666667],[0.3307291666666667,0.11979166666666667],[0.3307291666666667,0.11979166666666667],[0.3307291666666667,0.11979166666666667],[0.3307291666666667,0.11979166666666667],[0.3307291666666667,0.11979166666666667],[0.3307291666666667,0.11979166666666667],[0.3307291666666667,0.11979166666666667],[0.3307291666666667,0.11979166666666667],[0.3307291666666667,0.11979166666666667]]]",4,"[11,22,34,68]",,,,,,,,,,,,,,liquorstore2.jpg,space,7.9484,0,26,26,67,1,library_aisle3.jpg,park7.jpg,laundromat4.jpg,hospitalroom2.jpg,,
Image_List_4,,,,,,,,,,,,,,,,46546,2022-03-01_20h03.42.126,analogCatScenes,2020.1.3,Win32,60,"[1366,768]","[[[0.0013020833333333333,-0.19661458333333334],[0,-0.19791666666666666],[-0.006510416666666667,-0.19921875],[-0.022135416666666668,-0.20052083333333334],[-0.0546875,-0.20052083333333334],[-0.09114583333333333,-0.1953125],[-0.11328125,-0.19140625],[-0.1484375,-0.18489583333333334],[-0.17838541666666666,-0.17708333333333334],[-0.19010416666666666,-0.171875],[-0.1953125,-0.17057291666666666],[-0.1953125,-0.17057291666666666],[-0.19270833333333334,-0.1640625],[-0.18098958333333334,-0.15755208333333334],[-0.14583333333333334,-0.14453125],[-0.07291666666666667,-0.13151041666666666],[-0.0234375,-0.12760416666666666],[0.037760416666666664,-0.11588541666666667],[0.06380208333333333,-0.109375],[0.09114583333333333,-0.10416666666666667],[0.11197916666666667,-0.1015625],[0.11458333333333333,-0.1015625],[0.11458333333333333,-0.1015625],[0.11458333333333333,-0.1015625]],[[0.00390625,-0.20182291666666666],[0.005208333333333333,-0.20182291666666666],[0.013020833333333334,-0.20182291666666666],[0.026041666666666668,-0.20182291666666666],[0.045572916666666664,-0.19921875],[0.07942708333333333,-0.1953125],[0.13151041666666666,-0.18880208333333334],[0.17578125,-0.18489583333333334],[0.20182291666666666,-0.18229166666666666],[0.20703125,-0.18098958333333334],[0.20833333333333334,-0.18098958333333334]],[[-0.0026041666666666665,-0.20052083333333334],[-0.020833333333333332,-0.203125],[-0.0703125,-0.20442708333333334],[-0.10546875,-0.20572916666666666],[-0.15755208333333334,-0.20703125],[-0.18880208333333334,-0.20963541666666666],[-0.20182291666666666,-0.2109375],[-0.21354166666666666,-0.21223958333333334],[-0.23177083333333334,-0.21484375],[-0.2421875,-0.21614583333333334],[-0.24739583333333334,-0.21614583333333334],[-0.25,-0.21614583333333334],[-0.25,-0.21614583333333334],[-0.25,-0.21614583333333334]]]",3,"[24,11,14]",,,,,,,,,,,,,,greenhouse.jpg,space,5.5774,0,27,27,49,1,frontDoor3.jpg,greenhouse5.jpg,flowershop3.jpg,farm2.jpg,,
Image_List_4,,,,,,,,,,,,,,,,46546,2022-03-01_20h03.42.126,analogCatScenes,2020.1.3,Win32,60,"[1366,768]","[[[0.0013020833333333333,-0.20052083333333334],[0.0013020833333333333,-0.20052083333333334],[0.0013020833333333333,-0.18489583333333334],[-0.0026041666666666665,-0.13671875],[-0.005208333333333333,-0.08463541666666667],[-0.005208333333333333,-0.041666666666666664],[-0.005208333333333333,-0.014322916666666666],[-0.005208333333333333,-0.009114583333333334],[-0.005208333333333333,-0.009114583333333334],[-0.005208333333333333,-0.009114583333333334]]]",1,[10],,,,,,,,,,,,,,hallway2.jpg,space,2.7681,0,28,28,50,1,frontLawn4.jpg,grocerystore6.jpg,forestpath6.jpg,fireplace4.jpg,,
Image_List_4,,,,,,,,,,,,,,,,46546,2022-03-01_20h03.42.126,analogCatScenes,2020.1.3,Win32,60,"[1366,768]","[[[0.0013020833333333333,-0.20052083333333334],[0.005208333333333333,-0.19661458333333334],[0.009114583333333334,-0.19270833333333334],[0.016927083333333332,-0.18619791666666666],[0.02734375,-0.17708333333333334],[0.040364583333333336,-0.15625],[0.049479166666666664,-0.140625],[0.061197916666666664,-0.11458333333333333],[0.06770833333333333,-0.09244791666666667],[0.07161458333333333,-0.078125],[0.07421875,-0.05078125],[0.07552083333333333,-0.03515625],[0.07552083333333333,-0.018229166666666668],[0.07552083333333333,-0.005208333333333333],[0.07552083333333333,-0.0013020833333333333],[0.07552083333333333,-0.0013020833333333333],[0.07552083333333333,-0.0013020833333333333]]]",1,[17],,,,,,,,,,,,,,tvstudio2.jpg,space,3.7203,0,29,29,92,1,staircase.jpg,volleyballcourt.jpg,skatepark7.jpg,soccerfield2.jpg,,
Image_List_4,,,,,,,,,,,,,,,,46546,2022-03-01_20h03.42.126,analogCatScenes,2020.1.3,Win32,60,"[1366,768]","[[[0,-0.19270833333333334],[0,-0.19270833333333334],[0,-0.19270833333333334],[0,-0.1875],[0.005208333333333333,-0.17057291666666666],[0.0078125,-0.15364583333333334],[0.013020833333333334,-0.11979166666666667],[0.013020833333333334,-0.07291666666666667],[0.013020833333333334,-0.0234375],[0.013020833333333334,0.01953125],[0.01171875,0.05078125],[0.01171875,0.07421875],[0.01171875,0.08723958333333333],[0.01171875,0.10807291666666667],[0.01171875,0.12109375],[0.01171875,0.140625],[0.01171875,0.15364583333333334],[0.01171875,0.15885416666666666],[0.01171875,0.16015625],[0.01171875,0.16015625],[0.01171875,0.16015625]]]",1,[21],,,,,,,,,,,,,,highway.jpg,space,3.315,0,30,30,52,1,gasstation7.jpg,hardwarestore1.jpg,frontFoyer6.jpg,forestpath2.jpg,,
Image_List_4,,,,,,,,,,,,,,,,46546,2022-03-01_20h03.42.126,analogCatScenes,2020.1.3,Win32,60,"[1366,768]","[[[0.00390625,-0.19661458333333334],[0.00390625,-0.19661458333333334],[0.00390625,-0.1953125],[0.00390625,-0.18880208333333334],[0.00390625,-0.1796875],[0.00390625,-0.16536458333333334],[0.0013020833333333333,-0.14453125],[-0.00390625,-0.12630208333333334],[-0.006510416666666667,-0.11848958333333333],[-0.01171875,-0.10807291666666667],[-0.01953125,-0.09765625],[-0.026041666666666668,-0.09114583333333333],[-0.040364583333333336,-0.07291666666666667],[-0.053385416666666664,-0.057291666666666664],[-0.07291666666666667,-0.036458333333333336],[-0.09114583333333333,-0.013020833333333334],[-0.10286458333333333,0.0026041666666666665],[-0.11588541666666667,0.014322916666666666],[-0.12760416666666666,0.022135416666666668],[-0.13020833333333334,0.0234375],[-0.13020833333333334,0.0234375]]]",1,[21],,,,,,,,,,,,,,drymountains5.jpg,space,6.0838,0,31,31,39,1,driveway6.jpg,eyeglassstore9.jpg,drycleaners6.jpg,cliff5.jpg,,
Image_List_4,,,,,,,,,,,,,,,,46546,2022-03-01_20h03.42.126,analogCatScenes,2020.1.3,Win32,60,"[1366,768]","[[[0,-0.1953125],[0,-0.1953125],[-0.0026041666666666665,-0.1953125],[-0.005208333333333333,-0.19140625],[-0.01953125,-0.17317708333333334],[-0.044270833333333336,-0.13541666666666666],[-0.05859375,-0.11067708333333333],[-0.08463541666666667,-0.06901041666666667],[-0.1015625,-0.033854166666666664],[-0.10807291666666667,-0.015625],[-0.11067708333333333,0],[-0.109375,0.022135416666666668],[-0.10546875,0.053385416666666664],[-0.1015625,0.07942708333333333],[-0.09895833333333333,0.09244791666666667],[-0.09765625,0.1015625],[-0.09765625,0.11067708333333333],[-0.09635416666666667,0.12369791666666667],[-0.09635416666666667,0.14453125],[-0.09635416666666667,0.15885416666666666],[-0.09635416666666667,0.16276041666666666],[-0.09635416666666667,0.1640625],[-0.09505208333333333,0.16666666666666666],[-0.09375,0.16666666666666666],[-0.09375,0.16927083333333334],[-0.09244791666666667,0.16927083333333334],[-0.09244791666666667,0.171875],[-0.09244791666666667,0.17447916666666666],[-0.09114583333333333,0.18098958333333334],[-0.08984375,0.18619791666666666],[-0.08854166666666667,0.19661458333333334],[-0.08723958333333333,0.203125],[-0.08723958333333333,0.2109375],[-0.08723958333333333,0.21875],[-0.08723958333333333,0.22916666666666666],[-0.08723958333333333,0.23567708333333334],[-0.08854166666666667,0.23958333333333334],[-0.08984375,0.24348958333333334],[-0.08984375,0.24479166666666666],[-0.08984375,0.24479166666666666],[-0.08984375,0.24479166666666666],[-0.08984375,0.24479166666666666]],[[0.0078125,-0.19140625],[0.013020833333333334,-0.18359375],[0.02734375,-0.17317708333333334],[0.04296875,-0.16276041666666666],[0.06640625,-0.1484375],[0.09114583333333333,-0.13541666666666666],[0.125,-0.11848958333333333],[0.14322916666666666,-0.11328125],[0.15104166666666666,-0.11067708333333333],[0.15234375,-0.11067708333333333],[0.15234375,-0.11067708333333333]]]",2,"[42,11]",,,,,,,,,,,,,,weightroom4.jpg,space,5.3124,0,32,32,95,1,waitingroom2.jpg,warehouse2.jpg,stripmall6.jpg,tvstudio3.jpg,,
Image_List_4,,,,,,,,,,,,,,,,46546,2022-03-01_20h03.42.126,analogCatScenes,2020.1.3,Win32,60,"[1366,768]","[[[0.0013020833333333333,-0.19791666666666666],[-0.005208333333333333,-0.19140625],[-0.018229166666666668,-0.17578125],[-0.045572916666666664,-0.13932291666666666],[-0.06770833333333333,-0.09505208333333333],[-0.078125,-0.0703125],[-0.08854166666666667,-0.040364583333333336],[-0.09375,-0.024739583333333332],[-0.09895833333333333,0.006510416666666667],[-0.10416666666666667,0.02734375],[-0.10546875,0.041666666666666664],[-0.10416666666666667,0.05859375],[-0.09895833333333333,0.07161458333333333],[-0.08854166666666667,0.09244791666666667],[-0.07942708333333333,0.10677083333333333],[-0.07421875,0.11848958333333333],[-0.07291666666666667,0.11979166666666667],[-0.07291666666666667,0.11979166666666667],[-0.07291666666666667,0.11979166666666667],[-0.07291666666666667,0.11979166666666667]]]",1,[20],,,,,,,,,,,,,,sandDunes_desert_outdoor8.jpg,space,3.9694,0,33,33,86,1,restaurant14.jpg,stripmall.jpg,ruralroad3.jpg,rooftop4.jpg,,
Image_List_4,,,,,,,,,,,,,,,,46546,2022-03-01_20h03.42.126,analogCatScenes,2020.1.3,Win32,60,"[1366,768]","[[[-0.0026041666666666665,-0.203125],[-0.0026041666666666665,-0.20052083333333334],[0.00390625,-0.19661458333333334],[0.015625,-0.18880208333333334],[0.036458333333333336,-0.17447916666666666],[0.06510416666666667,-0.15625],[0.08854166666666667,-0.140625],[0.11067708333333333,-0.12630208333333334],[0.12239583333333333,-0.11588541666666667],[0.13151041666666666,-0.10807291666666667],[0.13802083333333334,-0.09895833333333333],[0.14583333333333334,-0.08333333333333333],[0.15364583333333334,-0.06510416666666667],[0.16276041666666666,-0.037760416666666664],[0.16796875,-0.022135416666666668],[0.16927083333333334,-0.016927083333333332],[0.171875,-0.009114583333333334],[0.17317708333333334,-0.006510416666666667],[0.17317708333333334,-0.006510416666666667],[0.17317708333333334,-0.006510416666666667],[0.17317708333333334,-0.006510416666666667]],[[-0.006510416666666667,-0.20052083333333334],[-0.006510416666666667,-0.20052083333333334],[-0.006510416666666667,-0.20052083333333334],[-0.006510416666666667,-0.20052083333333334],[-0.014322916666666666,-0.1953125],[-0.024739583333333332,-0.18359375],[-0.0546875,-0.16015625],[-0.08984375,-0.13541666666666666],[-0.10416666666666667,-0.12369791666666667],[-0.11197916666666667,-0.11588541666666667],[-0.11848958333333333,-0.10807291666666667],[-0.12760416666666666,-0.09895833333333333],[-0.13151041666666666,-0.09244791666666667],[-0.13151041666666666,-0.09244791666666667],[-0.13151041666666666,-0.09244791666666667]]]",2,"[21,15]",,,,,,,,,,,,,,airportTerminal3.jpg,space,4.5727,0,34,34,1,1,airportTerminal4.jpg,apartmentBuilding1.jpg,applestore1.jpg,airportTerminal2.jpg,,
Image_List_4,,,,,,,,,,,,,,,,46546,2022-03-01_20h03.42.126,analogCatScenes,2020.1.3,Win32,60,"[1366,768]","[[[-0.005208333333333333,-0.19401041666666666],[-0.00390625,-0.19401041666666666],[-0.0013020833333333333,-0.18880208333333334],[0.0013020833333333333,-0.18359375],[0.00390625,-0.171875],[0.006510416666666667,-0.16015625],[0.0078125,-0.15494791666666666],[0.0078125,-0.14583333333333334],[0.0078125,-0.13802083333333334],[0.009114583333333334,-0.12890625],[0.009114583333333334,-0.12239583333333333],[0.009114583333333334,-0.11848958333333333],[0.009114583333333334,-0.11067708333333333],[0.0078125,-0.09635416666666667],[0.005208333333333333,-0.08463541666666667],[0.0026041666666666665,-0.07421875],[-0.0026041666666666665,-0.06640625],[-0.0078125,-0.059895833333333336],[-0.010416666666666666,-0.055989583333333336],[-0.015625,-0.049479166666666664],[-0.020833333333333332,-0.045572916666666664],[-0.024739583333333332,-0.041666666666666664],[-0.033854166666666664,-0.036458333333333336],[-0.041666666666666664,-0.032552083333333336],[-0.049479166666666664,-0.02734375],[-0.055989583333333336,-0.0234375],[-0.061197916666666664,-0.022135416666666668],[-0.06640625,-0.022135416666666668],[-0.07291666666666667,-0.022135416666666668],[-0.08072916666666667,-0.022135416666666668],[-0.08984375,-0.0234375],[-0.09244791666666667,-0.024739583333333332],[-0.09765625,-0.026041666666666668],[-0.10416666666666667,-0.026041666666666668],[-0.11588541666666667,-0.026041666666666668],[-0.12369791666666667,-0.026041666666666668],[-0.13541666666666666,-0.026041666666666668],[-0.15104166666666666,-0.026041666666666668],[-0.1640625,-0.026041666666666668],[-0.171875,-0.026041666666666668],[-0.18359375,-0.026041666666666668],[-0.19401041666666666,-0.026041666666666668],[-0.203125,-0.026041666666666668],[-0.21484375,-0.024739583333333332],[-0.23177083333333334,-0.020833333333333332],[-0.25,-0.016927083333333332],[-0.2643229166666667,-0.009114583333333334],[-0.2760416666666667,-0.00390625],[-0.28515625,0.0026041666666666665],[-0.2890625,0.0078125],[-0.2916666666666667,0.01171875],[-0.2955729166666667,0.018229166666666668],[-0.2981770833333333,0.01953125],[-0.2981770833333333,0.020833333333333332],[-0.2981770833333333,0.020833333333333332],[-0.2994791666666667,0.020833333333333332]]]",1,[56],,,,,,,,,,,,,,warehouseoutside2.jpg,space,4.6802,0,35,35,93,1,tollbooth8.jpg,volleyballcourt4.jpg,staircase4.jpg,tenniscourt.jpg,,
Image_List_4,,,,,,,,,,,,,,,,46546,2022-03-01_20h03.42.126,analogCatScenes,2020.1.3,Win32,60,"[1366,768]","[[[0,-0.19140625],[0,-0.19140625],[0,-0.18880208333333334],[0,-0.18619791666666666],[0,-0.18489583333333334],[0,-0.18229166666666666],[0,-0.17838541666666666],[0,-0.171875],[0.0013020833333333333,-0.16666666666666666],[0.0026041666666666665,-0.16015625],[0.00390625,-0.15494791666666666],[0.00390625,-0.14973958333333334],[0.005208333333333333,-0.14192708333333334],[0.005208333333333333,-0.1328125],[0.006510416666666667,-0.12760416666666666],[0.006510416666666667,-0.12239583333333333],[0.0078125,-0.11328125],[0.006510416666666667,-0.10546875],[0.005208333333333333,-0.08854166666666667],[0.00390625,-0.07682291666666667],[0.00390625,-0.0703125],[0,-0.059895833333333336],[-0.0013020833333333333,-0.049479166666666664],[-0.00390625,-0.04296875],[-0.006510416666666667,-0.03515625],[-0.0078125,-0.026041666666666668],[-0.0078125,-0.020833333333333332],[-0.0078125,-0.014322916666666666],[-0.006510416666666667,-0.010416666666666666],[-0.005208333333333333,-0.00390625],[-0.0013020833333333333,0.0026041666666666665],[0.0026041666666666665,0.006510416666666667],[0.010416666666666666,0.01171875],[0.016927083333333332,0.014322916666666666],[0.0234375,0.016927083333333332],[0.029947916666666668,0.01953125],[0.036458333333333336,0.022135416666666668],[0.04296875,0.0234375],[0.05078125,0.024739583333333332],[0.057291666666666664,0.02734375],[0.0703125,0.032552083333333336],[0.07682291666666667,0.036458333333333336],[0.078125,0.037760416666666664],[0.07942708333333333,0.0390625],[0.08203125,0.046875],[0.08333333333333333,0.052083333333333336],[0.08333333333333333,0.057291666666666664],[0.08333333333333333,0.06380208333333333],[0.07682291666666667,0.0703125],[0.06640625,0.07552083333333333],[0.057291666666666664,0.08072916666666667],[0.052083333333333336,0.08463541666666667],[0.046875,0.08723958333333333],[0.044270833333333336,0.09244791666666667],[0.041666666666666664,0.09765625],[0.041666666666666664,0.10286458333333333],[0.04296875,0.11067708333333333],[0.045572916666666664,0.11979166666666667],[0.05078125,0.12760416666666666],[0.053385416666666664,0.13020833333333334],[0.055989583333333336,0.13411458333333334],[0.05859375,0.13671875],[0.059895833333333336,0.13802083333333334],[0.061197916666666664,0.140625],[0.06380208333333333,0.14453125],[0.06901041666666667,0.14973958333333334],[0.07161458333333333,0.15494791666666666],[0.07552083333333333,0.15755208333333334],[0.078125,0.16145833333333334],[0.08072916666666667,0.16536458333333334],[0.08333333333333333,0.16796875],[0.08333333333333333,0.16796875],[0.08333333333333333,0.16796875],[0.08333333333333333,0.16796875],[0.08333333333333333,0.16796875],[0.08333333333333333,0.16796875]]]",1,[76],,,,,,,,,,,,,,dining_car6.jpg,space,4.877,0,36,36,35,1,deck5.jpg,dock3.jpg,cubicle7.jpg,carmechanic2.jpg,,
Image_List_4,,,,,,,,,,,,,,,,46546,2022-03-01_20h03.42.126,analogCatScenes,2020.1.3,Win32,60,"[1366,768]","[[[0.005208333333333333,-0.19401041666666666],[0.005208333333333333,-0.19401041666666666],[0.006510416666666667,-0.19401041666666666],[0.01953125,-0.19010416666666666],[0.029947916666666668,-0.19010416666666666],[0.06770833333333333,-0.18880208333333334],[0.11458333333333333,-0.18229166666666666],[0.15234375,-0.17578125],[0.17317708333333334,-0.17578125],[0.18229166666666666,-0.17578125],[0.18229166666666666,-0.17578125],[0.18229166666666666,-0.17578125],[0.18229166666666666,-0.17578125]],[[0.0026041666666666665,-0.19140625],[0.0026041666666666665,-0.19140625],[-0.010416666666666666,-0.1953125],[-0.029947916666666668,-0.19661458333333334],[-0.061197916666666664,-0.1953125],[-0.1171875,-0.1875],[-0.17057291666666666,-0.18229166666666666],[-0.1875,-0.18098958333333334]]]",2,"[13,8]",,,,,,,,,,,,,,apartmentBuilding4.jpg,space,4.735,0,37,37,2,1,alley1.jpg,arcade1.jpg,applestore6.jpg,airportTerminal6.jpg,,
Image_List_4,,,,,,,,,,,,,,,,46546,2022-03-01_20h03.42.126,analogCatScenes,2020.1.3,Win32,60,"[1366,768]","[[[0.006510416666666667,-0.19791666666666666],[0.006510416666666667,-0.19791666666666666],[0.006510416666666667,-0.19791666666666666],[0.005208333333333333,-0.19791666666666666],[0,-0.1953125],[-0.016927083333333332,-0.1875],[-0.032552083333333336,-0.17838541666666666],[-0.041666666666666664,-0.16536458333333334],[-0.044270833333333336,-0.15755208333333334],[-0.046875,-0.14583333333333334],[-0.048177083333333336,-0.13151041666666666],[-0.048177083333333336,-0.12760416666666666],[-0.048177083333333336,-0.12760416666666666],[-0.048177083333333336,-0.12760416666666666],[-0.048177083333333336,-0.12760416666666666]],[[0.0078125,-0.19791666666666666],[0.024739583333333332,-0.20182291666666666],[0.0546875,-0.20572916666666666],[0.08984375,-0.20833333333333334],[0.13151041666666666,-0.20963541666666666],[0.171875,-0.20963541666666666],[0.20182291666666666,-0.20182291666666666],[0.23567708333333334,-0.18619791666666666],[0.24739583333333334,-0.1796875],[0.2604166666666667,-0.17317708333333334],[0.265625,-0.16927083333333334],[0.2734375,-0.1640625],[0.27734375,-0.15755208333333334],[0.2799479166666667,-0.15494791666666666],[0.2799479166666667,-0.15494791666666666],[0.2799479166666667,-0.15494791666666666]],[[-0.00390625,-0.20182291666666666],[-0.015625,-0.203125],[-0.03515625,-0.20572916666666666],[-0.06770833333333333,-0.20833333333333334],[-0.08984375,-0.20963541666666666],[-0.12890625,-0.20963541666666666],[-0.16927083333333334,-0.20963541666666666],[-0.20442708333333334,-0.20963541666666666],[-0.22265625,-0.20963541666666666],[-0.23958333333333334,-0.20963541666666666],[-0.25390625,-0.20963541666666666],[-0.2682291666666667,-0.20963541666666666],[-0.2838541666666667,-0.20572916666666666],[-0.3033854166666667,-0.19921875],[-0.3190104166666667,-0.19401041666666666],[-0.3203125,-0.19140625],[-0.3203125,-0.19010416666666666],[-0.3203125,-0.19010416666666666],[-0.3203125,-0.18880208333333334]]]",3,"[15,16,19]",,,,,,,,,,,,,,castle2.jpg,space,4.6588,0,38,38,18,1,bleachers5.jpg,casino1.jpg,brewery4.jpg,basement6.jpg,,
Image_List_4,,,,,,,,,,,,,,,,46546,2022-03-01_20h03.42.126,analogCatScenes,2020.1.3,Win32,60,"[1366,768]","[[[0.009114583333333334,-0.20182291666666666],[0.0078125,-0.20182291666666666],[-0.0026041666666666665,-0.19661458333333334],[-0.014322916666666666,-0.1875],[-0.028645833333333332,-0.171875],[-0.055989583333333336,-0.13932291666666666],[-0.078125,-0.09635416666666667],[-0.09635416666666667,-0.0546875],[-0.10416666666666667,-0.03125],[-0.11197916666666667,-0.0013020833333333333],[-0.11328125,0.022135416666666668],[-0.11197916666666667,0.05859375],[-0.1015625,0.09505208333333333],[-0.08984375,0.11197916666666667],[-0.0703125,0.12760416666666666],[-0.040364583333333336,0.14583333333333334],[-0.020833333333333332,0.15755208333333334],[-0.013020833333333334,0.16276041666666666],[-0.01171875,0.1640625]]]",1,[19],,,,,,,,,,,,,,boardwalk4.jpg,space,3.2616,0,39,39,13,1,balconyIN2.jpg,bowlingalley3.jpg,beach2.jpg,backyard6.jpg,,
Image_List_4,,,,,,,,,,,,,,,,46546,2022-03-01_20h03.42.126,analogCatScenes,2020.1.3,Win32,60,"[1366,768]","[[[0.0013020833333333333,-0.19401041666666666],[0.0026041666666666665,-0.19401041666666666],[0.029947916666666668,-0.18619791666666666],[0.06901041666666667,-0.17447916666666666],[0.12369791666666667,-0.15104166666666666],[0.21744791666666666,-0.10026041666666667],[0.2669270833333333,-0.0703125],[0.3151041666666667,-0.052083333333333336],[0.3255208333333333,-0.049479166666666664],[0.3255208333333333,-0.048177083333333336],[0.3255208333333333,-0.048177083333333336],[0.3255208333333333,-0.048177083333333336],[0.3255208333333333,-0.048177083333333336],[0.3255208333333333,-0.048177083333333336],[0.3255208333333333,-0.048177083333333336],[0.3255208333333333,-0.048177083333333336],[0.3255208333333333,-0.048177083333333336],[0.3255208333333333,-0.048177083333333336],[0.3255208333333333,-0.048177083333333336],[0.3255208333333333,-0.048177083333333336],[0.3255208333333333,-0.048177083333333336]]]",1,[21],,,,,,,,,,,,,,checkoutcounter2.jpg,space,3.0116,0,40,40,25,1,campsite7.jpg,conference3.jpg,church3.jpg,botanicalGarden4.jpg,,
Image_List_4,,,,,,,,,,,,,,,,46546,2022-03-01_20h03.42.126,analogCatScenes,2020.1.3,Win32,60,"[1366,768]","[[[-0.0026041666666666665,-0.20182291666666666],[-0.0026041666666666665,-0.20182291666666666],[-0.0026041666666666665,-0.20182291666666666],[-0.0026041666666666665,-0.20182291666666666],[-0.005208333333333333,-0.19661458333333334],[-0.013020833333333334,-0.18229166666666666],[-0.01953125,-0.17317708333333334],[-0.02734375,-0.16276041666666666],[-0.040364583333333336,-0.13932291666666666],[-0.052083333333333336,-0.11848958333333333],[-0.06510416666666667,-0.09895833333333333],[-0.07682291666666667,-0.0859375],[-0.0859375,-0.078125],[-0.09114583333333333,-0.07552083333333333],[-0.09375,-0.07421875],[-0.09765625,-0.07291666666666667],[-0.10286458333333333,-0.07161458333333333],[-0.10546875,-0.0703125],[-0.10677083333333333,-0.0703125],[-0.10677083333333333,-0.0703125]],[[0.005208333333333333,-0.19921875],[0.005208333333333333,-0.19921875],[0.00390625,-0.19401041666666666],[-0.005208333333333333,-0.16276041666666666],[-0.01171875,-0.14453125],[-0.022135416666666668,-0.12109375],[-0.026041666666666668,-0.11067708333333333],[-0.02734375,-0.09505208333333333],[-0.024739583333333332,-0.0859375],[-0.018229166666666668,-0.08072916666666667],[-0.00390625,-0.06901041666666667],[0.013020833333333334,-0.059895833333333336],[0.032552083333333336,-0.048177083333333336],[0.059895833333333336,-0.036458333333333336],[0.09895833333333333,-0.028645833333333332],[0.125,-0.026041666666666668],[0.1484375,-0.022135416666666668],[0.18229166666666666,-0.010416666666666666],[0.20572916666666666,0],[0.22526041666666666,0.0078125],[0.24479166666666666,0.015625],[0.2669270833333333,0.022135416666666668],[0.2903645833333333,0.03125],[0.3020833333333333,0.0390625],[0.30859375,0.046875],[0.3098958333333333,0.046875],[0.3098958333333333,0.046875],[0.3098958333333333,0.046875],[0.3098958333333333,0.046875],[0.3098958333333333,0.046875],[0.3098958333333333,0.046875],[0.3098958333333333,0.046875]]]",2,"[20,32]",,,,,,,,,,,,,,labClass7.jpg,space,6.1057,0,41,41,65,1,igloo5.jpg,newsstand7.jpg,laundromat2.jpeg,homeoffice8.jpg,,
Image_List_4,,,,,,,,,,,,,,,,46546,2022-03-01_20h03.42.126,analogCatScenes,2020.1.3,Win32,60,"[1366,768]","[[[0.006510416666666667,-0.19270833333333334],[0.006510416666666667,-0.19270833333333334],[0.015625,-0.18619791666666666],[0.059895833333333336,-0.15234375],[0.14583333333333334,-0.09375],[0.24609375,-0.040364583333333336],[0.30859375,-0.016927083333333332],[0.3229166666666667,-0.006510416666666667],[0.3229166666666667,-0.006510416666666667],[0.3229166666666667,-0.006510416666666667]]]",1,[10],,,,,,,,,,,,,,restaurant8.jpg,space,2.4044,0,42,42,83,1,readingroom1.jpg,sculpturegarden1.jpg,promenadeDeck6.jpg,readingroom2.jpg,,
