image_list,key_resp_intructions.keys,key_resp_intructions.rt,key_resp_intructions_3.keys,key_resp_intructions_3.rt,PracticeComplete_2.keys,PracticeComplete_2.rt,PracticeComplete_3.keys,PracticeComplete_3.rt,demo_trials.thisRepN,demo_trials.thisTrialN,demo_trials.thisN,demo_trials.thisIndex,demo_trials.ran,demo_images,path_images,participant,date,expName,psychopyVersion,OS,frameRate,windowSize,drawing,numDrawings,drawingSizes,practice_complete.keys,practice_complete.rt,PracticeComplete.keys,PracticeComplete.rt,practice_trials.thisRepN,practice_trials.thisTrialN,practice_trials.thisN,practice_trials.thisIndex,practice_trials.ran,practice_images,feedback_images,key_resp_intructions_2.keys,key_resp_intructions_2.rt,Image_List_4,trial_complete.keys,trial_complete.rt,trials.thisRepN,trials.thisTrialN,trials.thisN,trials.thisIndex,trials.ran,Image_List_1,Image_List_2,Image_List_3,Image_List_5,key_resp.keys,key_resp.rt
Image_List_4,space,19.343,space,3.301,space,6.457,space,1.042,0,0,0,4,1,left.jpg,left_path.jpg,46602,2022-01-27_19h55.58.997,analogCatScenes,2020.1.3,MacIntel,60,,,,,,,,,,,,,,,,,,,,,,,,,,,,,,,
Image_List_4,,,,,space,1.173,space,1.678,0,1,1,6,1,right_left.jpg,right_left_path.jpg,46602,2022-01-27_19h55.58.997,analogCatScenes,2020.1.3,MacIntel,60,,,,,,,,,,,,,,,,,,,,,,,,,,,,,,,
Image_List_4,,,,,space,0.925,space,0.909,0,2,2,3,1,ahead_right_left.jpg,ahead_right_left_path.jpg,46602,2022-01-27_19h55.58.997,analogCatScenes,2020.1.3,MacIntel,60,,,,,,,,,,,,,,,,,,,,,,,,,,,,,,,
Image_List_4,,,,,space,0.044,space,0.957,0,3,3,5,1,right.jpg,right_path.jpg,46602,2022-01-27_19h55.58.997,analogCatScenes,2020.1.3,MacIntel,60,,,,,,,,,,,,,,,,,,,,,,,,,,,,,,,
Image_List_4,,,,,space,0.787,space,0.52,0,4,4,2,1,ahead_right.jpg,ahead_right_path.jpg,46602,2022-01-27_19h55.58.997,analogCatScenes,2020.1.3,MacIntel,60,,,,,,,,,,,,,,,,,,,,,,,,,,,,,,,
Image_List_4,,,,,space,0.525,space,0.512,0,5,5,1,1,ahead_left.jpg,ahead_left_path.jpg,46602,2022-01-27_19h55.58.997,analogCatScenes,2020.1.3,MacIntel,60,,,,,,,,,,,,,,,,,,,,,,,,,,,,,,,
Image_List_4,,,,,space,1.274,space,0.567,0,6,6,0,1,ahead.jpg,ahead_path.jpg,46602,2022-01-27_19h55.58.997,analogCatScenes,2020.1.3,MacIntel,60,,,,,,,,,,,,,,,,,,,,,,,,,,,,,,,
Image_List_4,,,,,,,,,,,,,,,,46602,2022-01-27_19h55.58.997,analogCatScenes,2020.1.3,MacIntel,60,"[1440,900]","[[[-0.0044444444444444444,-0.1988888888888889],[-0.0044444444444444444,-0.1988888888888889],[-0.0044444444444444444,-0.1988888888888889],[-0.0044444444444444444,-0.1988888888888889],[-0.0044444444444444444,-0.1988888888888889],[-0.0044444444444444444,-0.1988888888888889],[-0.0044444444444444444,-0.1988888888888889],[-0.0044444444444444444,-0.1988888888888889],[-0.0044444444444444444,-0.1988888888888889],[-0.0044444444444444444,-0.1988888888888889],[-0.0011111111111111111,-0.19444444444444445],[0.006666666666666667,-0.18666666666666668],[0.016666666666666666,-0.18],[0.034444444444444444,-0.16444444444444445],[0.05333333333333334,-0.15],[0.06777777777777778,-0.14],[0.07,-0.1388888888888889],[0.07666666666666666,-0.13333333333333333],[0.08888888888888889,-0.12666666666666668],[0.09222222222222222,-0.12555555555555556],[0.09555555555555556,-0.12333333333333334],[0.10222222222222223,-0.11888888888888889],[0.10555555555555556,-0.11555555555555555],[0.11555555555555555,-0.10777777777777778],[0.12444444444444444,-0.10111111111111111],[0.13666666666666666,-0.09111111111111111],[0.14555555555555555,-0.08444444444444445],[0.15666666666666668,-0.07555555555555556],[0.16,-0.07333333333333333],[0.16777777777777778,-0.06666666666666667],[0.17,-0.06555555555555556],[0.18,-0.06],[0.18444444444444444,-0.058888888888888886],[0.18888888888888888,-0.056666666666666664],[0.1988888888888889,-0.052222222222222225],[0.20333333333333334,-0.05],[0.21222222222222223,-0.04555555555555556],[0.21555555555555556,-0.044444444444444446],[0.22111111111111112,-0.042222222222222223],[0.2288888888888889,-0.03777777777777778],[0.23333333333333334,-0.03666666666666667],[0.23666666666666666,-0.034444444444444444],[0.24666666666666667,-0.03222222222222222],[0.24888888888888888,-0.03111111111111111],[0.25666666666666665,-0.028888888888888888],[0.26,-0.028888888888888888],[0.2633333333333333,-0.027777777777777776],[0.27111111111111114,-0.025555555555555557],[0.27444444444444444,-0.024444444444444446],[0.28555555555555556,-0.02],[0.2911111111111111,-0.01888888888888889],[0.29444444444444445,-0.017777777777777778],[0.30333333333333334,-0.014444444444444444],[0.3055555555555556,-0.013333333333333334],[0.3088888888888889,-0.012222222222222223],[0.31555555555555553,-0.008888888888888889],[0.32,-0.0077777777777777776],[0.3233333333333333,-0.006666666666666667],[0.3277777777777778,-0.005555555555555556],[0.33111111111111113,-0.0044444444444444444],[0.3377777777777778,-0.0022222222222222222],[0.34,-0.0022222222222222222],[0.3422222222222222,-0.0011111111111111111],[0.34444444444444444,0],[0.34555555555555556,0],[0.34555555555555556,0],[0.34555555555555556,0],[0.34555555555555556,0],[0.34555555555555556,0],[0.34555555555555556,0],[0.34555555555555556,0],[0.34555555555555556,0],[0.34555555555555556,0],[0.34555555555555556,0],[0.34555555555555556,0]]]",1,[75],space,15.459,space,1.803,0,0,0,5,1,right_2.jpg,right_2_path.jpg,,,,,,,,,,,,,,,,
Image_List_4,,,,,,,,,,,,,,,,46602,2022-01-27_19h55.58.997,analogCatScenes,2020.1.3,MacIntel,60,"[1440,900]","[[[-0.0011111111111111111,-0.20555555555555555],[-0.0011111111111111111,-0.20555555555555555],[-0.0011111111111111111,-0.20555555555555555],[-0.0011111111111111111,-0.20555555555555555],[-0.0011111111111111111,-0.20555555555555555],[-0.0011111111111111111,-0.20555555555555555],[-0.0011111111111111111,-0.20555555555555555],[-0.0011111111111111111,-0.20555555555555555],[-0.0011111111111111111,-0.20555555555555555],[-0.0011111111111111111,-0.20555555555555555],[-0.0011111111111111111,-0.20555555555555555],[-0.0011111111111111111,-0.20555555555555555],[-0.0011111111111111111,-0.20555555555555555],[-0.0011111111111111111,-0.20555555555555555],[-0.0011111111111111111,-0.20555555555555555],[-0.0011111111111111111,-0.20555555555555555],[-0.0011111111111111111,-0.20333333333333334],[-0.0011111111111111111,-0.19666666666666666],[-0.0011111111111111111,-0.1922222222222222],[-0.0022222222222222222,-0.18333333333333332],[-0.0033333333333333335,-0.17444444444444446],[-0.0044444444444444444,-0.15888888888888889],[-0.0044444444444444444,-0.1511111111111111],[-0.005555555555555556,-0.1411111111111111],[-0.006666666666666667,-0.13],[-0.0077777777777777776,-0.12222222222222222],[-0.0077777777777777776,-0.11444444444444445],[-0.008888888888888889,-0.10666666666666667],[-0.008888888888888889,-0.1],[-0.01,-0.09222222222222222],[-0.01,-0.08333333333333333],[-0.01,-0.08],[-0.01,-0.07555555555555556],[-0.01,-0.07],[-0.01,-0.06222222222222222],[-0.011111111111111112,-0.05444444444444444],[-0.011111111111111112,-0.04888888888888889],[-0.011111111111111112,-0.04111111111111111],[-0.012222222222222223,-0.035555555555555556],[-0.012222222222222223,-0.027777777777777776],[-0.012222222222222223,-0.02],[-0.012222222222222223,-0.006666666666666667],[-0.012222222222222223,-0.0022222222222222222],[-0.012222222222222223,0.0022222222222222222],[-0.012222222222222223,0.0077777777777777776],[-0.012222222222222223,0.011111111111111112],[-0.012222222222222223,0.02],[-0.012222222222222223,0.027777777777777776],[-0.012222222222222223,0.034444444444444444],[-0.012222222222222223,0.04],[-0.012222222222222223,0.044444444444444446],[-0.013333333333333334,0.04777777777777778],[-0.013333333333333334,0.05444444444444444],[-0.013333333333333334,0.05555555555555555],[-0.014444444444444444,0.06111111111111111],[-0.014444444444444444,0.06555555555555556],[-0.014444444444444444,0.07],[-0.014444444444444444,0.07222222222222222],[-0.014444444444444444,0.07666666666666666],[-0.014444444444444444,0.08],[-0.014444444444444444,0.08333333333333333],[-0.015555555555555555,0.08555555555555555],[-0.015555555555555555,0.08777777777777777],[-0.015555555555555555,0.09111111111111111],[-0.015555555555555555,0.09333333333333334],[-0.015555555555555555,0.09666666666666666],[-0.015555555555555555,0.09777777777777778],[-0.015555555555555555,0.09888888888888889],[-0.015555555555555555,0.09888888888888889],[-0.015555555555555555,0.1],[-0.015555555555555555,0.1],[-0.015555555555555555,0.10111111111111111],[-0.016666666666666666,0.10222222222222223],[-0.016666666666666666,0.10333333333333333],[-0.016666666666666666,0.10444444444444445],[-0.016666666666666666,0.10555555555555556],[-0.017777777777777778,0.10666666666666667],[-0.017777777777777778,0.10777777777777778],[-0.017777777777777778,0.10888888888888888],[-0.017777777777777778,0.11],[-0.01888888888888889,0.1111111111111111],[-0.01888888888888889,0.1111111111111111],[-0.01888888888888889,0.1111111111111111],[-0.01888888888888889,0.11222222222222222],[-0.01888888888888889,0.11222222222222222],[-0.02,0.11222222222222222]],[[0.005555555555555556,-0.20666666666666667],[0.005555555555555556,-0.20666666666666667],[0.005555555555555556,-0.20666666666666667],[0.005555555555555556,-0.20666666666666667],[0.005555555555555556,-0.20666666666666667],[0.005555555555555556,-0.20666666666666667],[0.005555555555555556,-0.20666666666666667],[0.0077777777777777776,-0.20666666666666667],[0.017777777777777778,-0.20666666666666667],[0.03333333333333333,-0.20666666666666667],[0.05555555555555555,-0.20444444444444446],[0.08222222222222222,-0.2011111111111111],[0.09888888888888889,-0.2],[0.1288888888888889,-0.19777777777777777],[0.14333333333333334,-0.19666666666666666],[0.17,-0.19333333333333333],[0.18666666666666668,-0.1922222222222222],[0.2011111111111111,-0.18888888888888888],[0.21333333333333335,-0.18555555555555556],[0.22666666666666666,-0.18222222222222223],[0.24333333333333335,-0.17666666666666667],[0.25333333333333335,-0.17333333333333334],[0.26222222222222225,-0.17],[0.26666666666666666,-0.16777777777777778],[0.2777777777777778,-0.16333333333333333],[0.29,-0.15777777777777777],[0.3,-0.15333333333333332],[0.31666666666666665,-0.14777777777777779],[0.3244444444444444,-0.14666666666666667],[0.3333333333333333,-0.14333333333333334],[0.3388888888888889,-0.14222222222222222],[0.3433333333333333,-0.14222222222222222]]]",2,"[86,32]",space,6.072,space,1.209,0,1,1,2,1,ahead_right_2.jpg,ahead_right_2_path.jpg,,,,,,,,,,,,,,,,
Image_List_4,,,,,,,,,,,,,,,,46602,2022-01-27_19h55.58.997,analogCatScenes,2020.1.3,MacIntel,60,"[1440,900]","[[[0.005555555555555556,-0.19666666666666666],[0.005555555555555556,-0.19666666666666666],[0.005555555555555556,-0.19666666666666666],[0.005555555555555556,-0.19666666666666666],[0.005555555555555556,-0.19666666666666666],[0.005555555555555556,-0.19666666666666666],[0.005555555555555556,-0.19666666666666666],[0.005555555555555556,-0.19666666666666666],[0.005555555555555556,-0.19666666666666666],[0.005555555555555556,-0.19666666666666666],[0.005555555555555556,-0.19666666666666666],[0.005555555555555556,-0.19444444444444445],[0.0044444444444444444,-0.19111111111111112],[0.0022222222222222222,-0.18555555555555556],[0,-0.17888888888888888],[-0.005555555555555556,-0.16555555555555557],[-0.0077777777777777776,-0.16111111111111112],[-0.01888888888888889,-0.1411111111111111],[-0.02666666666666667,-0.12777777777777777],[-0.034444444444444444,-0.11444444444444445],[-0.04111111111111111,-0.10222222222222223],[-0.051111111111111114,-0.08333333333333333],[-0.06222222222222222,-0.06555555555555556],[-0.07555555555555556,-0.04555555555555556],[-0.08555555555555555,-0.03111111111111111],[-0.09222222222222222,-0.01888888888888889],[-0.10222222222222223,-0.0044444444444444444],[-0.10888888888888888,0.005555555555555556],[-0.12333333333333334,0.025555555555555557],[-0.1322222222222222,0.03777777777777778],[-0.14333333333333334,0.05333333333333334],[-0.15222222222222223,0.06666666666666667],[-0.16111111111111112,0.07777777777777778],[-0.17,0.08555555555555555],[-0.17888888888888888,0.09444444444444444],[-0.18777777777777777,0.10111111111111111],[-0.19555555555555557,0.10888888888888888],[-0.20333333333333334,0.11444444444444445],[-0.2111111111111111,0.11888888888888889],[-0.22,0.12333333333333334],[-0.22777777777777777,0.12666666666666668],[-0.23777777777777778,0.13],[-0.24444444444444444,0.13111111111111112],[-0.24888888888888888,0.13333333333333333],[-0.2511111111111111,0.13444444444444445],[-0.25222222222222224,0.13444444444444445],[-0.25333333333333335,0.13444444444444445],[-0.25333333333333335,0.13444444444444445],[-0.25333333333333335,0.13444444444444445],[-0.25333333333333335,0.13444444444444445],[-0.25333333333333335,0.13444444444444445]],[[0.006666666666666667,-0.19333333333333333],[0.006666666666666667,-0.19333333333333333],[0.006666666666666667,-0.19333333333333333],[0.006666666666666667,-0.19333333333333333],[0.006666666666666667,-0.19333333333333333],[0.006666666666666667,-0.19333333333333333],[0.0077777777777777776,-0.19333333333333333],[0.015555555555555555,-0.19333333333333333],[0.03,-0.19333333333333333],[0.057777777777777775,-0.19333333333333333],[0.12777777777777777,-0.19333333333333333],[0.1388888888888889,-0.19333333333333333],[0.2088888888888889,-0.19333333333333333],[0.24555555555555555,-0.19333333333333333],[0.2633333333333333,-0.19333333333333333],[0.28555555555555556,-0.19333333333333333],[0.3244444444444444,-0.19666666666666666],[0.3433333333333333,-0.1988888888888889]]]",2,"[51,18]",space,5.565,space,1.233,0,2,2,4,1,left_2.jpg,left_2_path.jpg,,,,,,,,,,,,,,,,
Image_List_4,,,,,,,,,,,,,,,,46602,2022-01-27_19h55.58.997,analogCatScenes,2020.1.3,MacIntel,60,"[1440,900]","[[[-0.0044444444444444444,-0.2011111111111111],[-0.0044444444444444444,-0.2011111111111111],[-0.0044444444444444444,-0.2011111111111111],[-0.0044444444444444444,-0.2011111111111111],[-0.0044444444444444444,-0.2011111111111111],[-0.0044444444444444444,-0.2011111111111111],[-0.0044444444444444444,-0.2011111111111111],[-0.0044444444444444444,-0.2011111111111111],[-0.0044444444444444444,-0.2011111111111111],[-0.0044444444444444444,-0.2011111111111111],[-0.0044444444444444444,-0.19555555555555557],[-0.0044444444444444444,-0.18],[-0.0044444444444444444,-0.16666666666666666],[-0.0044444444444444444,-0.1511111111111111],[-0.0044444444444444444,-0.13],[-0.0044444444444444444,-0.10888888888888888],[-0.0022222222222222222,-0.09444444444444444],[0.0022222222222222222,-0.06555555555555556],[0.0033333333333333335,-0.058888888888888886],[0.005555555555555556,-0.043333333333333335],[0.01,-0.02],[0.013333333333333334,0.0022222222222222222],[0.015555555555555555,0.01888888888888889],[0.017777777777777778,0.03777777777777778],[0.017777777777777778,0.04666666666666667],[0.017777777777777778,0.057777777777777775],[0.017777777777777778,0.06777777777777778],[0.017777777777777778,0.08222222222222222],[0.017777777777777778,0.09222222222222222],[0.017777777777777778,0.10222222222222223],[0.017777777777777778,0.10888888888888888],[0.01888888888888889,0.11444444444444445],[0.02,0.12222222222222222],[0.021111111111111112,0.13],[0.021111111111111112,0.13444444444444445],[0.021111111111111112,0.14],[0.021111111111111112,0.14555555555555555],[0.021111111111111112,0.15],[0.021111111111111112,0.15666666666666668],[0.021111111111111112,0.16],[0.021111111111111112,0.16444444444444445],[0.021111111111111112,0.16777777777777778],[0.021111111111111112,0.16777777777777778],[0.021111111111111112,0.1688888888888889],[0.021111111111111112,0.1711111111111111],[0.021111111111111112,0.17222222222222222],[0.02,0.17333333333333334],[0.02,0.17333333333333334],[0.02,0.17444444444444446],[0.02,0.17444444444444446],[0.02,0.17444444444444446],[0.02,0.17444444444444446],[0.01888888888888889,0.17333333333333334]]]",1,[53],space,2.838,space,0.584,0,3,3,0,1,ahead_2.jpg,ahead_2_path.jpg,,,,,,,,,,,,,,,,
Image_List_4,,,,,,,,,,,,,,,,46602,2022-01-27_19h55.58.997,analogCatScenes,2020.1.3,MacIntel,60,"[1440,900]","[[[-0.0022222222222222222,-0.19777777777777777],[-0.0022222222222222222,-0.19777777777777777],[-0.0022222222222222222,-0.19777777777777777],[-0.0022222222222222222,-0.19777777777777777],[-0.0022222222222222222,-0.19777777777777777],[-0.0022222222222222222,-0.19777777777777777],[-0.0022222222222222222,-0.19777777777777777],[-0.0022222222222222222,-0.19777777777777777],[-0.0022222222222222222,-0.19333333333333333],[-0.0022222222222222222,-0.18666666666666668],[0,-0.18],[0.0022222222222222222,-0.1711111111111111],[0.005555555555555556,-0.16],[0.008888888888888889,-0.14333333333333334],[0.011111111111111112,-0.13444444444444445],[0.014444444444444444,-0.12],[0.015555555555555555,-0.11333333333333333],[0.01888888888888889,-0.09444444444444444],[0.02,-0.08222222222222222],[0.023333333333333334,-0.06777777777777778],[0.025555555555555557,-0.052222222222222225],[0.02666666666666667,-0.03777777777777778],[0.028888888888888888,-0.023333333333333334],[0.03222222222222222,-0.0033333333333333335],[0.035555555555555556,0.02],[0.03666666666666667,0.028888888888888888],[0.03777777777777778,0.04111111111111111],[0.03888888888888889,0.052222222222222225],[0.04,0.06444444444444444],[0.044444444444444446,0.08666666666666667],[0.04666666666666667,0.09666666666666666],[0.04777777777777778,0.10777777777777778],[0.051111111111111114,0.12111111111111111],[0.052222222222222225,0.13],[0.05333333333333334,0.14555555555555555],[0.05333333333333334,0.15222222222222223],[0.05333333333333334,0.16555555555555557],[0.05333333333333334,0.17555555555555555],[0.05333333333333334,0.18555555555555556],[0.05333333333333334,0.1922222222222222],[0.05333333333333334,0.1988888888888889],[0.05333333333333334,0.20333333333333334],[0.05333333333333334,0.20666666666666667],[0.05333333333333334,0.20777777777777778],[0.05333333333333334,0.20777777777777778],[0.05333333333333334,0.20777777777777778],[0.05333333333333334,0.20777777777777778],[0.05333333333333334,0.20777777777777778],[0.05333333333333334,0.20777777777777778],[0.05333333333333334,0.20777777777777778],[0.05333333333333334,0.20777777777777778],[0.05333333333333334,0.20777777777777778],[0.05333333333333334,0.20777777777777778]],[[0.0011111111111111111,-0.18888888888888888],[0.0011111111111111111,-0.18888888888888888],[0.0011111111111111111,-0.18888888888888888],[0.0011111111111111111,-0.18888888888888888],[0.0011111111111111111,-0.18888888888888888],[0.0011111111111111111,-0.18888888888888888],[0.0011111111111111111,-0.18888888888888888],[0.0033333333333333335,-0.18888888888888888],[0.006666666666666667,-0.18666666666666668],[0.017777777777777778,-0.17666666666666667],[0.03111111111111111,-0.16777777777777778],[0.04111111111111111,-0.1622222222222222],[0.07111111111111111,-0.14555555555555555],[0.0811111111111111,-0.1411111111111111],[0.09333333333333334,-0.13666666666666666],[0.11777777777777777,-0.12555555555555556],[0.13111111111111112,-0.12],[0.14666666666666667,-0.1111111111111111],[0.16777777777777778,-0.1],[0.18,-0.09222222222222222],[0.1922222222222222,-0.08555555555555555],[0.20333333333333334,-0.08],[0.21666666666666667,-0.07333333333333333],[0.23,-0.06777777777777778],[0.24333333333333335,-0.06111111111111111],[0.25555555555555554,-0.05444444444444444],[0.26,-0.052222222222222225],[0.2677777777777778,-0.04888888888888889],[0.2777777777777778,-0.044444444444444446],[0.2866666666666667,-0.04111111111111111],[0.29333333333333333,-0.03777777777777778],[0.3055555555555556,-0.03333333333333333],[0.31555555555555553,-0.028888888888888888],[0.3211111111111111,-0.02666666666666667],[0.32666666666666666,-0.024444444444444446],[0.3333333333333333,-0.022222222222222223],[0.3377777777777778,-0.02],[0.34555555555555556,-0.016666666666666666]],[[-0.0022222222222222222,-0.1922222222222222],[-0.0022222222222222222,-0.1922222222222222],[-0.0022222222222222222,-0.1922222222222222],[-0.0022222222222222222,-0.1922222222222222],[-0.0022222222222222222,-0.1922222222222222],[-0.0022222222222222222,-0.1922222222222222],[-0.0022222222222222222,-0.1922222222222222],[-0.0033333333333333335,-0.1922222222222222],[-0.01,-0.1922222222222222],[-0.024444444444444446,-0.1922222222222222],[-0.04666666666666667,-0.1922222222222222],[-0.06333333333333334,-0.19],[-0.08,-0.18888888888888888],[-0.09333333333333334,-0.18888888888888888],[-0.1111111111111111,-0.18666666666666668],[-0.12333333333333334,-0.18555555555555556],[-0.13666666666666666,-0.18333333333333332],[-0.15222222222222223,-0.1811111111111111],[-0.16666666666666666,-0.18],[-0.1811111111111111,-0.17777777777777778],[-0.19333333333333333,-0.17777777777777778],[-0.2111111111111111,-0.17555555555555555],[-0.2222222222222222,-0.17444444444444446],[-0.2311111111111111,-0.17444444444444446],[-0.24,-0.17333333333333334],[-0.24888888888888888,-0.17333333333333334],[-0.2577777777777778,-0.17333333333333334],[-0.26666666666666666,-0.17333333333333334],[-0.27555555555555555,-0.17333333333333334],[-0.2811111111111111,-0.17333333333333334],[-0.2877777777777778,-0.17222222222222222],[-0.29333333333333333,-0.17222222222222222],[-0.3,-0.1711111111111111],[-0.30333333333333334,-0.17],[-0.30777777777777776,-0.1688888888888889],[-0.31222222222222223,-0.16777777777777778],[-0.3188888888888889,-0.16444444444444445],[-0.32222222222222224,-0.16333333333333333],[-0.32666666666666666,-0.1622222222222222],[-0.33,-0.16111111111111112],[-0.3333333333333333,-0.16111111111111112],[-0.33666666666666667,-0.16111111111111112],[-0.3388888888888889,-0.16],[-0.3422222222222222,-0.16],[-0.34555555555555556,-0.16],[-0.3466666666666667,-0.16],[-0.3488888888888889,-0.16],[-0.35,-0.16]]]",3,"[53,38,48]",space,7.615,space,1.072,0,4,4,1,1,ahead_left_2.jpg,ahead_left_2_path.jpg,,,,,,,,,,,,,,,,
Image_List_4,,,,,,,,,,,,,,,,46602,2022-01-27_19h55.58.997,analogCatScenes,2020.1.3,MacIntel,60,"[1440,900]","[[[-0.0033333333333333335,-0.21],[-0.0033333333333333335,-0.21],[-0.0033333333333333335,-0.21],[-0.0033333333333333335,-0.21],[-0.0033333333333333335,-0.21],[-0.0033333333333333335,-0.21],[-0.0033333333333333335,-0.21],[-0.0033333333333333335,-0.21],[-0.0044444444444444444,-0.21],[-0.01,-0.21],[-0.017777777777777778,-0.21],[-0.03666666666666667,-0.21],[-0.04666666666666667,-0.21],[-0.07,-0.21],[-0.09333333333333334,-0.21],[-0.12111111111111111,-0.20555555555555555],[-0.13666666666666666,-0.20333333333333334],[-0.16333333333333333,-0.19777777777777777],[-0.18555555555555556,-0.19333333333333333],[-0.22333333333333333,-0.18444444444444444],[-0.23777777777777778,-0.1811111111111111],[-0.2822222222222222,-0.17222222222222222],[-0.29555555555555557,-0.17],[-0.3233333333333333,-0.16444444444444445],[-0.33,-0.16333333333333333],[-0.3477777777777778,-0.15888888888888889]],[[0.011111111111111112,-0.20666666666666667],[0.011111111111111112,-0.20666666666666667],[0.011111111111111112,-0.20666666666666667],[0.011111111111111112,-0.20666666666666667],[0.011111111111111112,-0.20666666666666667],[0.011111111111111112,-0.20666666666666667],[0.011111111111111112,-0.20666666666666667],[0.011111111111111112,-0.20666666666666667],[0.011111111111111112,-0.20333333333333334],[0.011111111111111112,-0.1988888888888889],[0.011111111111111112,-0.18666666666666668],[0.011111111111111112,-0.17666666666666667],[0.011111111111111112,-0.16777777777777778],[0.011111111111111112,-0.15777777777777777],[0.012222222222222223,-0.14888888888888888],[0.014444444444444444,-0.1388888888888889],[0.016666666666666666,-0.1288888888888889],[0.02,-0.12],[0.022222222222222223,-0.10888888888888888],[0.024444444444444446,-0.10222222222222223],[0.027777777777777776,-0.09],[0.027777777777777776,-0.08777777777777777],[0.03,-0.08],[0.03111111111111111,-0.07555555555555556],[0.03222222222222222,-0.06777777777777778],[0.03222222222222222,-0.06111111111111111],[0.034444444444444444,-0.05555555555555555],[0.034444444444444444,-0.05],[0.035555555555555556,-0.044444444444444446],[0.03666666666666667,-0.042222222222222223],[0.03666666666666667,-0.03777777777777778],[0.03777777777777778,-0.03666666666666667],[0.03777777777777778,-0.035555555555555556],[0.03777777777777778,-0.03222222222222222],[0.03777777777777778,-0.03],[0.03777777777777778,-0.027777777777777776],[0.03777777777777778,-0.02666666666666667],[0.03777777777777778,-0.025555555555555557],[0.03777777777777778,-0.025555555555555557],[0.03777777777777778,-0.025555555555555557],[0.03777777777777778,-0.025555555555555557]],[[-0.0077777777777777776,-0.2],[-0.0077777777777777776,-0.2],[-0.0077777777777777776,-0.2],[-0.0077777777777777776,-0.2],[-0.0077777777777777776,-0.2],[-0.0077777777777777776,-0.2],[-0.0077777777777777776,-0.2],[-0.0077777777777777776,-0.19777777777777777],[-0.0033333333333333335,-0.19111111111111112],[0.0011111111111111111,-0.18555555555555556],[0.0077777777777777776,-0.17666666666666667],[0.017777777777777778,-0.16333333333333333],[0.021111111111111112,-0.15888888888888889],[0.03111111111111111,-0.15],[0.04,-0.14333333333333334],[0.05555555555555555,-0.13333333333333333],[0.06111111111111111,-0.13111111111111112],[0.07111111111111111,-0.12444444444444444],[0.08777777777777777,-0.11555555555555555],[0.1,-0.10888888888888888],[0.11333333333333333,-0.10222222222222223],[0.12333333333333334,-0.09555555555555556],[0.13333333333333333,-0.09],[0.1411111111111111,-0.08555555555555555],[0.15222222222222223,-0.07777777777777778],[0.15444444444444444,-0.07666666666666666],[0.16111111111111112,-0.07333333333333333],[0.16555555555555557,-0.07111111111111111],[0.17,-0.06777777777777778],[0.17777777777777778,-0.06444444444444444],[0.18333333333333332,-0.06],[0.19555555555555557,-0.05444444444444444],[0.20444444444444446,-0.052222222222222225],[0.2088888888888889,-0.05],[0.21333333333333335,-0.04888888888888889],[0.21666666666666667,-0.04777777777777778],[0.22111111111111112,-0.04555555555555556],[0.22333333333333333,-0.044444444444444446],[0.22555555555555556,-0.043333333333333335],[0.22666666666666666,-0.043333333333333335],[0.22777777777777777,-0.042222222222222223],[0.22777777777777777,-0.042222222222222223],[0.22777777777777777,-0.042222222222222223]]]",3,"[26,41,43]",space,5.673,space,0.799,0,5,5,3,1,ahead_right_left_2.jpg,ahead_right_left_2_path.jpg,,,,,,,,,,,,,,,,
Image_List_4,,,,,,,,,,,,,,,,46602,2022-01-27_19h55.58.997,analogCatScenes,2020.1.3,MacIntel,60,"[1440,900]","[[[-0.0033333333333333335,-0.19444444444444445],[-0.0033333333333333335,-0.19444444444444445],[-0.0033333333333333335,-0.19444444444444445],[-0.0033333333333333335,-0.19444444444444445],[-0.0033333333333333335,-0.19444444444444445],[-0.0033333333333333335,-0.19444444444444445],[-0.0033333333333333335,-0.19444444444444445],[-0.0033333333333333335,-0.19444444444444445],[-0.0033333333333333335,-0.19111111111111112],[-0.0044444444444444444,-0.18],[-0.01,-0.15777777777777777],[-0.017777777777777778,-0.1288888888888889],[-0.025555555555555557,-0.10333333333333333],[-0.043333333333333335,-0.058888888888888886],[-0.051111111111111114,-0.027777777777777776],[-0.056666666666666664,-0.0044444444444444444],[-0.06333333333333334,0.028888888888888888],[-0.06666666666666667,0.043333333333333335],[-0.06666666666666667,0.04888888888888889],[-0.07,0.06444444444444444],[-0.07222222222222222,0.07666666666666666],[-0.07444444444444444,0.08444444444444445],[-0.07888888888888888,0.09666666666666666],[-0.08222222222222222,0.10444444444444445],[-0.08444444444444445,0.11222222222222222],[-0.08888888888888889,0.12222222222222222],[-0.09333333333333334,0.1322222222222222],[-0.09555555555555556,0.1388888888888889],[-0.09888888888888889,0.14888888888888888],[-0.10333333333333333,0.15666666666666668],[-0.10555555555555556,0.16],[-0.10888888888888888,0.16555555555555557],[-0.11222222222222222,0.17],[-0.11777777777777777,0.17555555555555555],[-0.12222222222222222,0.17888888888888888],[-0.1288888888888889,0.18333333333333332],[-0.13444444444444445,0.18666666666666668],[-0.1388888888888889,0.19],[-0.14444444444444443,0.19333333333333333],[-0.14888888888888888,0.19555555555555557],[-0.15666666666666668,0.2],[-0.16,0.20222222222222222],[-0.16555555555555557,0.20444444444444446],[-0.17,0.20666666666666667],[-0.17333333333333334,0.2088888888888889],[-0.17666666666666667,0.21],[-0.17888888888888888,0.2111111111111111],[-0.1811111111111111,0.21333333333333335],[-0.18333333333333332,0.21444444444444444],[-0.18444444444444444,0.21555555555555556],[-0.18444444444444444,0.21666666666666667],[-0.18555555555555556,0.21777777777777776],[-0.18555555555555556,0.21888888888888888],[-0.18555555555555556,0.22],[-0.18555555555555556,0.22111111111111112],[-0.18444444444444444,0.22444444444444445],[-0.18333333333333332,0.22666666666666666],[-0.18222222222222223,0.2288888888888889],[-0.18,0.2311111111111111],[-0.18,0.23333333333333334],[-0.17888888888888888,0.23333333333333334],[-0.17777777777777778,0.23333333333333334],[-0.17666666666666667,0.23333333333333334],[-0.17666666666666667,0.23333333333333334],[-0.17555555555555555,0.23333333333333334],[-0.17555555555555555,0.23333333333333334],[-0.17555555555555555,0.23333333333333334],[-0.17555555555555555,0.23222222222222222],[-0.17555555555555555,0.23222222222222222]],[[0.0044444444444444444,-0.18888888888888888],[0.0044444444444444444,-0.18888888888888888],[0.0044444444444444444,-0.18888888888888888],[0.0044444444444444444,-0.18888888888888888],[0.0044444444444444444,-0.18888888888888888],[0.0044444444444444444,-0.18888888888888888],[0.0044444444444444444,-0.18666666666666668],[0.0044444444444444444,-0.17555555555555555],[0.0044444444444444444,-0.16666666666666666],[0.0077777777777777776,-0.14777777777777779],[0.011111111111111112,-0.13],[0.017777777777777778,-0.10444444444444445],[0.022222222222222223,-0.09],[0.02666666666666667,-0.07444444444444444],[0.03222222222222222,-0.06],[0.03888888888888889,-0.044444444444444446],[0.044444444444444446,-0.03],[0.05,-0.015555555555555555],[0.05444444444444444,-0.0033333333333333335],[0.06111111111111111,0.011111111111111112],[0.06666666666666667,0.022222222222222223],[0.07111111111111111,0.03333333333333333],[0.07777777777777778,0.04666666666666667],[0.08777777777777777,0.06333333333333334],[0.09555555555555556,0.07444444444444444],[0.10111111111111111,0.08333333333333333],[0.10444444444444445,0.08888888888888889],[0.11333333333333333,0.10111111111111111],[0.11777777777777777,0.11],[0.12666666666666668,0.12222222222222222],[0.1288888888888889,0.12555555555555556],[0.13333333333333333,0.13111111111111112],[0.13666666666666666,0.13666666666666666],[0.1411111111111111,0.14333333333333334],[0.14555555555555555,0.15],[0.14888888888888888,0.15444444444444444],[0.15333333333333332,0.15777777777777777],[0.15444444444444444,0.16],[0.15555555555555556,0.16111111111111112],[0.15777777777777777,0.16333333333333333],[0.16333333333333333,0.16777777777777778],[0.17,0.17555555555555555],[0.17555555555555555,0.18],[0.1811111111111111,0.18555555555555556],[0.18222222222222223,0.18555555555555556],[0.18333333333333332,0.18666666666666668],[0.18333333333333332,0.18666666666666668],[0.18333333333333332,0.18777777777777777],[0.18555555555555556,0.18888888888888888],[0.18777777777777777,0.19],[0.19,0.19111111111111112],[0.1922222222222222,0.19111111111111112],[0.19444444444444445,0.1922222222222222],[0.1988888888888889,0.1922222222222222],[0.20222222222222222,0.19333333333333333],[0.20444444444444446,0.19333333333333333],[0.20555555555555555,0.19333333333333333],[0.20666666666666667,0.19333333333333333],[0.20666666666666667,0.19333333333333333],[0.20666666666666667,0.19333333333333333]]]",2,"[69,60]",space,5.162,space,1.227,0,6,6,6,1,right_left_2.jpg,right_left_2_path.jpg,,,,,,,,,,,,,,,,
Image_List_4,,,,,,,,,,,,,,,,46602,2022-01-27_19h55.58.997,analogCatScenes,2020.1.3,MacIntel,60,"[1440,900]","[[[-0.0022222222222222222,-0.19555555555555557],[-0.0022222222222222222,-0.19555555555555557],[-0.0022222222222222222,-0.19555555555555557],[-0.0022222222222222222,-0.19555555555555557],[-0.0022222222222222222,-0.19555555555555557],[-0.0022222222222222222,-0.19555555555555557],[-0.0022222222222222222,-0.19555555555555557],[-0.0022222222222222222,-0.19555555555555557],[-0.0022222222222222222,-0.19555555555555557],[0.0011111111111111111,-0.1922222222222222],[0.0033333333333333335,-0.19],[0.01888888888888889,-0.17555555555555555],[0.023333333333333334,-0.17222222222222222],[0.035555555555555556,-0.1622222222222222],[0.04888888888888889,-0.14888888888888888],[0.07111111111111111,-0.12333333333333334],[0.07555555555555556,-0.12],[0.08555555555555555,-0.10777777777777778],[0.09222222222222222,-0.1],[0.09888888888888889,-0.09111111111111111],[0.10444444444444445,-0.08222222222222222],[0.10888888888888888,-0.07],[0.1111111111111111,-0.06222222222222222],[0.11333333333333333,-0.05444444444444444],[0.11444444444444445,-0.04777777777777778],[0.11444444444444445,-0.03777777777777778],[0.11444444444444445,-0.03],[0.11222222222222222,-0.01888888888888889],[0.11222222222222222,-0.016666666666666666],[0.10666666666666667,-0.005555555555555556],[0.10222222222222223,0.0022222222222222222],[0.09888888888888889,0.005555555555555556],[0.09111111111111111,0.014444444444444444],[0.07555555555555556,0.03222222222222222],[0.06444444444444444,0.044444444444444446],[0.052222222222222225,0.056666666666666664],[0.03111111111111111,0.07333333333333333],[0.012222222222222223,0.08777777777777777],[-0.011111111111111112,0.10333333333333333],[-0.028888888888888888,0.11555555555555555],[-0.058888888888888886,0.13555555555555557],[-0.08444444444444445,0.15444444444444444],[-0.09333333333333334,0.16111111111111112],[-0.11555555555555555,0.17666666666666667],[-0.1288888888888889,0.18666666666666668],[-0.15333333333333332,0.20444444444444446],[-0.16555555555555557,0.21333333333333335],[-0.17777777777777778,0.22111111111111112],[-0.18888888888888888,0.22777777777777777],[-0.1988888888888889,0.2311111111111111],[-0.20777777777777778,0.23666666666666666],[-0.21333333333333335,0.24],[-0.22,0.24444444444444444],[-0.22444444444444445,0.24888888888888888],[-0.22777777777777777,0.25222222222222224],[-0.2288888888888889,0.25333333333333335],[-0.23,0.25333333333333335],[-0.23,0.2544444444444444],[-0.23,0.2544444444444444],[-0.2311111111111111,0.2544444444444444],[-0.2311111111111111,0.2544444444444444],[-0.2311111111111111,0.2544444444444444],[-0.2311111111111111,0.25333333333333335]],[[-0.005555555555555556,-0.19333333333333333],[-0.005555555555555556,-0.19333333333333333],[-0.005555555555555556,-0.19333333333333333],[-0.005555555555555556,-0.19333333333333333],[-0.005555555555555556,-0.19333333333333333],[-0.005555555555555556,-0.19333333333333333],[-0.005555555555555556,-0.19333333333333333],[-0.005555555555555556,-0.19333333333333333],[-0.01,-0.19333333333333333],[-0.017777777777777778,-0.19333333333333333],[-0.04,-0.1922222222222222],[-0.057777777777777775,-0.19],[-0.09888888888888889,-0.18222222222222223],[-0.15444444444444444,-0.1711111111111111],[-0.19111111111111112,-0.16555555555555557],[-0.21666666666666667,-0.1622222222222222],[-0.2388888888888889,-0.15888888888888889],[-0.2577777777777778,-0.15777777777777777],[-0.28,-0.15777777777777777],[-0.3055555555555556,-0.15777777777777777],[-0.33555555555555555,-0.15777777777777777]]]",2,"[63,21]",,,,,,,,,,,,space,4.702,staircase7.jpg,space,6.537,0,0,0,89,1,ruralroad7.jpg,track5.jpg,ShowJumping7.jpg,sculpturegarden3.jpg,,
Image_List_4,,,,,,,,,,,,,,,,46602,2022-01-27_19h55.58.997,analogCatScenes,2020.1.3,MacIntel,60,"[1440,900]","[[[-0.005555555555555556,-0.19333333333333333],[-0.005555555555555556,-0.19333333333333333],[-0.005555555555555556,-0.19333333333333333],[-0.005555555555555556,-0.19333333333333333],[-0.005555555555555556,-0.19111111111111112],[-0.005555555555555556,-0.1811111111111111],[-0.005555555555555556,-0.15],[-0.005555555555555556,-0.13555555555555557],[-0.005555555555555556,-0.12666666666666668],[-0.005555555555555556,-0.10888888888888888],[-0.005555555555555556,-0.09444444444444444],[-0.005555555555555556,-0.08222222222222222],[-0.005555555555555556,-0.06333333333333334],[-0.005555555555555556,-0.05333333333333334],[-0.005555555555555556,-0.043333333333333335],[-0.005555555555555556,-0.034444444444444444],[-0.005555555555555556,-0.023333333333333334],[-0.005555555555555556,-0.011111111111111112],[-0.005555555555555556,0.006666666666666667],[-0.005555555555555556,0.02],[-0.005555555555555556,0.03333333333333333],[-0.005555555555555556,0.051111111111111114],[-0.005555555555555556,0.06888888888888889],[-0.0044444444444444444,0.08444444444444445],[-0.0033333333333333335,0.09777777777777778],[-0.0022222222222222222,0.10888888888888888],[-0.0011111111111111111,0.12],[0.0011111111111111111,0.13333333333333333],[0.0022222222222222222,0.14888888888888888],[0.0033333333333333335,0.16666666666666666],[0.0044444444444444444,0.17555555555555555],[0.005555555555555556,0.18333333333333332],[0.005555555555555556,0.18777777777777777],[0.005555555555555556,0.18888888888888888],[0.005555555555555556,0.18888888888888888],[0.005555555555555556,0.18888888888888888],[0.005555555555555556,0.18888888888888888]]]",1,[37],,,,,,,,,,,,,,fabricstore1.jpg,space,2.19,0,1,1,41,1,dugout4.jpg,farm3.jpg,drymountains3.jpg,dentist2.jpg,,
Image_List_4,,,,,,,,,,,,,,,,46602,2022-01-27_19h55.58.997,analogCatScenes,2020.1.3,MacIntel,60,"[1440,900]","[[[-0.0011111111111111111,-0.19111111111111112],[-0.0011111111111111111,-0.19111111111111112],[-0.0011111111111111111,-0.19111111111111112],[-0.0011111111111111111,-0.19111111111111112],[-0.0011111111111111111,-0.19111111111111112],[-0.0011111111111111111,-0.19111111111111112],[-0.0011111111111111111,-0.19111111111111112],[-0.0011111111111111111,-0.19111111111111112],[-0.0011111111111111111,-0.19111111111111112],[-0.0011111111111111111,-0.19111111111111112],[-0.0011111111111111111,-0.19],[-0.0011111111111111111,-0.18555555555555556],[0.0022222222222222222,-0.17666666666666667],[0.0033333333333333335,-0.17444444444444446],[0.0077777777777777776,-0.16666666666666666],[0.01,-0.16444444444444445],[0.017777777777777778,-0.15444444444444444],[0.02666666666666667,-0.14444444444444443],[0.03111111111111111,-0.1411111111111111],[0.042222222222222223,-0.1322222222222222],[0.052222222222222225,-0.12333333333333334],[0.05333333333333334,-0.12222222222222222],[0.06111111111111111,-0.11666666666666667],[0.07111111111111111,-0.1111111111111111],[0.07222222222222222,-0.11],[0.08333333333333333,-0.10333333333333333],[0.08888888888888889,-0.09888888888888889],[0.09333333333333334,-0.09555555555555556],[0.10444444444444445,-0.08888888888888889],[0.11666666666666667,-0.08222222222222222],[0.12,-0.08],[0.13333333333333333,-0.07333333333333333],[0.14444444444444443,-0.06777777777777778],[0.15666666666666668,-0.06222222222222222],[0.16333333333333333,-0.06],[0.1711111111111111,-0.056666666666666664],[0.17888888888888888,-0.05333333333333334],[0.18555555555555556,-0.04888888888888889],[0.19444444444444445,-0.044444444444444446],[0.20333333333333334,-0.04],[0.21444444444444444,-0.034444444444444444],[0.22555555555555556,-0.028888888888888888],[0.23222222222222222,-0.025555555555555557],[0.2388888888888889,-0.022222222222222223],[0.24222222222222223,-0.02],[0.24555555555555555,-0.01888888888888889],[0.25222222222222224,-0.014444444444444444],[0.2577777777777778,-0.011111111111111112],[0.2611111111111111,-0.0077777777777777776],[0.2644444444444444,-0.005555555555555556],[0.26555555555555554,-0.0044444444444444444],[0.2677777777777778,-0.0033333333333333335],[0.27111111111111114,-0.0011111111111111111],[0.2777777777777778,0.0033333333333333335],[0.28,0.0044444444444444444],[0.2833333333333333,0.006666666666666667],[0.28555555555555556,0.0077777777777777776],[0.2866666666666667,0.0077777777777777776],[0.2866666666666667,0.008888888888888889],[0.2877777777777778,0.008888888888888889],[0.2877777777777778,0.008888888888888889],[0.28888888888888886,0.01],[0.29,0.011111111111111112],[0.2911111111111111,0.011111111111111112],[0.2911111111111111,0.011111111111111112],[0.2911111111111111,0.011111111111111112]]]",1,[66],,,,,,,,,,,,,,park.jpg,space,2.979,0,2,2,75,1,pantry5.jpg,playground6.jpg,operatingroom4.jpg,lockerroom.jpg,,
Image_List_4,,,,,,,,,,,,,,,,46602,2022-01-27_19h55.58.997,analogCatScenes,2020.1.3,MacIntel,60,"[1440,900]",[],0,[],,,,,,,,,,,,,,courtroom2.jpg,space,0.018,0,3,3,31,1,cubicle4.jpg,desertvegetation6.jpg,conference4.jpg,cabin3.jpg,,
Image_List_4,,,,,,,,,,,,,,,,46602,2022-01-27_19h55.58.997,analogCatScenes,2020.1.3,MacIntel,60,"[1440,900]","[[[0.0077777777777777776,-0.19],[0.0077777777777777776,-0.19],[0.0077777777777777776,-0.19],[0.0077777777777777776,-0.19],[0.0077777777777777776,-0.19],[0.0077777777777777776,-0.19],[0.0077777777777777776,-0.19],[0.0077777777777777776,-0.19],[0.0077777777777777776,-0.19],[0.008888888888888889,-0.19],[0.017777777777777778,-0.19],[0.03333333333333333,-0.19],[0.05555555555555555,-0.18888888888888888],[0.06666666666666667,-0.18666666666666668],[0.08333333333333333,-0.18333333333333332],[0.11,-0.17666666666666667],[0.12444444444444444,-0.17222222222222222],[0.14333333333333334,-0.16777777777777778],[0.15555555555555556,-0.16333333333333333],[0.15777777777777777,-0.1622222222222222],[0.16555555555555557,-0.15777777777777777],[0.16666666666666666,-0.15555555555555556],[0.17,-0.15222222222222223],[0.17888888888888888,-0.1388888888888889],[0.18777777777777777,-0.12555555555555556],[0.19,-0.12222222222222222],[0.1922222222222222,-0.11555555555555555],[0.19777777777777777,-0.10333333333333333],[0.20444444444444446,-0.08444444444444445],[0.20666666666666667,-0.0811111111111111],[0.21222222222222223,-0.06444444444444444],[0.21666666666666667,-0.04888888888888889],[0.21888888888888888,-0.04111111111111111],[0.22,-0.035555555555555556],[0.22333333333333333,-0.023333333333333334],[0.2288888888888889,-0.0022222222222222222],[0.23333333333333334,0.015555555555555555],[0.23777777777777778,0.03222222222222222],[0.24222222222222223,0.04666666666666667],[0.24444444444444444,0.057777777777777775],[0.24888888888888888,0.07666666666666666],[0.2544444444444444,0.10666666666666667],[0.2577777777777778,0.12444444444444444],[0.26,0.13777777777777778],[0.2611111111111111,0.14333333333333334],[0.2633333333333333,0.15555555555555556],[0.2644444444444444,0.16666666666666666],[0.26555555555555554,0.18],[0.26555555555555554,0.2011111111111111],[0.26666666666666666,0.2088888888888889],[0.26666666666666666,0.21444444444444444],[0.26666666666666666,0.21777777777777776],[0.26666666666666666,0.21888888888888888],[0.26666666666666666,0.22],[0.26666666666666666,0.22555555555555556],[0.2677777777777778,0.23555555555555555],[0.2677777777777778,0.24333333333333335],[0.2677777777777778,0.25222222222222224],[0.2677777777777778,0.2544444444444444],[0.2677777777777778,0.25555555555555554],[0.2677777777777778,0.2577777777777778],[0.2677777777777778,0.2611111111111111],[0.26666666666666666,0.2677777777777778],[0.26666666666666666,0.27444444444444444],[0.2644444444444444,0.2811111111111111],[0.2644444444444444,0.28555555555555556],[0.2633333333333333,0.2866666666666667],[0.2633333333333333,0.2877777777777778],[0.2633333333333333,0.2877777777777778],[0.2633333333333333,0.2877777777777778],[0.2633333333333333,0.28888888888888886],[0.2633333333333333,0.28888888888888886],[0.2633333333333333,0.28888888888888886],[0.2633333333333333,0.28888888888888886],[0.2633333333333333,0.28888888888888886],[0.2633333333333333,0.28888888888888886],[0.2633333333333333,0.28888888888888886],[0.2633333333333333,0.28888888888888886],[0.2633333333333333,0.28888888888888886],[0.2633333333333333,0.28888888888888886],[0.2633333333333333,0.28888888888888886]]]",1,[81],,,,,,,,,,,,,,appleorchard3.jpg,space,5.033,0,4,4,4,1,artStudio1.jpg,baggageClaim2.jpg,auto_showroom1.jpg,alley4.jpg,,
Image_List_4,,,,,,,,,,,,,,,,46602,2022-01-27_19h55.58.997,analogCatScenes,2020.1.3,MacIntel,60,"[1440,900]","[[[0,-0.20666666666666667],[0,-0.20666666666666667],[0,-0.20666666666666667],[0,-0.20666666666666667],[0,-0.20666666666666667],[0,-0.20666666666666667],[0,-0.20666666666666667],[0,-0.20666666666666667],[0,-0.20666666666666667],[-0.0011111111111111111,-0.20666666666666667],[-0.0044444444444444444,-0.20666666666666667],[-0.008888888888888889,-0.20444444444444446],[-0.014444444444444444,-0.20333333333333334],[-0.023333333333333334,-0.1988888888888889],[-0.02666666666666667,-0.19777777777777777],[-0.03666666666666667,-0.19444444444444445],[-0.051111111111111114,-0.19],[-0.05555555555555555,-0.18888888888888888],[-0.06777777777777778,-0.18444444444444444],[-0.08777777777777777,-0.17888888888888888],[-0.11,-0.17444444444444446],[-0.12555555555555556,-0.17],[-0.14444444444444443,-0.16666666666666666],[-0.16111111111111112,-0.1622222222222222],[-0.18555555555555556,-0.15666666666666668],[-0.1922222222222222,-0.15555555555555556],[-0.20666666666666667,-0.15333333333333332],[-0.22111111111111112,-0.15222222222222223],[-0.23444444444444446,-0.15],[-0.2477777777777778,-0.14888888888888888],[-0.2644444444444444,-0.14777777777777779],[-0.28888888888888886,-0.14444444444444443],[-0.30666666666666664,-0.14333333333333334],[-0.3233333333333333,-0.14222222222222222],[-0.33666666666666667,-0.14222222222222222],[-0.3488888888888889,-0.1411111111111111]],[[-0.011111111111111112,-0.19444444444444445],[-0.011111111111111112,-0.19444444444444445],[-0.011111111111111112,-0.19444444444444445],[-0.011111111111111112,-0.19444444444444445],[-0.011111111111111112,-0.19444444444444445],[-0.011111111111111112,-0.19444444444444445],[-0.011111111111111112,-0.19444444444444445],[-0.011111111111111112,-0.19444444444444445],[-0.011111111111111112,-0.19444444444444445],[-0.011111111111111112,-0.19444444444444445],[-0.011111111111111112,-0.19444444444444445],[-0.011111111111111112,-0.19444444444444445],[-0.011111111111111112,-0.19444444444444445],[-0.011111111111111112,-0.19444444444444445],[-0.01,-0.19444444444444445],[-0.008888888888888889,-0.19444444444444445],[-0.008888888888888889,-0.19444444444444445],[-0.0077777777777777776,-0.19444444444444445],[-0.005555555555555556,-0.19444444444444445],[-0.0033333333333333335,-0.19444444444444445],[0,-0.19333333333333333],[0.005555555555555556,-0.1922222222222222],[0.01,-0.19],[0.014444444444444444,-0.18888888888888888],[0.017777777777777778,-0.18777777777777777],[0.021111111111111112,-0.18666666666666668],[0.025555555555555557,-0.18555555555555556],[0.03111111111111111,-0.18444444444444444],[0.03888888888888889,-0.18222222222222223],[0.043333333333333335,-0.18222222222222223],[0.04777777777777778,-0.1811111111111111],[0.052222222222222225,-0.1811111111111111],[0.057777777777777775,-0.18],[0.06555555555555556,-0.17888888888888888],[0.07555555555555556,-0.17777777777777778],[0.08333333333333333,-0.17666666666666667],[0.09444444444444444,-0.17555555555555555],[0.1,-0.17444444444444446],[0.10555555555555556,-0.17444444444444446],[0.11444444444444445,-0.17333333333333334],[0.12222222222222222,-0.17333333333333334],[0.13,-0.17333333333333334],[0.1388888888888889,-0.17333333333333334],[0.14444444444444443,-0.17333333333333334],[0.15333333333333332,-0.17333333333333334],[0.16333333333333333,-0.17333333333333334],[0.1688888888888889,-0.17333333333333334],[0.1811111111111111,-0.17333333333333334],[0.2,-0.17333333333333334],[0.2111111111111111,-0.17333333333333334],[0.21666666666666667,-0.17333333333333334],[0.23,-0.17333333333333334],[0.24222222222222223,-0.17333333333333334],[0.2511111111111111,-0.17333333333333334],[0.2588888888888889,-0.17333333333333334],[0.2633333333333333,-0.17333333333333334],[0.2644444444444444,-0.17333333333333334],[0.26555555555555554,-0.17333333333333334],[0.26555555555555554,-0.17333333333333334],[0.26555555555555554,-0.17333333333333334],[0.26555555555555554,-0.17333333333333334],[0.26555555555555554,-0.17333333333333334],[0.26555555555555554,-0.17333333333333334],[0.26555555555555554,-0.17222222222222222],[0.26555555555555554,-0.17]],[[0.0044444444444444444,-0.20222222222222222],[0.0044444444444444444,-0.20222222222222222],[0.0044444444444444444,-0.20222222222222222],[0.0044444444444444444,-0.20222222222222222],[0.0044444444444444444,-0.20222222222222222],[0.0044444444444444444,-0.20222222222222222],[0.0044444444444444444,-0.20222222222222222],[0.0044444444444444444,-0.20222222222222222],[0.0044444444444444444,-0.20222222222222222],[0.0044444444444444444,-0.20222222222222222],[0.0044444444444444444,-0.20222222222222222],[0.0044444444444444444,-0.2011111111111111],[0.0044444444444444444,-0.2],[0.0044444444444444444,-0.1988888888888889],[0.0044444444444444444,-0.1988888888888889],[0.0044444444444444444,-0.19777777777777777],[0.0044444444444444444,-0.19555555555555557],[0.0044444444444444444,-0.19444444444444445],[0.005555555555555556,-0.19],[0.006666666666666667,-0.18777777777777777],[0.006666666666666667,-0.18555555555555556],[0.0077777777777777776,-0.18444444444444444],[0.008888888888888889,-0.18444444444444444],[0.008888888888888889,-0.18222222222222223],[0.01,-0.18],[0.011111111111111112,-0.17888888888888888],[0.011111111111111112,-0.17777777777777778],[0.011111111111111112,-0.17555555555555555],[0.012222222222222223,-0.17444444444444446],[0.013333333333333334,-0.17333333333333334],[0.014444444444444444,-0.17],[0.015555555555555555,-0.16666666666666666],[0.016666666666666666,-0.16444444444444445],[0.017777777777777778,-0.16333333333333333],[0.01888888888888889,-0.16],[0.021111111111111112,-0.15777777777777777],[0.023333333333333334,-0.15333333333333332],[0.025555555555555557,-0.15],[0.02666666666666667,-0.14777777777777779],[0.03,-0.14444444444444443],[0.03111111111111111,-0.14222222222222222],[0.03222222222222222,-0.1411111111111111],[0.03333333333333333,-0.1411111111111111],[0.034444444444444444,-0.14],[0.034444444444444444,-0.14],[0.034444444444444444,-0.14],[0.034444444444444444,-0.14],[0.034444444444444444,-0.14],[0.034444444444444444,-0.14],[0.034444444444444444,-0.14],[0.034444444444444444,-0.14],[0.034444444444444444,-0.14],[0.034444444444444444,-0.14],[0.034444444444444444,-0.14],[0.034444444444444444,-0.14],[0.034444444444444444,-0.14],[0.034444444444444444,-0.14]],[[-0.0011111111111111111,-0.19777777777777777],[-0.0011111111111111111,-0.19777777777777777],[-0.0011111111111111111,-0.19777777777777777],[-0.0011111111111111111,-0.19777777777777777],[-0.0011111111111111111,-0.19777777777777777],[-0.0011111111111111111,-0.19777777777777777],[-0.0011111111111111111,-0.19777777777777777],[-0.0011111111111111111,-0.19777777777777777],[-0.0011111111111111111,-0.19777777777777777],[-0.0011111111111111111,-0.19777777777777777],[-0.0033333333333333335,-0.19777777777777777],[-0.022222222222222223,-0.19777777777777777],[-0.03333333333333333,-0.19777777777777777],[-0.051111111111111114,-0.19777777777777777],[-0.07555555555555556,-0.19666666666666666],[-0.09,-0.19777777777777777],[-0.10888888888888888,-0.2011111111111111],[-0.13111111111111112,-0.20666666666666667],[-0.16,-0.21333333333333335],[-0.1811111111111111,-0.22],[-0.1988888888888889,-0.22444444444444445],[-0.21888888888888888,-0.23],[-0.25222222222222224,-0.24],[-0.27,-0.24555555555555555]]]",4,"[36,65,57,24]",,,,,,,,,,,,,,stripmall3.jpg,space,9.318,0,5,5,90,1,savanna5.jpg,trainStation1.jpg,sidewalk1.jpg,shoestore4.jpg,,
Image_List_4,,,,,,,,,,,,,,,,46602,2022-01-27_19h55.58.997,analogCatScenes,2020.1.3,MacIntel,60,"[1440,900]","[[[0.0077777777777777776,-0.19666666666666666],[0.0077777777777777776,-0.19666666666666666],[0.0077777777777777776,-0.19666666666666666],[0.0077777777777777776,-0.19666666666666666],[0.0077777777777777776,-0.19666666666666666],[0.0077777777777777776,-0.19666666666666666],[0.0077777777777777776,-0.19666666666666666],[0.0077777777777777776,-0.1922222222222222],[0.0077777777777777776,-0.18777777777777777],[0.0077777777777777776,-0.18222222222222223],[0.0077777777777777776,-0.17555555555555555],[0.0077777777777777776,-0.16777777777777778],[0.0077777777777777776,-0.1622222222222222],[0.0077777777777777776,-0.15444444444444444],[0.0077777777777777776,-0.14777777777777779],[0.0077777777777777776,-0.1411111111111111],[0.0077777777777777776,-0.1288888888888889],[0.0077777777777777776,-0.12111111111111111],[0.0077777777777777776,-0.1111111111111111],[0.0077777777777777776,-0.1],[0.006666666666666667,-0.08888888888888889],[0.005555555555555556,-0.07666666666666666],[0.0033333333333333335,-0.06555555555555556],[0.0022222222222222222,-0.051111111111111114],[0.0022222222222222222,-0.035555555555555556],[0,-0.016666666666666666],[0,0.0033333333333333335],[-0.0011111111111111111,0.01888888888888889],[-0.0033333333333333335,0.02666666666666667],[-0.0044444444444444444,0.03888888888888889],[-0.0044444444444444444,0.05444444444444444],[-0.0044444444444444444,0.07666666666666666],[-0.0044444444444444444,0.08666666666666667],[-0.0044444444444444444,0.09444444444444444],[-0.0044444444444444444,0.09888888888888889],[-0.0044444444444444444,0.1],[-0.0044444444444444444,0.1],[-0.0044444444444444444,0.10111111111111111],[-0.0044444444444444444,0.10111111111111111],[-0.0044444444444444444,0.10111111111111111],[-0.0044444444444444444,0.10111111111111111],[-0.0044444444444444444,0.10111111111111111]],[[0.0033333333333333335,-0.1988888888888889],[0.0033333333333333335,-0.1988888888888889],[0.0033333333333333335,-0.1988888888888889],[0.0033333333333333335,-0.1988888888888889],[0.0033333333333333335,-0.1988888888888889],[0.0033333333333333335,-0.1988888888888889],[0.0033333333333333335,-0.1988888888888889],[0.0033333333333333335,-0.1988888888888889],[0.0033333333333333335,-0.1988888888888889],[0.0033333333333333335,-0.1988888888888889],[0.0033333333333333335,-0.1988888888888889],[0.0022222222222222222,-0.19555555555555557],[0.0011111111111111111,-0.19444444444444445],[-0.0022222222222222222,-0.19111111111111112],[-0.006666666666666667,-0.18777777777777777],[-0.012222222222222223,-0.18333333333333332],[-0.023333333333333334,-0.17666666666666667],[-0.027777777777777776,-0.17444444444444446],[-0.04,-0.16444444444444445],[-0.04777777777777778,-0.16],[-0.05444444444444444,-0.15555555555555556],[-0.06,-0.15],[-0.06666666666666667,-0.14666666666666667],[-0.07111111111111111,-0.14444444444444443],[-0.07888888888888888,-0.14],[-0.08333333333333333,-0.1388888888888889],[-0.08888888888888889,-0.13555555555555557],[-0.09555555555555556,-0.1322222222222222],[-0.10666666666666667,-0.12555555555555556],[-0.11,-0.12444444444444444],[-0.12111111111111111,-0.11555555555555555],[-0.13,-0.11],[-0.14,-0.10222222222222223],[-0.14888888888888888,-0.09555555555555556],[-0.15555555555555556,-0.09111111111111111],[-0.1622222222222222,-0.08666666666666667],[-0.16666666666666666,-0.08444444444444445],[-0.1688888888888889,-0.08222222222222222],[-0.1711111111111111,-0.0811111111111111],[-0.17333333333333334,-0.0811111111111111],[-0.17333333333333334,-0.08],[-0.17444444444444446,-0.08],[-0.17444444444444446,-0.08],[-0.17444444444444446,-0.08],[-0.17444444444444446,-0.08],[-0.17444444444444446,-0.08]],[[-0.0044444444444444444,-0.20333333333333334],[-0.0044444444444444444,-0.20333333333333334],[-0.0044444444444444444,-0.20333333333333334],[-0.0044444444444444444,-0.20333333333333334],[-0.0044444444444444444,-0.20333333333333334],[-0.0044444444444444444,-0.20333333333333334],[-0.0044444444444444444,-0.20333333333333334],[-0.0044444444444444444,-0.20222222222222222],[-0.0044444444444444444,-0.1988888888888889],[-0.0044444444444444444,-0.19666666666666666],[-0.0044444444444444444,-0.1922222222222222],[-0.0033333333333333335,-0.19111111111111112],[-0.0011111111111111111,-0.18777777777777777],[0,-0.18777777777777777],[0.005555555555555556,-0.18333333333333332],[0.013333333333333334,-0.17555555555555555],[0.02,-0.1711111111111111],[0.028888888888888888,-0.16333333333333333],[0.04111111111111111,-0.15666666666666668],[0.05,-0.1511111111111111],[0.056666666666666664,-0.14777777777777779],[0.06333333333333334,-0.14333333333333334],[0.07333333333333333,-0.14],[0.08444444444444445,-0.13555555555555557],[0.09555555555555556,-0.13],[0.11,-0.12555555555555556],[0.11888888888888889,-0.12222222222222222],[0.12222222222222222,-0.12111111111111111],[0.13111111111111112,-0.11777777777777777],[0.1411111111111111,-0.11444444444444445],[0.15,-0.1111111111111111],[0.16666666666666666,-0.10555555555555556],[0.17666666666666667,-0.10222222222222223],[0.18888888888888888,-0.1],[0.19555555555555557,-0.09888888888888889],[0.2011111111111111,-0.09777777777777778],[0.20333333333333334,-0.09777777777777778],[0.20444444444444446,-0.09777777777777778],[0.20444444444444446,-0.09777777777777778],[0.20444444444444446,-0.09777777777777778],[0.20444444444444446,-0.09777777777777778],[0.20444444444444446,-0.09777777777777778],[0.20444444444444446,-0.09666666666666666]]]",3,"[42,46,43]",,,,,,,,,,,,,,readingroom4.jpg,space,5.829,0,6,6,82,1,publicrestroom2.jpg,sandDunes_desert_outdoor9.jpg,promenadeDeck3.jpg,postoffice4.jpg,,
Image_List_4,,,,,,,,,,,,,,,,46602,2022-01-27_19h55.58.997,analogCatScenes,2020.1.3,MacIntel,60,"[1440,900]","[[[-0.0011111111111111111,-0.20333333333333334],[-0.0011111111111111111,-0.20333333333333334],[-0.0011111111111111111,-0.20333333333333334],[-0.0011111111111111111,-0.20333333333333334],[-0.0011111111111111111,-0.20333333333333334],[-0.0011111111111111111,-0.20333333333333334],[-0.0011111111111111111,-0.20333333333333334],[-0.0011111111111111111,-0.20333333333333334],[-0.0011111111111111111,-0.20333333333333334],[-0.0011111111111111111,-0.20333333333333334],[-0.0011111111111111111,-0.19777777777777777],[-0.0011111111111111111,-0.18777777777777777],[-0.0011111111111111111,-0.17555555555555555],[-0.0011111111111111111,-0.16444444444444445],[-0.0011111111111111111,-0.14888888888888888],[-0.0022222222222222222,-0.14333333333333334],[-0.005555555555555556,-0.13111111111111112],[-0.008888888888888889,-0.11666666666666667],[-0.013333333333333334,-0.10444444444444445],[-0.016666666666666666,-0.09555555555555556],[-0.024444444444444446,-0.07888888888888888],[-0.03,-0.06666666666666667],[-0.03666666666666667,-0.052222222222222225],[-0.044444444444444446,-0.03666666666666667],[-0.051111111111111114,-0.022222222222222223],[-0.056666666666666664,-0.011111111111111112],[-0.06222222222222222,-0.0011111111111111111],[-0.06666666666666667,0.006666666666666667],[-0.07,0.015555555555555555],[-0.07222222222222222,0.025555555555555557],[-0.07333333333333333,0.03222222222222222],[-0.07333333333333333,0.03666666666666667],[-0.07444444444444444,0.04],[-0.07444444444444444,0.042222222222222223],[-0.07333333333333333,0.04555555555555556],[-0.07111111111111111,0.04888888888888889],[-0.06444444444444444,0.05555555555555555],[-0.06222222222222222,0.057777777777777775],[-0.05444444444444444,0.06222222222222222],[-0.04888888888888889,0.06555555555555556],[-0.044444444444444446,0.06666666666666667],[-0.04,0.06777777777777778],[-0.03777777777777778,0.06888888888888889],[-0.03666666666666667,0.06888888888888889],[-0.035555555555555556,0.06888888888888889],[-0.03333333333333333,0.06888888888888889],[-0.028888888888888888,0.07],[-0.027777777777777776,0.07],[-0.02666666666666667,0.07],[-0.02666666666666667,0.07],[-0.02666666666666667,0.07],[-0.02666666666666667,0.07],[-0.02666666666666667,0.07],[-0.02666666666666667,0.07]],[[0,-0.2],[0,-0.2],[0,-0.2],[0,-0.2],[0,-0.2],[0,-0.2],[0,-0.2],[-0.0011111111111111111,-0.2],[-0.005555555555555556,-0.1988888888888889],[-0.014444444444444444,-0.19555555555555557],[-0.027777777777777776,-0.1922222222222222],[-0.03888888888888889,-0.19],[-0.052222222222222225,-0.18888888888888888],[-0.06555555555555556,-0.18666666666666668],[-0.09555555555555556,-0.18666666666666668],[-0.11666666666666667,-0.18666666666666668],[-0.1322222222222222,-0.18666666666666668],[-0.15222222222222223,-0.18555555555555556],[-0.16777777777777778,-0.18333333333333332],[-0.1811111111111111,-0.18222222222222223],[-0.19111111111111112,-0.18],[-0.2011111111111111,-0.17777777777777778],[-0.21666666666666667,-0.17333333333333334],[-0.22666666666666666,-0.1711111111111111],[-0.23222222222222222,-0.17],[-0.23777777777777778,-0.16777777777777778],[-0.24888888888888888,-0.16444444444444445],[-0.25666666666666665,-0.16],[-0.2633333333333333,-0.15777777777777777],[-0.27,-0.15444444444444444],[-0.27444444444444444,-0.15222222222222223],[-0.2777777777777778,-0.15],[-0.2833333333333333,-0.14333333333333334],[-0.2877777777777778,-0.13777777777777778],[-0.28888888888888886,-0.13555555555555557],[-0.29555555555555557,-0.12666666666666668],[-0.29777777777777775,-0.12444444444444444],[-0.3,-0.12111111111111111],[-0.3011111111111111,-0.11444444444444445],[-0.3022222222222222,-0.10444444444444445],[-0.3022222222222222,-0.09777777777777778],[-0.3022222222222222,-0.09111111111111111],[-0.3022222222222222,-0.08444444444444445],[-0.3022222222222222,-0.07555555555555556],[-0.3,-0.06666666666666667],[-0.29333333333333333,-0.04777777777777778],[-0.29,-0.04111111111111111],[-0.2822222222222222,-0.02666666666666667],[-0.27666666666666667,-0.016666666666666666],[-0.2722222222222222,-0.011111111111111112],[-0.27,-0.006666666666666667],[-0.2677777777777778,-0.0044444444444444444],[-0.26666666666666666,-0.0044444444444444444],[-0.26555555555555554,-0.0022222222222222222],[-0.2633333333333333,0],[-0.26222222222222225,0.0022222222222222222],[-0.26222222222222225,0.0033333333333333335],[-0.2611111111111111,0.005555555555555556],[-0.2611111111111111,0.005555555555555556],[-0.26,0.005555555555555556],[-0.26,0.005555555555555556],[-0.26,0.005555555555555556],[-0.26,0.005555555555555556],[-0.26,0.005555555555555556],[-0.26,0.005555555555555556],[-0.26,0.005555555555555556],[-0.26,0.005555555555555556]],[[-0.0077777777777777776,-0.19666666666666666],[-0.0077777777777777776,-0.19666666666666666],[-0.0077777777777777776,-0.19666666666666666],[-0.0077777777777777776,-0.19666666666666666],[-0.0077777777777777776,-0.19666666666666666],[-0.0077777777777777776,-0.19666666666666666],[-0.0077777777777777776,-0.19666666666666666],[-0.0077777777777777776,-0.19666666666666666],[-0.005555555555555556,-0.19666666666666666],[0.0033333333333333335,-0.19666666666666666],[0.016666666666666666,-0.19666666666666666],[0.03,-0.19666666666666666],[0.043333333333333335,-0.19666666666666666],[0.04888888888888889,-0.19666666666666666],[0.051111111111111114,-0.19666666666666666],[0.052222222222222225,-0.19666666666666666],[0.056666666666666664,-0.19666666666666666],[0.06222222222222222,-0.19666666666666666],[0.07555555555555556,-0.19333333333333333],[0.08222222222222222,-0.1922222222222222],[0.09111111111111111,-0.19],[0.1,-0.18777777777777777],[0.10666666666666667,-0.18555555555555556],[0.11444444444444445,-0.18333333333333332],[0.12333333333333334,-0.1811111111111111],[0.13444444444444445,-0.17777777777777778],[0.15,-0.17444444444444446],[0.16,-0.17222222222222222],[0.16444444444444445,-0.17],[0.17666666666666667,-0.1688888888888889],[0.19,-0.16666666666666666],[0.21,-0.1622222222222222],[0.2222222222222222,-0.16111111111111112],[0.23555555555555555,-0.16],[0.2477777777777778,-0.15888888888888889],[0.26222222222222225,-0.15888888888888889],[0.28444444444444444,-0.15888888888888889],[0.29,-0.15888888888888889],[0.2966666666666667,-0.15888888888888889],[0.3022222222222222,-0.15888888888888889],[0.31,-0.15888888888888889],[0.31666666666666665,-0.15888888888888889],[0.32222222222222224,-0.15888888888888889],[0.3288888888888889,-0.15888888888888889],[0.33555555555555555,-0.15888888888888889],[0.33666666666666667,-0.15888888888888889],[0.33666666666666667,-0.15888888888888889],[0.33666666666666667,-0.15888888888888889]]]",3,"[54,67,48]",,,,,,,,,,,,,,homegarage4.jpg,space,6.059,0,7,7,54,1,greenhouse2.jpg,horsebarn11.jpg,gazebo2.jpg,frontFoyer.jpg,,
Image_List_4,,,,,,,,,,,,,,,,46602,2022-01-27_19h55.58.997,analogCatScenes,2020.1.3,MacIntel,60,"[1440,900]","[[[-0.0044444444444444444,-0.19777777777777777],[-0.0044444444444444444,-0.19777777777777777],[-0.0044444444444444444,-0.19777777777777777],[-0.0044444444444444444,-0.19777777777777777],[-0.0044444444444444444,-0.19777777777777777],[-0.0044444444444444444,-0.19777777777777777],[-0.0044444444444444444,-0.19777777777777777],[-0.0044444444444444444,-0.19777777777777777],[-0.0044444444444444444,-0.19555555555555557],[-0.0044444444444444444,-0.19111111111111112],[-0.0044444444444444444,-0.18333333333333332],[-0.0044444444444444444,-0.17555555555555555],[-0.0044444444444444444,-0.16333333333333333],[-0.0044444444444444444,-0.14444444444444443],[-0.0044444444444444444,-0.14],[-0.0044444444444444444,-0.1322222222222222],[-0.0044444444444444444,-0.11222222222222222],[-0.0044444444444444444,-0.11],[-0.0044444444444444444,-0.09888888888888889],[-0.005555555555555556,-0.09222222222222222],[-0.0077777777777777776,-0.08666666666666667],[-0.011111111111111112,-0.07777777777777778],[-0.016666666666666666,-0.06888888888888889],[-0.027777777777777776,-0.05333333333333334],[-0.03222222222222222,-0.04888888888888889],[-0.04111111111111111,-0.035555555555555556],[-0.04888888888888889,-0.023333333333333334],[-0.05555555555555555,-0.012222222222222223],[-0.06333333333333334,-0.0033333333333333335],[-0.07,0.006666666666666667],[-0.07777777777777778,0.01888888888888889],[-0.08777777777777777,0.03777777777777778],[-0.09222222222222222,0.044444444444444446],[-0.09777777777777778,0.052222222222222225],[-0.10555555555555556,0.058888888888888886],[-0.1111111111111111,0.06444444444444444],[-0.11888888888888889,0.07222222222222222],[-0.13111111111111112,0.08666666666666667],[-0.13777777777777778,0.09666666666666666],[-0.14222222222222222,0.10222222222222223],[-0.14777777777777779,0.10777777777777778],[-0.15444444444444444,0.11333333333333333],[-0.16111111111111112,0.11666666666666667],[-0.16666666666666666,0.11888888888888889],[-0.1711111111111111,0.12],[-0.17444444444444446,0.12111111111111111],[-0.17666666666666667,0.12222222222222222],[-0.17888888888888888,0.12333333333333334],[-0.1811111111111111,0.12333333333333334],[-0.18333333333333332,0.12333333333333334],[-0.18444444444444444,0.12333333333333334],[-0.18666666666666668,0.12444444444444444],[-0.18777777777777777,0.12444444444444444],[-0.18777777777777777,0.12444444444444444],[-0.18777777777777777,0.12444444444444444],[-0.18666666666666668,0.12444444444444444],[-0.18555555555555556,0.12444444444444444],[-0.18444444444444444,0.12444444444444444],[-0.18333333333333332,0.12444444444444444],[-0.18333333333333332,0.12444444444444444],[-0.18222222222222223,0.12444444444444444],[-0.18222222222222223,0.12444444444444444],[-0.18222222222222223,0.12444444444444444],[-0.18222222222222223,0.12444444444444444],[-0.18222222222222223,0.12444444444444444],[-0.18222222222222223,0.12444444444444444]],[[0.0044444444444444444,-0.19333333333333333],[0.0044444444444444444,-0.19333333333333333],[0.0044444444444444444,-0.19333333333333333],[0.0044444444444444444,-0.19333333333333333],[0.0044444444444444444,-0.19333333333333333],[0.0044444444444444444,-0.19333333333333333],[0.0044444444444444444,-0.18888888888888888],[0.0044444444444444444,-0.17777777777777778],[0.0044444444444444444,-0.16111111111111112],[0.0044444444444444444,-0.13666666666666666],[0.0044444444444444444,-0.1111111111111111],[0.0044444444444444444,-0.08333333333333333],[0.011111111111111112,-0.043333333333333335],[0.017777777777777778,-0.02],[0.01888888888888889,-0.014444444444444444],[0.02666666666666667,0.0044444444444444444],[0.03222222222222222,0.015555555555555555],[0.03777777777777778,0.02666666666666667],[0.043333333333333335,0.03666666666666667],[0.04555555555555556,0.042222222222222223],[0.051111111111111114,0.056666666666666664],[0.05555555555555555,0.06555555555555556],[0.057777777777777775,0.07222222222222222],[0.06555555555555556,0.09222222222222222],[0.06666666666666667,0.09333333333333334],[0.07555555555555556,0.1111111111111111],[0.0811111111111111,0.12111111111111111],[0.08444444444444445,0.12777777777777777],[0.09444444444444444,0.14777777777777779],[0.1,0.15888888888888889],[0.11333333333333333,0.18333333333333332],[0.11666666666666667,0.18888888888888888],[0.12,0.19555555555555557],[0.12111111111111111,0.1988888888888889],[0.12222222222222222,0.2],[0.12222222222222222,0.2011111111111111],[0.12777777777777777,0.20555555555555555],[0.13333333333333333,0.21333333333333335],[0.14333333333333334,0.23],[0.14666666666666667,0.23333333333333334],[0.14888888888888888,0.23777777777777778],[0.15,0.24],[0.1511111111111111,0.24],[0.1511111111111111,0.24],[0.1511111111111111,0.24]],[[0,-0.19],[0,-0.19],[0,-0.19],[0,-0.19],[0,-0.19],[0,-0.19],[0,-0.19],[0,-0.19],[0,-0.19],[0,-0.18666666666666668],[0,-0.18],[0,-0.17],[0,-0.16],[0,-0.14777777777777779],[0,-0.13444444444444445],[0,-0.12],[0.0022222222222222222,-0.10666666666666667],[0.0077777777777777776,-0.09],[0.014444444444444444,-0.07888888888888888],[0.022222222222222223,-0.07],[0.03,-0.06111111111111111],[0.03777777777777778,-0.05333333333333334],[0.04666666666666667,-0.04555555555555556],[0.06111111111111111,-0.03333333333333333],[0.07555555555555556,-0.022222222222222223],[0.08,-0.017777777777777778],[0.08888888888888889,-0.011111111111111112],[0.09555555555555556,-0.005555555555555556],[0.10777777777777778,0.0033333333333333335],[0.11777777777777777,0.01],[0.12777777777777777,0.015555555555555555],[0.13666666666666666,0.022222222222222223],[0.14666666666666667,0.027777777777777776],[0.15555555555555556,0.03111111111111111],[0.16333333333333333,0.035555555555555556],[0.17888888888888888,0.04111111111111111],[0.18444444444444444,0.043333333333333335],[0.19555555555555557,0.04666666666666667],[0.20222222222222222,0.04888888888888889],[0.2088888888888889,0.051111111111111114],[0.21555555555555556,0.05333333333333334],[0.22555555555555556,0.056666666666666664],[0.23333333333333334,0.057777777777777775],[0.24333333333333335,0.058888888888888886],[0.2544444444444444,0.06111111111111111],[0.2611111111111111,0.06333333333333334],[0.26666666666666666,0.06444444444444444],[0.2688888888888889,0.06444444444444444],[0.27,0.06444444444444444],[0.27,0.06444444444444444],[0.27,0.06444444444444444]]]",3,"[66,45,51]",,,,,,,,,,,,,,kindergarten_classroom6.jpg,space,6.508,0,8,8,60,1,hometheater2.jpg,lightingstore3.jpg,homegarage.jpg,hallway.jpg,,
Image_List_4,,,,,,,,,,,,,,,,46602,2022-01-27_19h55.58.997,analogCatScenes,2020.1.3,MacIntel,60,"[1440,900]","[[[-0.0033333333333333335,-0.20777777777777778],[-0.0033333333333333335,-0.20777777777777778],[-0.0033333333333333335,-0.20777777777777778],[-0.0033333333333333335,-0.20777777777777778],[-0.0033333333333333335,-0.20777777777777778],[-0.0033333333333333335,-0.20777777777777778],[-0.0033333333333333335,-0.20777777777777778],[-0.0033333333333333335,-0.20777777777777778],[-0.006666666666666667,-0.20777777777777778],[-0.014444444444444444,-0.20777777777777778],[-0.03,-0.20777777777777778],[-0.04777777777777778,-0.20777777777777778],[-0.05555555555555555,-0.20777777777777778],[-0.08,-0.20777777777777778],[-0.09333333333333334,-0.20777777777777778],[-0.12444444444444444,-0.20555555555555555],[-0.14222222222222222,-0.20444444444444446],[-0.15888888888888889,-0.1988888888888889],[-0.18222222222222223,-0.1922222222222222],[-0.19666666666666666,-0.18666666666666668],[-0.22111111111111112,-0.17333333333333334],[-0.22777777777777777,-0.16777777777777778],[-0.2411111111111111,-0.16],[-0.2577777777777778,-0.14555555555555555],[-0.27,-0.13444444444444445],[-0.27666666666666667,-0.1288888888888889],[-0.28888888888888886,-0.11666666666666667],[-0.30444444444444446,-0.09888888888888889],[-0.31222222222222223,-0.08888888888888889],[-0.31777777777777777,-0.07888888888888888],[-0.3233333333333333,-0.06888888888888889],[-0.3277777777777778,-0.058888888888888886],[-0.33111111111111113,-0.04777777777777778],[-0.33444444444444443,-0.03222222222222222],[-0.33444444444444443,-0.025555555555555557],[-0.33444444444444443,-0.022222222222222223],[-0.33444444444444443,-0.02],[-0.33444444444444443,-0.01888888888888889],[-0.33444444444444443,-0.01888888888888889],[-0.33444444444444443,-0.01888888888888889],[-0.33444444444444443,-0.01888888888888889],[-0.33444444444444443,-0.01888888888888889],[-0.33444444444444443,-0.01888888888888889],[-0.33444444444444443,-0.01888888888888889],[-0.33444444444444443,-0.01888888888888889],[-0.33444444444444443,-0.01888888888888889]],[[0,-0.20222222222222222],[0,-0.20222222222222222],[0,-0.20222222222222222],[0,-0.20222222222222222],[0,-0.20222222222222222],[0,-0.20222222222222222],[0,-0.20222222222222222],[0,-0.20222222222222222],[0,-0.20222222222222222],[0,-0.20222222222222222],[0.0077777777777777776,-0.1988888888888889],[0.01888888888888889,-0.19444444444444445],[0.02666666666666667,-0.19111111111111112],[0.03777777777777778,-0.18777777777777777],[0.042222222222222223,-0.18666666666666668],[0.051111111111111114,-0.18333333333333332],[0.058888888888888886,-0.18222222222222223],[0.06888888888888889,-0.18],[0.08222222222222222,-0.17555555555555555],[0.09555555555555556,-0.17222222222222222],[0.11222222222222222,-0.16666666666666666],[0.12333333333333334,-0.16333333333333333],[0.1288888888888889,-0.1622222222222222],[0.14,-0.16],[0.15888888888888889,-0.15777777777777777],[0.18,-0.15444444444444444],[0.19777777777777777,-0.15222222222222223],[0.2288888888888889,-0.14888888888888888],[0.24888888888888888,-0.14666666666666667],[0.2733333333333333,-0.14333333333333334],[0.29444444444444445,-0.14222222222222222],[0.3188888888888889,-0.14],[0.34555555555555556,-0.1388888888888889]]]",2,"[46,33]",,,,,,,,,,,,,,museum4.jpg,space,3.792,0,9,9,72,1,museum5.jpg,pharmacy4.jpg,musicStore1.jpg,kindergarten_classroom.jpg,,
Image_List_4,,,,,,,,,,,,,,,,46602,2022-01-27_19h55.58.997,analogCatScenes,2020.1.3,MacIntel,60,"[1440,900]","[[[-0.008888888888888889,-0.1922222222222222],[-0.008888888888888889,-0.1922222222222222],[-0.008888888888888889,-0.1922222222222222],[-0.008888888888888889,-0.1922222222222222],[-0.008888888888888889,-0.1922222222222222],[-0.008888888888888889,-0.1922222222222222],[-0.008888888888888889,-0.1922222222222222],[-0.013333333333333334,-0.1922222222222222],[-0.025555555555555557,-0.1922222222222222],[-0.04111111111111111,-0.1922222222222222],[-0.06111111111111111,-0.1922222222222222],[-0.1,-0.1922222222222222],[-0.11555555555555555,-0.1922222222222222],[-0.15333333333333332,-0.1922222222222222],[-0.19,-0.1922222222222222],[-0.2288888888888889,-0.18888888888888888],[-0.24222222222222223,-0.18777777777777777],[-0.2733333333333333,-0.18222222222222223],[-0.2966666666666667,-0.17555555555555555],[-0.31222222222222223,-0.16777777777777778],[-0.3244444444444444,-0.16111111111111112],[-0.33555555555555555,-0.15333333333333332],[-0.34444444444444444,-0.14777777777777779]],[[0.0033333333333333335,-0.1988888888888889],[0.0033333333333333335,-0.1988888888888889],[0.0033333333333333335,-0.1988888888888889],[0.0033333333333333335,-0.1988888888888889],[0.0033333333333333335,-0.1988888888888889],[0.0033333333333333335,-0.1988888888888889],[0.0033333333333333335,-0.1988888888888889],[0.0033333333333333335,-0.19666666666666666],[0.0033333333333333335,-0.1922222222222222],[0.0033333333333333335,-0.18555555555555556],[0.0033333333333333335,-0.18],[0.0033333333333333335,-0.17444444444444446],[0.0033333333333333335,-0.16111111111111112],[0.0033333333333333335,-0.15333333333333332],[0.0022222222222222222,-0.14666666666666667],[0.0011111111111111111,-0.1411111111111111],[0,-0.13777777777777778],[-0.0011111111111111111,-0.13444444444444445],[-0.0044444444444444444,-0.13111111111111112],[-0.008888888888888889,-0.12444444444444444],[-0.012222222222222223,-0.11888888888888889],[-0.02,-0.11],[-0.024444444444444446,-0.10555555555555556],[-0.03111111111111111,-0.10111111111111111],[-0.03777777777777778,-0.09444444444444444],[-0.04555555555555556,-0.08666666666666667],[-0.05333333333333334,-0.07888888888888888],[-0.057777777777777775,-0.07444444444444444],[-0.06333333333333334,-0.06888888888888889],[-0.06888888888888889,-0.06444444444444444],[-0.07444444444444444,-0.058888888888888886],[-0.07888888888888888,-0.05333333333333334],[-0.08555555555555555,-0.04555555555555556],[-0.08777777777777777,-0.043333333333333335],[-0.09111111111111111,-0.04],[-0.09222222222222222,-0.03888888888888889],[-0.09333333333333334,-0.03888888888888889],[-0.09333333333333334,-0.03888888888888889],[-0.09333333333333334,-0.03888888888888889],[-0.09333333333333334,-0.03888888888888889],[-0.09333333333333334,-0.03888888888888889]],[[0.005555555555555556,-0.2011111111111111],[0.005555555555555556,-0.2011111111111111],[0.005555555555555556,-0.2011111111111111],[0.005555555555555556,-0.2011111111111111],[0.005555555555555556,-0.2011111111111111],[0.005555555555555556,-0.2011111111111111],[0.005555555555555556,-0.19555555555555557],[0.005555555555555556,-0.18555555555555556],[0.005555555555555556,-0.18],[0.005555555555555556,-0.17666666666666667],[0.0077777777777777776,-0.1688888888888889],[0.013333333333333334,-0.16444444444444445],[0.017777777777777778,-0.1622222222222222],[0.024444444444444446,-0.16],[0.03333333333333333,-0.15666666666666668],[0.043333333333333335,-0.15333333333333332],[0.05444444444444444,-0.14888888888888888],[0.06444444444444444,-0.14444444444444443],[0.06777777777777778,-0.14333333333333334],[0.08333333333333333,-0.13777777777777778],[0.09444444444444444,-0.13444444444444445],[0.10777777777777778,-0.13111111111111112],[0.12333333333333334,-0.1288888888888889],[0.13666666666666666,-0.12666666666666668],[0.14777777777777779,-0.12444444444444444],[0.15666666666666668,-0.12333333333333334],[0.16666666666666666,-0.12222222222222222],[0.18333333333333332,-0.12],[0.19333333333333333,-0.11888888888888889],[0.22,-0.11666666666666667],[0.24333333333333335,-0.11333333333333333],[0.26222222222222225,-0.1111111111111111],[0.27111111111111114,-0.1111111111111111],[0.3,-0.1111111111111111],[0.31,-0.11],[0.3477777777777778,-0.11]]]",3,"[23,41,36]",,,,,,,,,,,,,,appleorchard2.jpg,space,5.526,0,10,10,3,1,apartmentBuilding2.jpg,attic1.jpg,aquarium1.jpg,alley3.jpg,,
Image_List_4,,,,,,,,,,,,,,,,46602,2022-01-27_19h55.58.997,analogCatScenes,2020.1.3,MacIntel,60,"[1440,900]","[[[-0.0011111111111111111,-0.20222222222222222],[-0.0011111111111111111,-0.20222222222222222],[-0.0011111111111111111,-0.20222222222222222],[-0.0011111111111111111,-0.20222222222222222],[-0.0011111111111111111,-0.20222222222222222],[-0.0011111111111111111,-0.20222222222222222],[-0.0011111111111111111,-0.1988888888888889],[-0.0011111111111111111,-0.19111111111111112],[-0.0011111111111111111,-0.18444444444444444],[-0.0011111111111111111,-0.17777777777777778],[-0.0011111111111111111,-0.1711111111111111],[-0.0011111111111111111,-0.16],[-0.0011111111111111111,-0.15],[-0.0011111111111111111,-0.14444444444444443],[-0.0011111111111111111,-0.1411111111111111],[-0.0011111111111111111,-0.13444444444444445],[-0.0011111111111111111,-0.13111111111111112],[-0.0011111111111111111,-0.11888888888888889],[-0.0022222222222222222,-0.11444444444444445],[-0.0033333333333333335,-0.10555555555555556],[-0.0033333333333333335,-0.10222222222222223],[-0.0033333333333333335,-0.1],[-0.0033333333333333335,-0.09444444444444444],[-0.0044444444444444444,-0.08555555555555555],[-0.005555555555555556,-0.07222222222222222],[-0.006666666666666667,-0.06333333333333334],[-0.0077777777777777776,-0.056666666666666664],[-0.0077777777777777776,-0.05333333333333334],[-0.0077777777777777776,-0.05],[-0.008888888888888889,-0.043333333333333335],[-0.01,-0.03222222222222222],[-0.012222222222222223,-0.017777777777777778],[-0.014444444444444444,-0.005555555555555556],[-0.015555555555555555,-0.0011111111111111111],[-0.015555555555555555,0.0044444444444444444],[-0.016666666666666666,0.006666666666666667],[-0.016666666666666666,0.01],[-0.016666666666666666,0.012222222222222223],[-0.017777777777777778,0.014444444444444444],[-0.017777777777777778,0.014444444444444444],[-0.017777777777777778,0.014444444444444444],[-0.017777777777777778,0.014444444444444444],[-0.017777777777777778,0.014444444444444444],[-0.017777777777777778,0.014444444444444444],[-0.017777777777777778,0.014444444444444444],[-0.017777777777777778,0.014444444444444444]],[[-0.0033333333333333335,-0.2],[-0.0033333333333333335,-0.2],[-0.0033333333333333335,-0.2],[-0.0033333333333333335,-0.2],[-0.0033333333333333335,-0.2],[-0.0033333333333333335,-0.2],[-0.0033333333333333335,-0.19666666666666666],[-0.0033333333333333335,-0.18888888888888888],[-0.0033333333333333335,-0.17333333333333334],[-0.0033333333333333335,-0.16666666666666666],[-0.0033333333333333335,-0.15333333333333332],[-0.0033333333333333335,-0.1388888888888889],[-0.0033333333333333335,-0.12666666666666668],[-0.006666666666666667,-0.1111111111111111],[-0.011111111111111112,-0.10222222222222223],[-0.017777777777777778,-0.09444444444444444],[-0.025555555555555557,-0.08444444444444445],[-0.03777777777777778,-0.07333333333333333],[-0.05,-0.06222222222222222],[-0.06333333333333334,-0.051111111111111114],[-0.07666666666666666,-0.043333333333333335],[-0.08888888888888889,-0.034444444444444444],[-0.10111111111111111,-0.025555555555555557],[-0.11444444444444445,-0.017777777777777778],[-0.12666666666666668,-0.011111111111111112],[-0.13666666666666666,-0.005555555555555556],[-0.14777777777777779,0],[-0.16444444444444445,0.006666666666666667],[-0.17444444444444446,0.011111111111111112],[-0.18444444444444444,0.016666666666666666],[-0.19333333333333333,0.021111111111111112],[-0.20222222222222222,0.02666666666666667],[-0.20777777777777778,0.03],[-0.21777777777777776,0.035555555555555556],[-0.22333333333333333,0.03777777777777778],[-0.22444444444444445,0.03888888888888889],[-0.23,0.04111111111111111],[-0.2311111111111111,0.042222222222222223],[-0.23333333333333334,0.042222222222222223],[-0.23444444444444446,0.043333333333333335],[-0.23555555555555555,0.043333333333333335],[-0.23666666666666666,0.044444444444444446],[-0.23777777777777778,0.044444444444444446],[-0.2388888888888889,0.044444444444444446],[-0.24,0.04555555555555556],[-0.24,0.04555555555555556],[-0.2411111111111111,0.04555555555555556],[-0.2411111111111111,0.04555555555555556],[-0.2411111111111111,0.04555555555555556],[-0.2411111111111111,0.04555555555555556]],[[0,-0.1988888888888889],[0,-0.1988888888888889],[0,-0.1988888888888889],[0,-0.1988888888888889],[0,-0.1988888888888889],[0,-0.1988888888888889],[0,-0.1988888888888889],[0,-0.1922222222222222],[0,-0.18444444444444444],[0,-0.17444444444444446],[0,-0.1622222222222222],[0,-0.15777777777777777],[0,-0.14],[0,-0.13333333333333333],[0,-0.12222222222222222],[0,-0.11777777777777777],[0,-0.10111111111111111],[0.0011111111111111111,-0.09444444444444444],[0.005555555555555556,-0.0811111111111111],[0.01,-0.06888888888888889],[0.013333333333333334,-0.06222222222222222],[0.01888888888888889,-0.051111111111111114],[0.021111111111111112,-0.04666666666666667],[0.021111111111111112,-0.04666666666666667],[0.03111111111111111,-0.03333333333333333],[0.034444444444444444,-0.028888888888888888],[0.03888888888888889,-0.024444444444444446],[0.04777777777777778,-0.012222222222222223],[0.05,-0.0077777777777777776],[0.06111111111111111,0.0033333333333333335],[0.06444444444444444,0.006666666666666667],[0.07444444444444444,0.013333333333333334],[0.07888888888888888,0.016666666666666666],[0.09,0.024444444444444446],[0.09777777777777778,0.028888888888888888],[0.1111111111111111,0.035555555555555556],[0.11777777777777777,0.03888888888888889],[0.13111111111111112,0.043333333333333335],[0.14,0.04555555555555556],[0.14777777777777779,0.04777777777777778],[0.15666666666666668,0.04777777777777778],[0.17222222222222222,0.04888888888888889],[0.18444444444444444,0.04888888888888889],[0.19777777777777777,0.04888888888888889],[0.20666666666666667,0.04888888888888889],[0.21444444444444444,0.04888888888888889],[0.22,0.04888888888888889],[0.22444444444444445,0.04888888888888889],[0.22777777777777777,0.04888888888888889],[0.23444444444444446,0.04777777777777778],[0.23666666666666666,0.04777777777777778],[0.24,0.04777777777777778],[0.24222222222222223,0.04777777777777778],[0.24333333333333335,0.04777777777777778],[0.24444444444444444,0.04777777777777778],[0.24444444444444444,0.04777777777777778],[0.24444444444444444,0.04777777777777778],[0.24444444444444444,0.04777777777777778],[0.24444444444444444,0.04777777777777778]]]",3,"[46,50,59]",,,,,,,,,,,,,,churchInside3.jpg,space,6.801,0,11,11,26,1,campusquad2.jpg,cornfield4.jpg,church4.jpg,botanicalGarden7.jpg,,
Image_List_4,,,,,,,,,,,,,,,,46602,2022-01-27_19h55.58.997,analogCatScenes,2020.1.3,MacIntel,60,"[1440,900]","[[[0,-0.19666666666666666],[0,-0.19666666666666666],[0,-0.19666666666666666],[0,-0.19666666666666666],[0,-0.19666666666666666],[0,-0.19666666666666666],[0,-0.19666666666666666],[0,-0.19666666666666666],[0,-0.19555555555555557],[-0.0011111111111111111,-0.1922222222222222],[-0.006666666666666667,-0.18222222222222223],[-0.011111111111111112,-0.17333333333333334],[-0.016666666666666666,-0.16444444444444445],[-0.023333333333333334,-0.15444444444444444],[-0.025555555555555557,-0.15],[-0.03222222222222222,-0.1388888888888889],[-0.03888888888888889,-0.13111111111111112],[-0.05,-0.11333333333333333],[-0.057777777777777775,-0.10111111111111111],[-0.06555555555555556,-0.09],[-0.07111111111111111,-0.07888888888888888],[-0.07666666666666666,-0.06888888888888889],[-0.0811111111111111,-0.057777777777777775],[-0.08777777777777777,-0.04],[-0.08888888888888889,-0.03333333333333333],[-0.09222222222222222,-0.021111111111111112],[-0.09333333333333334,-0.014444444444444444],[-0.09555555555555556,-0.0077777777777777776],[-0.09666666666666666,0],[-0.09666666666666666,0.0077777777777777776],[-0.09666666666666666,0.02666666666666667],[-0.09666666666666666,0.042222222222222223],[-0.09666666666666666,0.04888888888888889],[-0.09555555555555556,0.058888888888888886],[-0.09222222222222222,0.06666666666666667],[-0.08777777777777777,0.07555555555555556],[-0.08222222222222222,0.08444444444444445],[-0.07444444444444444,0.09666666666666666],[-0.07222222222222222,0.1],[-0.07,0.10222222222222223],[-0.06444444444444444,0.10666666666666667],[-0.057777777777777775,0.1111111111111111],[-0.04777777777777778,0.11777777777777777],[-0.034444444444444444,0.12777777777777777],[-0.028888888888888888,0.13333333333333333],[-0.02,0.1388888888888889],[-0.013333333333333334,0.14222222222222222],[-0.008888888888888889,0.14555555555555555],[-0.0033333333333333335,0.14888888888888888],[-0.0011111111111111111,0.15],[0,0.1511111111111111],[0.0011111111111111111,0.1511111111111111],[0.0011111111111111111,0.1511111111111111],[0.0011111111111111111,0.1511111111111111],[0.0011111111111111111,0.1511111111111111],[0.0011111111111111111,0.1511111111111111],[0.0011111111111111111,0.1511111111111111],[0.0011111111111111111,0.1511111111111111],[0.0011111111111111111,0.1511111111111111]],[[0.0044444444444444444,-0.2],[0.0044444444444444444,-0.2],[0.0044444444444444444,-0.2],[0.0044444444444444444,-0.2],[0.0044444444444444444,-0.2],[0.0044444444444444444,-0.2],[0.0044444444444444444,-0.2],[0.005555555555555556,-0.2],[0.0077777777777777776,-0.2],[0.014444444444444444,-0.2],[0.021111111111111112,-0.2],[0.028888888888888888,-0.19777777777777777],[0.035555555555555556,-0.19666666666666666],[0.03888888888888889,-0.19444444444444445],[0.04555555555555556,-0.19111111111111112],[0.052222222222222225,-0.18777777777777777],[0.06,-0.18444444444444444],[0.06777777777777778,-0.17888888888888888],[0.07666666666666666,-0.17444444444444446],[0.08444444444444445,-0.17],[0.09222222222222222,-0.16555555555555557],[0.09888888888888889,-0.16],[0.10666666666666667,-0.15333333333333332],[0.11777777777777777,-0.14444444444444443],[0.1288888888888889,-0.13444444444444445],[0.14,-0.12444444444444444],[0.15444444444444444,-0.11],[0.1622222222222222,-0.10111111111111111],[0.17,-0.09222222222222222],[0.18,-0.0811111111111111],[0.18777777777777777,-0.07],[0.19666666666666666,-0.056666666666666664],[0.2011111111111111,-0.051111111111111114],[0.20444444444444446,-0.04555555555555556],[0.2088888888888889,-0.04],[0.21333333333333335,-0.03222222222222222],[0.22,-0.022222222222222223],[0.22333333333333333,-0.014444444444444444],[0.2288888888888889,-0.005555555555555556],[0.23,-0.0022222222222222222],[0.23222222222222222,0.0011111111111111111],[0.23333333333333334,0.0044444444444444444],[0.23555555555555555,0.013333333333333334],[0.23777777777777778,0.021111111111111112],[0.2411111111111111,0.03222222222222222],[0.2411111111111111,0.03222222222222222],[0.24222222222222223,0.03666666666666667],[0.24444444444444444,0.04555555555555556],[0.24444444444444444,0.04888888888888889],[0.24555555555555555,0.06222222222222222],[0.24555555555555555,0.07],[0.24555555555555555,0.07666666666666666],[0.24555555555555555,0.08333333333333333],[0.24555555555555555,0.09],[0.24555555555555555,0.09888888888888889],[0.24222222222222223,0.11],[0.23666666666666666,0.12777777777777777],[0.23333333333333334,0.14],[0.2311111111111111,0.14444444444444443],[0.22777777777777777,0.15555555555555556],[0.22333333333333333,0.16777777777777778],[0.22,0.17666666666666667],[0.21666666666666667,0.18333333333333332],[0.21333333333333335,0.18777777777777777],[0.21222222222222223,0.19],[0.21,0.19111111111111112],[0.2088888888888889,0.1922222222222222],[0.20666666666666667,0.19333333333333333],[0.20333333333333334,0.19444444444444445],[0.2011111111111111,0.19444444444444445],[0.1988888888888889,0.19555555555555557],[0.1988888888888889,0.19555555555555557],[0.1988888888888889,0.19555555555555557],[0.1988888888888889,0.19555555555555557],[0.1988888888888889,0.19555555555555557],[0.1988888888888889,0.19555555555555557],[0.1988888888888889,0.19555555555555557],[0.1988888888888889,0.19555555555555557],[0.1988888888888889,0.19555555555555557],[0.1988888888888889,0.19555555555555557]]]",2,"[59,80]",,,,,,,,,,,,,,cemetery5.jpg,space,5.526,0,12,12,24,1,campsite.jpg,cliff3.jpg,cave6.jpg,boardwalk.jpg,,
