image_list,key_resp_intructions.keys,key_resp_intructions.rt,key_resp_intructions_3.keys,key_resp_intructions_3.rt,PracticeComplete_2.keys,PracticeComplete_2.rt,PracticeComplete_3.keys,PracticeComplete_3.rt,demo_trials.thisRepN,demo_trials.thisTrialN,demo_trials.thisN,demo_trials.thisIndex,demo_trials.ran,demo_images,path_images,participant,date,expName,psychopyVersion,OS,frameRate,windowSize,drawing,numDrawings,drawingSizes,practice_complete.keys,practice_complete.rt,PracticeComplete.keys,PracticeComplete.rt,practice_trials.thisRepN,practice_trials.thisTrialN,practice_trials.thisN,practice_trials.thisIndex,practice_trials.ran,practice_images,feedback_images,key_resp_intructions_2.keys,key_resp_intructions_2.rt,Image_List_2,trial_complete.keys,trial_complete.rt,trials.thisRepN,trials.thisTrialN,trials.thisN,trials.thisIndex,trials.ran,Image_List_1,Image_List_3,Image_List_4,Image_List_5,key_resp.keys,key_resp.rt
Image_List_2,space,40.3373,space,6.6075,space,12.3319,space,3.1399,0,0,0,0,1,ahead.jpg,ahead_path.jpg,46612,2022-03-02_22h14.48.634,analogCatScenes,2020.1.3,Win32,60,,,,,,,,,,,,,,,,,,,,,,,,,,,,,,,
Image_List_2,,,,,space,2.378,space,4.7563,0,1,1,4,1,left.jpg,left_path.jpg,46612,2022-03-02_22h14.48.634,analogCatScenes,2020.1.3,Win32,60,,,,,,,,,,,,,,,,,,,,,,,,,,,,,,,
Image_List_2,,,,,space,3.4022,space,3.2746,0,2,2,3,1,ahead_right_left.jpg,ahead_right_left_path.jpg,46612,2022-03-02_22h14.48.634,analogCatScenes,2020.1.3,Win32,60,,,,,,,,,,,,,,,,,,,,,,,,,,,,,,,
Image_List_2,,,,,space,1.7896,space,1.9883,0,3,3,5,1,right.jpg,right_path.jpg,46612,2022-03-02_22h14.48.634,analogCatScenes,2020.1.3,Win32,60,,,,,,,,,,,,,,,,,,,,,,,,,,,,,,,
Image_List_2,,,,,space,1.4149,space,1.4983,0,4,4,2,1,ahead_right.jpg,ahead_right_path.jpg,46612,2022-03-02_22h14.48.634,analogCatScenes,2020.1.3,Win32,60,,,,,,,,,,,,,,,,,,,,,,,,,,,,,,,
Image_List_2,,,,,space,1.5997,space,1.3851,0,5,5,6,1,right_left.jpg,right_left_path.jpg,46612,2022-03-02_22h14.48.634,analogCatScenes,2020.1.3,Win32,60,,,,,,,,,,,,,,,,,,,,,,,,,,,,,,,
Image_List_2,,,,,space,1.4418,space,1.219,0,6,6,1,1,ahead_left.jpg,ahead_left_path.jpg,46612,2022-03-02_22h14.48.634,analogCatScenes,2020.1.3,Win32,60,,,,,,,,,,,,,,,,,,,,,,,,,,,,,,,
Image_List_2,,,,,,,,,,,,,,,,46612,2022-03-02_22h14.48.634,analogCatScenes,2020.1.3,Win32,60,"[1368,912]","[[[-0.004934210526315789,-0.20065789473684212],[-0.004934210526315789,-0.20065789473684212],[-0.0010964912280701754,-0.21162280701754385],[0.0268640350877193,-0.18640350877192982],[0.03125,-0.18311403508771928],[0.03344298245614035,-0.1787280701754386],[0.04111842105263158,-0.16228070175438597],[0.048793859649122806,-0.15021929824561403],[0.05975877192982456,-0.13925438596491227],[0.07675438596491228,-0.12445175438596491],[0.08223684210526316,-0.11842105263157894],[0.08881578947368421,-0.1118421052631579],[0.09978070175438597,-0.10087719298245613],[0.11348684210526316,-0.09100877192982457],[0.12664473684210525,-0.08388157894736842],[0.1387061403508772,-0.07401315789473684],[0.14967105263157895,-0.06798245614035088],[0.15625,-0.06140350877192982],[0.16447368421052633,-0.0537280701754386],[0.18092105263157895,-0.046600877192982455],[0.19298245614035087,-0.0400219298245614],[0.21600877192982457,-0.027960526315789474],[0.23190789473684212,-0.020285087719298246],[0.2412280701754386,-0.01644736842105263],[0.25548245614035087,-0.010964912280701754],[0.26260964912280704,-0.007675438596491228],[0.2708333333333333,-0.0027412280701754384],[0.28289473684210525,0.001644736842105263],[0.2905701754385965,0.004934210526315789],[0.29714912280701755,0.00712719298245614],[0.3042763157894737,0.00932017543859649],[0.3053728070175439,0.00932017543859649],[0.31359649122807015,0.012609649122807017],[0.3201754385964912,0.013157894736842105],[0.3262061403508772,0.013157894736842105],[0.33278508771929827,0.010964912280701754],[0.3344298245614035,0.00932017543859649],[0.3344298245614035,0.00932017543859649]]]",1,[38],space,20.2917,space,3.8239,0,0,0,5,1,right_2.jpg,right_2_path.jpg,,,,,,,,,,,,,,,,
Image_List_2,,,,,,,,,,,,,,,,46612,2022-03-02_22h14.48.634,analogCatScenes,2020.1.3,Win32,60,"[1368,912]","[[[-0.005482456140350877,-0.20065789473684212],[-0.005482456140350877,-0.20065789473684212],[-0.010416666666666666,-0.19956140350877194],[-0.025767543859649123,-0.17434210526315788],[-0.03344298245614035,-0.16228070175438597],[-0.03892543859649123,-0.14364035087719298],[-0.049890350877192985,-0.11403508771929824],[-0.0581140350877193,-0.09703947368421052],[-0.0581140350877193,-0.09649122807017543],[-0.0581140350877193,-0.09649122807017543],[-0.06085526315789474,-0.09649122807017543],[-0.07785087719298246,-0.06140350877192982],[-0.09484649122807018,-0.03070175438596491],[-0.10087719298245613,-0.005482456140350877],[-0.10307017543859649,0.011513157894736841],[-0.10910087719298246,0.03179824561403509],[-0.11567982456140351,0.04057017543859649],[-0.12390350877192982,0.05756578947368421],[-0.13048245614035087,0.07730263157894737],[-0.13980263157894737,0.09484649122807018],[-0.14528508771929824,0.11403508771929824],[-0.1474780701754386,0.12938596491228072],[-0.15460526315789475,0.14035087719298245],[-0.15844298245614036,0.14802631578947367],[-0.1600877192982456,0.15625],[-0.16228070175438597,0.16337719298245615],[-0.16447368421052633,0.16721491228070176],[-0.16776315789473684,0.17105263157894737],[-0.17050438596491227,0.17269736842105263],[-0.17214912280701755,0.1737938596491228],[-0.17269736842105263,0.1737938596491228]],[[0.0005482456140350877,-0.19462719298245615],[0.0005482456140350877,-0.19462719298245615],[0.003289473684210526,-0.1836622807017544],[0.005482456140350877,-0.17653508771929824],[0.01699561403508772,-0.15679824561403508],[0.02412280701754386,-0.14364035087719298],[0.03125,-0.12554824561403508],[0.03892543859649123,-0.10581140350877193],[0.03892543859649123,-0.10471491228070176],[0.03892543859649123,-0.10471491228070176],[0.03892543859649123,-0.10471491228070176],[0.03892543859649123,-0.10471491228070176],[0.041666666666666664,-0.09594298245614036],[0.048793859649122806,-0.07730263157894737],[0.05482456140350877,-0.05975877192982456],[0.06578947368421052,-0.024671052631578948],[0.07675438596491228,0.0005482456140350877],[0.08442982456140351,0.013157894736842105],[0.08881578947368421,0.020833333333333332],[0.09100877192982457,0.02905701754385965],[0.09320175438596491,0.03728070175438596],[0.09703947368421052,0.047697368421052634],[0.10032894736842106,0.0581140350877193],[0.10581140350877193,0.07346491228070176],[0.1118421052631579,0.08114035087719298],[0.1162280701754386,0.09155701754385964],[0.12171052631578948,0.10307017543859649],[0.12664473684210525,0.11348684210526316],[0.13048245614035087,0.1206140350877193],[0.13651315789473684,0.12828947368421054],[0.1474780701754386,0.14089912280701755],[0.15570175438596492,0.1524122807017544],[0.1611842105263158,0.15953947368421054],[0.16337719298245615,0.16392543859649122],[0.16447368421052633,0.16557017543859648],[0.1650219298245614,0.16666666666666666],[0.1650219298245614,0.16666666666666666]]]",2,"[31,37]",space,37.0899,space,2.7527,0,1,1,6,1,right_left_2.jpg,right_left_2_path.jpg,,,,,,,,,,,,,,,,
Image_List_2,,,,,,,,,,,,,,,,46612,2022-03-02_22h14.48.634,analogCatScenes,2020.1.3,Win32,60,"[1368,912]","[[[-0.001644736842105263,-0.20449561403508773],[-0.0043859649122807015,-0.19353070175438597],[-0.01425438596491228,-0.17269736842105263],[-0.03728070175438596,-0.14309210526315788],[-0.05756578947368421,-0.11293859649122807],[-0.07785087719298246,-0.07401315789473684],[-0.09923245614035088,-0.04057017543859649],[-0.11567982456140351,-0.015350877192982455],[-0.12938596491228072,0.0043859649122807015],[-0.14473684210526316,0.01864035087719298],[-0.15953947368421054,0.03234649122807018],[-0.17489035087719298,0.04550438596491228],[-0.18859649122807018,0.0581140350877193],[-0.20394736842105263,0.07456140350877193],[-0.23574561403508773,0.1025219298245614],[-0.25493421052631576,0.11567982456140351],[-0.2631578947368421,0.11951754385964912],[-0.2637061403508772,0.11951754385964912],[-0.2637061403508772,0.11951754385964912]]]",1,[19],space,19.6872,space,2.9099,0,2,2,4,1,left_2.jpg,left_2_path.jpg,,,,,,,,,,,,,,,,
Image_List_2,,,,,,,,,,,,,,,,46612,2022-03-02_22h14.48.634,analogCatScenes,2020.1.3,Win32,60,"[1368,912]","[[[-0.0043859649122807015,-0.19572368421052633],[-0.004934210526315789,-0.17708333333333334],[-0.0043859649122807015,-0.13432017543859648],[-0.004934210526315789,-0.07785087719298246],[-0.006030701754385965,-0.02138157894736842],[-0.008771929824561403,0.039473684210526314],[-0.008223684210526315,0.09100877192982457],[-0.00712719298245614,0.1299342105263158],[-0.006030701754385965,0.14857456140350878],[-0.006030701754385965,0.15405701754385964],[-0.006030701754385965,0.15515350877192982],[-0.006030701754385965,0.15515350877192982]]]",1,[12],space,5.7114,space,1.1955,0,3,3,0,1,ahead_2.jpg,ahead_2_path.jpg,,,,,,,,,,,,,,,,
Image_List_2,,,,,,,,,,,,,,,,46612,2022-03-02_22h14.48.634,analogCatScenes,2020.1.3,Win32,60,"[1368,912]","[[[0.003837719298245614,-0.20285087719298245],[0.020285087719298246,-0.19736842105263158],[0.06743421052631579,-0.18421052631578946],[0.11677631578947369,-0.16885964912280702],[0.15899122807017543,-0.15350877192982457],[0.19682017543859648,-0.13541666666666666],[0.22916666666666666,-0.11787280701754387],[0.25274122807017546,-0.10361842105263158],[0.27028508771929827,-0.08881578947368421],[0.28125,-0.07346491228070176],[0.28728070175438597,-0.06140350877192982],[0.2911184210526316,-0.046052631578947366],[0.2944078947368421,-0.03453947368421053],[0.2944078947368421,-0.029605263157894735],[0.2944078947368421,-0.02905701754385965]],[[-0.0021929824561403508,-0.20010964912280702],[-0.0027412280701754384,-0.17982456140350878],[-0.003837719298245614,-0.13815789473684212],[-0.00712719298245614,-0.08826754385964912],[-0.00932017543859649,-0.04111842105263158],[-0.01206140350877193,-0.00932017543859649],[-0.015350877192982455,0.01918859649122807],[-0.01864035087719298,0.044956140350877194],[-0.020285087719298246,0.06633771929824561],[-0.021929824561403508,0.07949561403508772],[-0.022478070175438597,0.08442982456140351],[-0.023026315789473683,0.08662280701754387],[-0.023026315789473683,0.08771929824561403],[-0.023026315789473683,0.08771929824561403],[-0.023026315789473683,0.08826754385964912]]]",2,"[15,15]",space,11.4536,space,2.2054,0,4,4,2,1,ahead_right_2.jpg,ahead_right_2_path.jpg,,,,,,,,,,,,,,,,
Image_List_2,,,,,,,,,,,,,,,,46612,2022-03-02_22h14.48.634,analogCatScenes,2020.1.3,Win32,60,"[1368,912]","[[[0.0021929824561403508,-0.19901315789473684],[0.003289473684210526,-0.19682017543859648],[0.015350877192982455,-0.18475877192982457],[0.03892543859649123,-0.16611842105263158],[0.06469298245614036,-0.14692982456140352],[0.09046052631578948,-0.12828947368421054],[0.1118421052631579,-0.1118421052631579],[0.13706140350877194,-0.09429824561403509],[0.1650219298245614,-0.0756578947368421],[0.1825657894736842,-0.06578947368421052],[0.18695175438596492,-0.06304824561403509],[0.19188596491228072,-0.06030701754385965],[0.19298245614035087,-0.05975877192982456]],[[-0.005482456140350877,-0.20175438596491227],[-0.0027412280701754384,-0.1836622807017544],[0.0027412280701754384,-0.1611842105263158],[0.008771929824561403,-0.13651315789473684],[0.01425438596491228,-0.1112938596491228],[0.01864035087719298,-0.08771929824561403],[0.022478070175438597,-0.06907894736842106],[0.025767543859649123,-0.05592105263157895],[0.02631578947368421,-0.046052631578947366],[0.027412280701754384,-0.041666666666666664],[0.027412280701754384,-0.0400219298245614],[0.027412280701754384,-0.0400219298245614]],[[-0.003837719298245614,-0.1962719298245614],[-0.009868421052631578,-0.1924342105263158],[-0.030153508771929825,-0.1825657894736842],[-0.05482456140350877,-0.16776315789473684],[-0.08223684210526316,-0.15679824561403508],[-0.11348684210526316,-0.14528508771929824],[-0.1425438596491228,-0.13486842105263158],[-0.17927631578947367,-0.12335526315789473],[-0.22149122807017543,-0.11293859649122807],[-0.25,-0.1025219298245614],[-0.2642543859649123,-0.0981359649122807]]]",3,"[13,12,11]",space,11.5545,space,1.6067,0,5,5,3,1,ahead_right_left_2.jpg,ahead_right_left_2_path.jpg,,,,,,,,,,,,,,,,
Image_List_2,,,,,,,,,,,,,,,,46612,2022-03-02_22h14.48.634,analogCatScenes,2020.1.3,Win32,60,"[1368,912]","[[[0.005482456140350877,-0.19188596491228072],[0.01206140350877193,-0.15679824561403508],[0.01918859649122807,-0.08388157894736842],[0.030153508771929825,-0.027960526315789474],[0.03837719298245614,0.013706140350877192],[0.043859649122807015,0.05921052631578947],[0.049342105263157895,0.09703947368421052],[0.048793859649122806,0.12225877192982457],[0.046600877192982455,0.1387061403508772],[0.044407894736842105,0.15405701754385964],[0.04276315789473684,0.16447368421052633],[0.041666666666666664,0.17160087719298245],[0.04057017543859649,0.17817982456140352],[0.0400219298245614,0.1836622807017544],[0.0400219298245614,0.18585526315789475],[0.0400219298245614,0.18585526315789475]]]",1,[16],space,5.2457,space,1.7269,0,6,6,1,1,ahead_left_2.jpg,ahead_left_2_path.jpg,,,,,,,,,,,,,,,,
Image_List_2,,,,,,,,,,,,,,,,46612,2022-03-02_22h14.48.634,analogCatScenes,2020.1.3,Win32,60,"[1368,912]","[[[-0.0010964912280701754,-0.20010964912280702],[0.001644736842105263,-0.17653508771929824],[0.008223684210526315,-0.1474780701754386],[0.012609649122807017,-0.10471491228070176],[0.007675438596491228,-0.048793859649122806],[-0.004934210526315789,0.0268640350877193],[-0.006578947368421052,0.09375],[-0.008771929824561403,0.1387061403508772],[-0.014802631578947368,0.16721491228070176],[-0.02138157894736842,0.19078947368421054],[-0.025767543859649123,0.20668859649122806],[-0.02850877192982456,0.21820175438596492],[-0.03125,0.23135964912280702],[-0.03125,0.23793859649122806]],[[-0.005482456140350877,-0.19572368421052633],[0.013157894736842105,-0.16173245614035087],[0.048793859649122806,-0.09265350877192982],[0.09923245614035088,-0.009868421052631578],[0.14144736842105263,0.049342105263157895],[0.18201754385964913,0.09594298245614036],[0.20942982456140352,0.12938596491228072],[0.22916666666666666,0.15570175438596492],[0.23300438596491227,0.16666666666666666]],[[-0.0005482456140350877,-0.19517543859649122],[-0.007675438596491228,-0.18146929824561403],[-0.023026315789473683,-0.14418859649122806],[-0.03673245614035088,-0.10581140350877193],[-0.05646929824561404,-0.06578947368421052],[-0.08278508771929824,-0.025219298245614034],[-0.12390350877192982,0.021929824561403508],[-0.1513157894736842,0.051535087719298246],[-0.17324561403508773,0.07401315789473684],[-0.18475877192982457,0.08881578947368421],[-0.19517543859649122,0.10142543859649122],[-0.20065789473684212,0.1112938596491228],[-0.20614035087719298,0.11896929824561403],[-0.21326754385964913,0.12664473684210525],[-0.21655701754385964,0.1337719298245614],[-0.21875,0.1387061403508772],[-0.21929824561403508,0.13980263157894737]]]",3,"[14,9,17]",,,,,,,,,,,,space,4.0682,parkinglot2.jpg,space,15.4953,0,0,0,69,1,liquorstore8.jpg,livingroom.jpg,metroInside1.jpg,icecream2.jpg,,
Image_List_2,,,,,,,,,,,,,,,,46612,2022-03-02_22h14.48.634,analogCatScenes,2020.1.3,Win32,60,"[1368,912]","[[[-0.003837719298245614,-0.20175438596491227],[-0.006030701754385965,-0.17927631578947367],[-0.006578947368421052,-0.13103070175438597],[-0.008771929824561403,-0.09210526315789473],[-0.011513157894736841,-0.049890350877192985],[-0.01425438596491228,-0.015899122807017545],[-0.013157894736842105,-0.005482456140350877],[-0.012609649122807017,-0.003289473684210526],[-0.012609649122807017,-0.003289473684210526],[-0.012609649122807017,-0.003289473684210526]],[[-0.0027412280701754384,-0.19956140350877194],[0.046052631578947366,-0.16063596491228072],[0.11513157894736842,-0.11732456140350878],[0.18311403508771928,-0.07949561403508772],[0.2149122807017544,-0.06469298245614036],[0.22423245614035087,-0.06140350877192982],[0.22423245614035087,-0.06140350877192982],[0.22423245614035087,-0.06140350877192982],[0.22423245614035087,-0.06140350877192982]],[[-0.00712719298245614,-0.19298245614035087],[-0.03837719298245614,-0.17434210526315788],[-0.1069078947368421,-0.13815789473684212],[-0.16557017543859648,-0.11074561403508772],[-0.22039473684210525,-0.08991228070175439],[-0.2598684210526316,-0.0762061403508772]]]",3,"[10,9,6]",,,,,,,,,,,,,,playground6.jpg,space,10.9889,0,1,1,75,1,pantry5.jpg,operatingroom4.jpg,park.jpg,lockerroom.jpg,,
Image_List_2,,,,,,,,,,,,,,,,46612,2022-03-02_22h14.48.634,analogCatScenes,2020.1.3,Win32,60,"[1368,912]","[[[-0.003837719298245614,-0.19901315789473684],[-0.005482456140350877,-0.18201754385964913],[-0.00712719298245614,-0.14144736842105263],[-0.00932017543859649,-0.10307017543859649],[-0.011513157894736841,-0.06962719298245613],[-0.010964912280701754,-0.0400219298245614],[-0.011513157894736841,-0.018092105263157895],[-0.011513157894736841,-0.003289473684210526],[-0.012609649122807017,0.007675438596491228],[-0.013157894736842105,0.010416666666666666]]]",1,[10],,,,,,,,,,,,,,sidewalk5.jpg,space,7.5718,0,2,2,85,1,recordingstudio4.jpg,ruralroad2.jpg,sandDunes_desert_outdoor3.jpg,rooftop3.jpg,,
Image_List_2,,,,,,,,,,,,,,,,46612,2022-03-02_22h14.48.634,analogCatScenes,2020.1.3,Win32,60,"[1368,912]","[[[-0.0027412280701754384,-0.19572368421052633],[-0.004934210526315789,-0.16392543859649122],[-0.009868421052631578,-0.10032894736842106],[-0.024671052631578948,-0.01644736842105263],[-0.03344298245614035,0.06743421052631579],[-0.03728070175438596,0.1299342105263158],[-0.039473684210526314,0.15350877192982457],[-0.039473684210526314,0.15460526315789475]],[[-0.0010964912280701754,-0.19901315789473684],[0.014802631578947368,-0.16721491228070176],[0.10635964912280702,-0.01918859649122807],[0.1913377192982456,0.08881578947368421],[0.19517543859649122,0.09265350877192982]],[[-0.006578947368421052,-0.20175438596491227],[-0.01918859649122807,-0.16557017543859648],[-0.0800438596491228,-0.06743421052631579],[-0.17543859649122806,0.03782894736842105],[-0.22094298245614036,0.07291666666666667]]]",3,"[8,5,5]",,,,,,,,,,,,,,desertvegetation6.jpg,space,13.2674,0,3,3,31,1,cubicle4.jpg,conference4.jpg,courtroom2.jpg,cabin3.jpg,,
Image_List_2,,,,,,,,,,,,,,,,46612,2022-03-02_22h14.48.634,analogCatScenes,2020.1.3,Win32,60,"[1368,912]","[[[-0.004934210526315789,-0.20285087719298245],[0.0021929824561403508,-0.14912280701754385],[0.01644736842105263,-0.03892543859649123],[0.023026315789473683,0.07730263157894737],[0.025219298245614034,0.11677631578947369],[0.025219298245614034,0.11677631578947369]]]",1,[6],,,,,,,,,,,,,,metroInside4.jpg,space,3.6111,0,4,4,61,1,HorseRaceTrack.jpg,homegarden6.jpg,kindergarten_classroom7.jpg,hayfield6.jpg,,
Image_List_2,,,,,,,,,,,,,,,,46612,2022-03-02_22h14.48.634,analogCatScenes,2020.1.3,Win32,60,"[1368,912]","[[[-0.007675438596491228,-0.20010964912280702],[-0.0010964912280701754,-0.18969298245614036],[0.041666666666666664,-0.1299342105263158],[0.10800438596491228,-0.047149122807017545],[0.15899122807017543,0.04550438596491228],[0.1787280701754386,0.12938596491228072],[0.1787280701754386,0.17817982456140352],[0.1699561403508772,0.20888157894736842],[0.1611842105263158,0.22587719298245615],[0.1524122807017544,0.2324561403508772],[0.14638157894736842,0.23519736842105263],[0.14035087719298245,0.23848684210526316],[0.13596491228070176,0.23958333333333334],[0.13103070175438597,0.24013157894736842],[0.12335526315789473,0.2412280701754386],[0.11842105263157894,0.24177631578947367],[0.11513157894736842,0.24177631578947367]]]",1,[17],,,,,,,,,,,,,,driveway4.jpg,space,5.9162,0,5,5,37,1,dining_car.jpg,dinosaur4.jpg,driveway7.jpg,citystreet9.jpg,,
Image_List_2,,,,,,,,,,,,,,,,46612,2022-03-02_22h14.48.634,analogCatScenes,2020.1.3,Win32,60,"[1368,912]","[[[-0.006578947368421052,-0.19956140350877194],[-0.01206140350877193,-0.20175438596491227],[-0.02631578947368421,-0.20285087719298245],[-0.03728070175438596,-0.20339912280701755],[-0.05263157894736842,-0.20065789473684212],[-0.06798245614035088,-0.20010964912280702],[-0.0849780701754386,-0.19956140350877194],[-0.10361842105263158,-0.19572368421052633],[-0.1288377192982456,-0.18859649122807018],[-0.15570175438596492,-0.17708333333333334],[-0.18475877192982457,-0.15953947368421054],[-0.2138157894736842,-0.13925438596491227],[-0.2275219298245614,-0.125],[-0.2412280701754386,-0.11074561403508772],[-0.24945175438596492,-0.10087719298245613],[-0.25219298245614036,-0.09868421052631579],[-0.2543859649122807,-0.09868421052631579]],[[-0.0021929824561403508,-0.20668859649122806],[0.00712719298245614,-0.2050438596491228],[0.06085526315789474,-0.1924342105263158],[0.10855263157894737,-0.18311403508771928],[0.15570175438596492,-0.17269736842105263],[0.20065789473684212,-0.16063596491228072],[0.22313596491228072,-0.15296052631578946],[0.24451754385964913,-0.14473684210526316],[0.26206140350877194,-0.13651315789473684],[0.26535087719298245,-0.13432017543859648],[0.26535087719298245,-0.13432017543859648]]]",2,"[17,11]",,,,,,,,,,,,,,casino3.jpg,space,12.0254,0,6,6,19,1,boardwalk2.jpg,cafeteria1.jpg,castle4.jpg,basketballcourt.jpg,,
Image_List_2,,,,,,,,,,,,,,,,46612,2022-03-02_22h14.48.634,analogCatScenes,2020.1.3,Win32,60,"[1368,912]","[[[-0.003289473684210526,-0.19736842105263158],[0,-0.16173245614035087],[-0.003837719298245614,-0.1069078947368421],[-0.003837719298245614,-0.043859649122807015],[0,0.0027412280701754384],[0.0005482456140350877,0.03344298245614035],[0.001644736842105263,0.0625],[0.0021929824561403508,0.07894736842105263],[0.003289473684210526,0.08991228070175439],[0.0027412280701754384,0.09484649122807018]]]",1,[10],,,,,,,,,,,,,,wineVineyard8.jpg,space,21.2375,0,7,7,98,1,weightroom5.jpg,warehouse3.jpg,winebarrel4.jpg,winebarrel2.jpg,,
Image_List_2,,,,,,,,,,,,,,,,46612,2022-03-02_22h14.48.634,analogCatScenes,2020.1.3,Win32,60,"[1368,912]","[[[-0.001644736842105263,-0.20449561403508773],[0.009868421052631578,-0.20065789473684212],[0.05921052631578947,-0.16557017543859648],[0.0893640350877193,-0.12116228070175439],[0.09594298245614036,-0.06962719298245613],[0.09155701754385964,-0.03892543859649123],[0.08881578947368421,-0.03289473684210526],[0.08881578947368421,-0.03234649122807018],[0.08881578947368421,-0.03234649122807018]]]",1,[9],,,,,,,,,,,,,,hut3.jpg,space,3.9622,0,8,8,56,1,grocerystore5.jpg,golfcourse10.jpg,hut1.jpg,gasstation2.jpg,,
Image_List_2,,,,,,,,,,,,,,,,46612,2022-03-02_22h14.48.634,analogCatScenes,2020.1.3,Win32,60,"[1368,912]","[[[-0.003289473684210526,-0.1962719298245614],[-0.003289473684210526,-0.19407894736842105],[-0.00712719298245614,-0.15734649122807018],[-0.025219298245614034,-0.1074561403508772],[-0.043859649122807015,-0.06304824561403509],[-0.05701754385964912,-0.02905701754385965],[-0.0625,-0.018092105263157895],[-0.06304824561403509,-0.017543859649122806]],[[0.0043859649122807015,-0.20230263157894737],[0.030153508771929825,-0.18037280701754385],[0.07510964912280702,-0.14309210526315788],[0.11677631578947369,-0.10142543859649122],[0.16776315789473684,-0.05482456140350877],[0.20449561403508773,-0.02412280701754386],[0.20723684210526316,-0.019736842105263157]],[[-0.0043859649122807015,-0.20394736842105263],[-0.023574561403508772,-0.19407894736842105],[-0.07510964912280702,-0.16282894736842105],[-0.1474780701754386,-0.12828947368421054],[-0.19572368421052633,-0.11019736842105263],[-0.21271929824561403,-0.1025219298245614]]]",3,"[8,7,6]",,,,,,,,,,,,,,bambooforest.jpg,space,10.1087,0,9,9,5,1,artStudio3.jpg,auto_showroom4.jpg,attic4.jpg,amusement3.jpg,,
Image_List_2,,,,,,,,,,,,,,,,46612,2022-03-02_22h14.48.634,analogCatScenes,2020.1.3,Win32,60,"[1368,912]","[[[-0.001644736842105263,-0.20285087719298245],[0.024671052631578948,-0.17653508771929824],[0.08333333333333333,-0.12390350877192982],[0.1513157894736842,-0.07182017543859649],[0.22423245614035087,-0.023574561403508772],[0.2598684210526316,-0.0010964912280701754],[0.2807017543859649,0.01206140350877193],[0.28289473684210525,0.013706140350877192],[0.28344298245614036,0.01425438596491228]]]",1,[9],,,,,,,,,,,,,,warehouseoutside1.jpg,space,4.8609,0,10,10,96,1,warehouse4.jpg,tenniscourt3.jpg,windmill1.jpg,warehouse1.jpg,,
Image_List_2,,,,,,,,,,,,,,,,46612,2022-03-02_22h14.48.634,analogCatScenes,2020.1.3,Win32,60,"[1368,912]","[[[-0.008223684210526315,-0.20339912280701755],[-0.010416666666666666,-0.18311403508771928],[-0.03179824561403509,-0.13596491228070176],[-0.06853070175438597,-0.0849780701754386],[-0.0893640350877193,-0.05756578947368421],[-0.09320175438596491,-0.05263157894736842],[-0.09320175438596491,-0.05263157894736842],[-0.09320175438596491,-0.05263157894736842]],[[-0.010964912280701754,-0.20285087719298245],[0.003837719298245614,-0.18037280701754385],[0.06414473684210527,-0.12445175438596491],[0.12938596491228072,-0.07456140350877193],[0.18859649122807018,-0.03673245614035088],[0.21710526315789475,-0.023026315789473683],[0.22423245614035087,-0.020285087719298246],[0.22532894736842105,-0.019736842105263157]]]",2,"[8,8]",,,,,,,,,,,,,,dormroom9.jpg,space,5.9593,0,11,11,36,1,diner14.jpg,dining_car3.jpg,doctor1.jpg,checkoutcounter9.jpg,,
Image_List_2,,,,,,,,,,,,,,,,46612,2022-03-02_22h14.48.634,analogCatScenes,2020.1.3,Win32,60,"[1368,912]","[[[-0.0043859649122807015,-0.19572368421052633],[0.011513157894736841,-0.19188596491228072],[0.07346491228070176,-0.15570175438596492],[0.09923245614035088,-0.11019736842105263],[0.09539473684210527,-0.05921052631578947],[0.08552631578947369,-0.024671052631578948],[0.08333333333333333,-0.018092105263157895],[0.08223684210526316,-0.015899122807017545],[0.08223684210526316,-0.015350877192982455]],[[0.004934210526315789,-0.19736842105263158],[0.02412280701754386,-0.19024122807017543],[0.13815789473684212,-0.14692982456140352],[0.24451754385964913,-0.12390350877192982],[0.28015350877192985,-0.12116228070175439],[0.28015350877192985,-0.12116228070175439],[0.2807017543859649,-0.12116228070175439]]]",2,"[9,7]",,,,,,,,,,,,,,cafeteria5.jpg,space,5.2425,0,12,12,15,1,bambooforest4.jpg,bleachers8.jpg,cabinIndoors.jpg,bar8.jpg,,
Image_List_2,,,,,,,,,,,,,,,,46612,2022-03-02_22h14.48.634,analogCatScenes,2020.1.3,Win32,60,"[1368,912]","[[[-0.001644736842105263,-0.1962719298245614],[0.0027412280701754384,-0.18914473684210525],[0.004934210526315789,-0.11951754385964912],[-0.006578947368421052,-0.011513157894736841],[-0.03125,0.1025219298245614],[-0.0537280701754386,0.14583333333333334],[-0.05701754385964912,0.15186403508771928],[-0.05756578947368421,0.1524122807017544],[-0.0581140350877193,0.15350877192982457],[-0.0581140350877193,0.15350877192982457]]]",1,[10],,,,,,,,,,,,,,frontLawn5.jpg,space,4.7417,0,13,13,46,1,flowershop.jpg,farmersmarket4.jpg,fountain4.jpg,dormroom6.jpg,,
Image_List_2,,,,,,,,,,,,,,,,46612,2022-03-02_22h14.48.634,analogCatScenes,2020.1.3,Win32,60,"[1368,912]","[[[0,-0.19407894736842105],[-0.013706140350877192,-0.18475877192982457],[-0.05482456140350877,-0.16776315789473684],[-0.1074561403508772,-0.15460526315789475],[-0.17324561403508773,-0.14035087719298245],[-0.21655701754385964,-0.13267543859649122]],[[-0.006030701754385965,-0.18804824561403508],[-0.009868421052631578,-0.12719298245614036],[-0.010416666666666666,-0.08662280701754387],[-0.00932017543859649,-0.07949561403508772],[-0.00932017543859649,-0.07785087719298246],[-0.00932017543859649,-0.07785087719298246]],[[0,-0.19298245614035087],[0.0021929824561403508,-0.1913377192982456],[0.08881578947368421,-0.14144736842105263],[0.17214912280701755,-0.1112938596491228],[0.22478070175438597,-0.10307017543859649],[0.22807017543859648,-0.10361842105263158]]]",3,"[6,6,6]",,,,,,,,,,,,,,pavilion.jpg,space,6.8076,0,14,14,70,1,lockerroom4.jpg,lockerroom3.jpg,minigolf8.jpg,igloo.jpg,,
Image_List_2,,,,,,,,,,,,,,,,46612,2022-03-02_22h14.48.634,analogCatScenes,2020.1.3,Win32,60,"[1368,912]","[[[-0.008223684210526315,-0.2012061403508772],[-0.007675438596491228,-0.19956140350877194],[0.00712719298245614,-0.1825657894736842],[0.047697368421052634,-0.16173245614035087],[0.08826754385964912,-0.15296052631578946],[0.12938596491228072,-0.15296052631578946],[0.1836622807017544,-0.15021929824561403],[0.2138157894736842,-0.15186403508771928],[0.21984649122807018,-0.15076754385964913]],[[-0.00712719298245614,-0.19791666666666666],[-0.014802631578947368,-0.19353070175438597],[-0.046600877192982455,-0.18421052631578946],[-0.08717105263157894,-0.17817982456140352],[-0.12225877192982457,-0.17324561403508773],[-0.15405701754385964,-0.16885964912280702],[-0.18092105263157895,-0.16337719298245615],[-0.20449561403508773,-0.16173245614035087]]]",2,"[9,8]",,,,,,,,,,,,,,theater2.jpg,space,8.465,0,15,15,87,1,restaurantkitchen2.jpg,savanna.jpg,sculpturegarden2.jpg,RVinside2.jpg,,
Image_List_2,,,,,,,,,,,,,,,,46612,2022-03-02_22h14.48.634,analogCatScenes,2020.1.3,Win32,60,"[1368,912]","[[[0.0010964912280701754,-0.19956140350877194],[-0.003289473684210526,-0.17653508771929824],[-0.00712719298245614,-0.09703947368421052],[-0.01699561403508772,-0.003837719298245614],[-0.02905701754385965,0.0668859649122807],[-0.03179824561403509,0.09046052631578948],[-0.03179824561403509,0.09100877192982457]]]",1,[7],,,,,,,,,,,,,,cornfield4.jpg,space,2.9791,0,16,16,26,1,campusquad2.jpg,church4.jpg,churchInside3.jpg,botanicalGarden7.jpg,,
Image_List_2,,,,,,,,,,,,,,,,46612,2022-03-02_22h14.48.634,analogCatScenes,2020.1.3,Win32,60,"[1368,912]","[[[-0.0043859649122807015,-0.19462719298245615],[-0.0043859649122807015,-0.19462719298245615],[0.01918859649122807,-0.17598684210526316],[0.0805921052631579,-0.13925438596491227],[0.1737938596491228,-0.10032894736842106],[0.25603070175438597,-0.07456140350877193],[0.2637061403508772,-0.07346491228070176]],[[-0.0027412280701754384,-0.20175438596491227],[-0.005482456140350877,-0.17653508771929824],[-0.01206140350877193,-0.10581140350877193],[-0.02631578947368421,-0.030153508771929825],[-0.03508771929824561,-0.001644736842105263]],[[-0.0027412280701754384,-0.20394736842105263],[-0.0043859649122807015,-0.2012061403508772],[-0.020833333333333332,-0.18695175438596492],[-0.07346491228070176,-0.15899122807017543],[-0.14857456140350878,-0.13596491228070176],[-0.21217105263157895,-0.11567982456140351],[-0.26480263157894735,-0.09429824561403509],[-0.2845394736842105,-0.08717105263157894],[-0.28728070175438597,-0.08607456140350878],[-0.2894736842105263,-0.08552631578947369],[-0.2894736842105263,-0.08552631578947369]]]",3,"[7,5,11]",,,,,,,,,,,,,,farm1.jpg,space,12.3356,0,17,17,40,1,drycleaners4.jpg,drymountains.jpg,dugout1.jpg,clothingstore3.jpg,,
Image_List_2,,,,,,,,,,,,,,,,46612,2022-03-02_22h14.48.634,analogCatScenes,2020.1.3,Win32,60,"[1368,912]","[[[-0.003289473684210526,-0.20230263157894737],[0.009868421052631578,-0.19846491228070176],[0.05263157894736842,-0.17434210526315788],[0.10471491228070176,-0.11896929824561403],[0.12390350877192982,-0.06304824561403509],[0.13103070175438597,-0.02412280701754386],[0.13157894736842105,-0.0021929824561403508],[0.1288377192982456,0.011513157894736841],[0.12554824561403508,0.021929824561403508],[0.125,0.02412280701754386],[0.125,0.02412280701754386]],[[-0.00712719298245614,-0.19901315789473684],[-0.03070175438596491,-0.16228070175438597],[-0.0625,-0.1074561403508772],[-0.09375,-0.05317982456140351],[-0.10855263157894737,-0.010964912280701754],[-0.1118421052631579,0.01206140350877193],[-0.1118421052631579,0.018092105263157895],[-0.1118421052631579,0.019736842105263157],[-0.1118421052631579,0.020285087719298246]]]",2,"[11,9]",,,,,,,,,,,,,,banquetHall6.jpg,space,6.209,0,18,18,8,1,attic3.jpg,balconyIN.jpg,bar.jpg,applestore4.jpg,,
Image_List_2,,,,,,,,,,,,,,,,46612,2022-03-02_22h14.48.634,analogCatScenes,2020.1.3,Win32,60,"[1368,912]","[[[-0.003289473684210526,-0.19791666666666666],[-0.027412280701754384,-0.2012061403508772],[-0.07839912280701754,-0.18804824561403508],[-0.13267543859649122,-0.1611842105263158],[-0.17160087719298245,-0.13212719298245615],[-0.19078947368421054,-0.10964912280701754],[-0.19791666666666666,-0.09429824561403509],[-0.19736842105263158,-0.09046052631578948]],[[-0.006578947368421052,-0.20230263157894737],[0.020833333333333332,-0.20559210526315788],[0.08607456140350878,-0.18914473684210525],[0.13048245614035087,-0.16447368421052633],[0.16557017543859648,-0.14089912280701755],[0.19407894736842105,-0.11951754385964912],[0.20394736842105263,-0.10855263157894737],[0.20449561403508773,-0.1025219298245614],[0.20449561403508773,-0.10142543859649122]]]",2,"[8,9]",,,,,,,,,,,,,,deck2.jpg,space,7.8327,0,19,19,29,1,cornfield2.jpg,cliff2.jpg,constructionSite4.jpg,bridalboutique3.jpg,,
Image_List_2,,,,,,,,,,,,,,,,46612,2022-03-02_22h14.48.634,analogCatScenes,2020.1.3,Win32,60,"[1368,912]","[[[-0.0010964912280701754,-0.1962719298245614],[-0.015350877192982455,-0.16776315789473684],[-0.010964912280701754,-0.10910087719298246],[0.00932017543859649,-0.06195175438596491],[0.03837719298245614,-0.03673245614035088],[0.06195175438596491,-0.01425438596491228],[0.06578947368421052,-0.0043859649122807015],[0.06633771929824561,-0.003289473684210526],[0.0668859649122807,-0.0027412280701754384]]]",1,[9],,,,,,,,,,,,,,pavilion5.jpg,space,16.9334,0,20,20,71,1,metroInside2.jpg,metroInside3.jpg,museum3.jpg,jewelrystore.jpg,,
Image_List_2,,,,,,,,,,,,,,,,46612,2022-03-02_22h14.48.634,analogCatScenes,2020.1.3,Win32,60,"[1368,912]","[[[-0.008223684210526315,-0.20175438596491227],[-0.006030701754385965,-0.18640350877192982],[0.00712719298245614,-0.14802631578947367],[0.0400219298245614,-0.09484649122807018],[0.06304824561403509,-0.052083333333333336],[0.0712719298245614,-0.03673245614035088],[0.0712719298245614,-0.03618421052631579]]]",1,[7],,,,,,,,,,,,,,hallway5.jpg,space,3.6648,0,21,21,51,1,gasstation6.jpg,frontDoor5.jpg,hayfield4.jpg,firestation5.jpg,,
Image_List_2,,,,,,,,,,,,,,,,46612,2022-03-02_22h14.48.634,analogCatScenes,2020.1.3,Win32,60,"[1368,912]","[[[0.003289473684210526,-0.19846491228070176],[0.039473684210526314,-0.18311403508771928],[0.08278508771929824,-0.14692982456140352],[0.11567982456140351,-0.11348684210526316],[0.14089912280701755,-0.07894736842105263],[0.15844298245614036,-0.0537280701754386],[0.1611842105263158,-0.04331140350877193],[0.16173245614035087,-0.0400219298245614],[0.16173245614035087,-0.0400219298245614],[0.16173245614035087,-0.0400219298245614]],[[-0.005482456140350877,-0.20175438596491227],[-0.01425438596491228,-0.18969298245614036],[-0.03344298245614035,-0.16940789473684212],[-0.0537280701754386,-0.14912280701754385],[-0.07949561403508772,-0.12116228070175439],[-0.10855263157894737,-0.09649122807017543],[-0.12938596491228072,-0.08168859649122807],[-0.14418859649122806,-0.06962719298245613],[-0.15460526315789475,-0.06085526315789474],[-0.16831140350877194,-0.047697368421052634],[-0.17653508771929824,-0.025767543859649123],[-0.1699561403508772,-0.004934210526315789],[-0.15899122807017543,0.00932017543859649],[-0.15515350877192982,0.01918859649122807],[-0.15679824561403508,0.0268640350877193],[-0.15953947368421054,0.030153508771929825],[-0.16392543859649122,0.03234649122807018],[-0.16721491228070176,0.03289473684210526],[-0.17214912280701755,0.03289473684210526],[-0.17708333333333334,0.03179824561403509]]]",2,"[10,20]",,,,,,,,,,,,,,playroom4.jpg,space,9.8903,0,22,22,76,1,parkinggarage.jpg,parkinggarage3.jpg,park2.jpg,lookout4.jpg,,
Image_List_2,,,,,,,,,,,,,,,,46612,2022-03-02_22h14.48.634,analogCatScenes,2020.1.3,Win32,60,"[1368,912]","[[[-0.005482456140350877,-0.20285087719298245],[0.015350877192982455,-0.20339912280701755],[0.054276315789473686,-0.20065789473684212],[0.10910087719298246,-0.20285087719298245],[0.15186403508771928,-0.20559210526315788],[0.17982456140350878,-0.20668859649122806],[0.2012061403508772,-0.20778508771929824],[0.21765350877192982,-0.20668859649122806],[0.22587719298245615,-0.20668859649122806],[0.22587719298245615,-0.20668859649122806],[0.22642543859649122,-0.20668859649122806]],[[-0.00932017543859649,-0.19791666666666666],[-0.039473684210526314,-0.20065789473684212],[-0.08771929824561403,-0.20942982456140352],[-0.14583333333333334,-0.2099780701754386],[-0.2012061403508772,-0.20614035087719298],[-0.24396929824561403,-0.20449561403508773],[-0.2532894736842105,-0.20339912280701755],[-0.2593201754385965,-0.20285087719298245]]]",2,"[11,8]",,,,,,,,,,,,,,greenhouse5.jpg,space,8.0773,0,23,23,49,1,frontDoor3.jpg,flowershop3.jpg,greenhouse.jpg,farm2.jpg,,
Image_List_2,,,,,,,,,,,,,,,,46612,2022-03-02_22h14.48.634,analogCatScenes,2020.1.3,Win32,60,"[1368,912]","[[[-0.00712719298245614,-0.1913377192982456],[-0.01864035087719298,-0.17324561403508773],[-0.048793859649122806,-0.14418859649122806],[-0.0756578947368421,-0.11677631578947369],[-0.09868421052631579,-0.09265350877192982],[-0.11842105263157894,-0.07182017543859649],[-0.14035087719298245,-0.05098684210526316],[-0.16063596491228072,-0.03344298245614035],[-0.17653508771929824,-0.01918859649122807],[-0.1875,-0.008223684210526315],[-0.19353070175438597,-0.001644736842105263],[-0.19736842105263158,0.0010964912280701754],[-0.19956140350877194,0.003837719298245614]],[[-0.003289473684210526,-0.20559210526315788],[-0.003837719298245614,-0.17160087719298245],[0,-0.11951754385964912],[0.0010964912280701754,-0.06798245614035088],[0,-0.021929824561403508],[0.0010964912280701754,0.014802631578947368],[0.001644736842105263,0.0356359649122807]],[[-0.001644736842105263,-0.19682017543859648],[0.03125,-0.16885964912280702],[0.10635964912280702,-0.10361842105263158],[0.17653508771929824,-0.05646929824561404],[0.21655701754385964,-0.03234649122807018],[0.21765350877192982,-0.03179824561403509],[0.21765350877192982,-0.03179824561403509]]]",3,"[13,7,7]",,,,,,,,,,,,,,parkinglot.jpg,space,8.8214,0,24,24,68,1,liquorstore7.jpg,lightingstore4.jpg,lockerroom2.jpg,hospitalroom3.jpg,,
Image_List_2,,,,,,,,,,,,,,,,46612,2022-03-02_22h14.48.634,analogCatScenes,2020.1.3,Win32,60,"[1368,912]","[[[0.0005482456140350877,-0.18969298245614036],[-0.006578947368421052,-0.16557017543859648],[-0.020285087719298246,-0.13157894736842105],[-0.03508771929824561,-0.10197368421052631],[-0.05317982456140351,-0.0762061403508772],[-0.06962719298245613,-0.044956140350877194],[-0.08168859649122807,-0.011513157894736841],[-0.09703947368421052,0.01644736842105263],[-0.11239035087719298,0.0400219298245614],[-0.1162280701754386,0.044956140350877194]],[[0.001644736842105263,-0.19353070175438597],[0.0043859649122807015,-0.18475877192982457],[0.02850877192982456,-0.13925438596491227],[0.06853070175438597,-0.08168859649122807],[0.10964912280701754,-0.03728070175438596],[0.15186403508771928,-0.001644736842105263],[0.1836622807017544,0.020285087719298246],[0.20339912280701755,0.03070175438596491],[0.20614035087719298,0.03234649122807018]]]",2,"[10,9]",,,,,,,,,,,,,,dancestudio5.jpg,space,6.2936,0,25,25,28,1,churchInside1.jpg,citystreet10.jpg,clothingstore5.jpg,bridalboutique2.jpg,,
Image_List_2,,,,,,,,,,,,,,,,46612,2022-03-02_22h14.48.634,analogCatScenes,2020.1.3,Win32,60,"[1368,912]","[[[-0.00932017543859649,-0.19791666666666666],[-0.029605263157894735,-0.19682017543859648],[-0.07839912280701754,-0.19188596491228072],[-0.12828947368421054,-0.16885964912280702],[-0.17214912280701755,-0.14089912280701755],[-0.20888157894736842,-0.09539473684210527],[-0.23355263157894737,-0.02905701754385965],[-0.21162280701754385,0.030153508771929825],[-0.19572368421052633,0.051535087719298246],[-0.19517543859649122,0.05646929824561404],[-0.19462719298245615,0.05866228070175439]],[[-0.007675438596491228,-0.19901315789473684],[-0.018092105263157895,-0.16228070175438597],[-0.021929824561403508,-0.1074561403508772],[-0.023574561403508772,-0.06853070175438597],[-0.027960526315789474,-0.044407894736842105],[-0.030153508771929825,-0.03289473684210526]]]",2,"[11,6]",,,,,,,,,,,,,,farm3.jpg,space,6.8403,0,26,26,41,1,dugout4.jpg,drymountains3.jpg,fabricstore1.jpg,dentist2.jpg,,
Image_List_2,,,,,,,,,,,,,,,,46612,2022-03-02_22h14.48.634,analogCatScenes,2020.1.3,Win32,60,"[1368,912]","[[[0.004934210526315789,-0.19353070175438597],[0.01644736842105263,-0.1875],[0.029605263157894735,-0.17927631578947367],[0.03728070175438596,-0.1737938596491228],[0.04331140350877193,-0.16885964912280702],[0.05317982456140351,-0.16392543859649122],[0.06633771929824561,-0.15734649122807018],[0.07949561403508772,-0.15186403508771928],[0.09046052631578948,-0.14692982456140352],[0.09594298245614036,-0.14418859649122806],[0.09868421052631579,-0.1425438596491228],[0.10032894736842106,-0.14199561403508773],[0.10087719298245613,-0.14199561403508773],[0.10087719298245613,-0.14199561403508773],[0.10087719298245613,-0.14199561403508773],[0.10087719298245613,-0.14199561403508773],[0.10307017543859649,-0.14089912280701755],[0.1074561403508772,-0.13815789473684212],[0.11074561403508772,-0.13541666666666666],[0.11403508771929824,-0.13322368421052633],[0.1206140350877193,-0.12938596491228072],[0.1299342105263158,-0.12609649122807018],[0.14089912280701755,-0.12006578947368421],[0.15679824561403508,-0.11293859649122807],[0.17927631578947367,-0.10032894736842106],[0.18530701754385964,-0.09594298245614036],[0.18530701754385964,-0.09594298245614036]]]",1,[27],,,,,,,,,,,,,,conference3.jpg,space,15.6763,0,27,27,25,1,campsite7.jpg,church3.jpg,checkoutcounter2.jpg,botanicalGarden4.jpg,,
Image_List_2,,,,,,,,,,,,,,,,46612,2022-03-02_22h14.48.634,analogCatScenes,2020.1.3,Win32,60,"[1368,912]","[[[-0.0027412280701754384,-0.19517543859649122],[-0.004934210526315789,-0.18804824561403508],[-0.020285087719298246,-0.14912280701754385],[-0.03289473684210526,-0.10581140350877193],[-0.03892543859649123,-0.06743421052631579],[-0.046600877192982455,-0.0400219298245614],[-0.051535087719298246,-0.025767543859649123],[-0.054276315789473686,-0.01918859649122807]],[[-0.0021929824561403508,-0.19901315789473684],[0.015899122807017545,-0.19736842105263158],[0.08881578947368421,-0.16885964912280702],[0.16666666666666666,-0.12828947368421054],[0.24232456140350878,-0.08223684210526316],[0.2779605263157895,-0.05098684210526316],[0.30153508771929827,-0.02631578947368421],[0.30646929824561403,-0.015350877192982455],[0.30756578947368424,-0.013157894736842105]]]",2,"[8,9]",,,,,,,,,,,,,,playground10.jpg,space,8.6353,0,28,28,74,1,newsstand2.jpg,observatory4.jpeg,operatingroom1.jpg,lightingstore2.jpg,,
Image_List_2,,,,,,,,,,,,,,,,46612,2022-03-02_22h14.48.634,analogCatScenes,2020.1.3,Win32,60,"[1368,912]","[[[-0.001644736842105263,-0.19736842105263158],[-0.008771929824561403,-0.19736842105263158],[-0.01864035087719298,-0.19736842105263158],[-0.04550438596491228,-0.19517543859649122],[-0.08223684210526316,-0.18914473684210525],[-0.11348684210526316,-0.18311403508771928],[-0.13980263157894737,-0.17982456140350878],[-0.17489035087719298,-0.17324561403508773],[-0.22532894736842105,-0.16337719298245615],[-0.27247807017543857,-0.14857456140350878],[-0.3020833333333333,-0.13322368421052633],[-0.3223684210526316,-0.11293859649122807],[-0.33278508771929827,-0.08442982456140351],[-0.3333333333333333,-0.048793859649122806],[-0.32401315789473684,-0.012609649122807017],[-0.3168859649122807,0.020833333333333332],[-0.31469298245614036,0.03179824561403509]]]",1,[17],,,,,,,,,,,,,,courtroom3.jpg,space,11.1218,0,29,29,27,1,castle3.jpg,churchInside4.jpg,closet.jpg,brewery2.jpg,,
Image_List_2,,,,,,,,,,,,,,,,46612,2022-03-02_22h14.48.634,analogCatScenes,2020.1.3,Win32,60,"[1368,912]","[[[0,-0.1962719298245614],[0.01644736842105263,-0.19791666666666666],[0.07072368421052631,-0.18530701754385964],[0.13048245614035087,-0.1600877192982456],[0.18311403508771928,-0.13157894736842105],[0.2324561403508772,-0.09429824561403509],[0.2543859649122807,-0.0712719298245614],[0.2543859649122807,-0.04824561403508772],[0.24177631578947367,-0.03125],[0.21765350877192982,-0.017543859649122806],[0.19078947368421054,-0.005482456140350877],[0.16831140350877194,0.0043859649122807015]],[[0.0043859649122807015,-0.20285087719298245],[-0.001644736842105263,-0.17214912280701755],[-0.009868421052631578,-0.08991228070175439],[-0.01425438596491228,-0.05646929824561404]]]",2,"[12,4]",,,,,,,,,,,,,,bedroom6.jpg,space,6.3734,0,30,30,12,1,baggageClaim4.jpg,bambooforest5.jpg,bleachers7.jpg,backyard5.jpg,,
Image_List_2,,,,,,,,,,,,,,,,46612,2022-03-02_22h14.48.634,analogCatScenes,2020.1.3,Win32,60,"[1368,912]","[[[-0.003837719298245614,-0.20394736842105263],[-0.001644736842105263,-0.20339912280701755],[0.00712719298245614,-0.19736842105263158],[0.01918859649122807,-0.18695175438596492],[0.03837719298245614,-0.1737938596491228],[0.05592105263157895,-0.16063596491228072],[0.07182017543859649,-0.14912280701754385],[0.08826754385964912,-0.13651315789473684],[0.1069078947368421,-0.12335526315789473],[0.1206140350877193,-0.11239035087719298],[0.13980263157894737,-0.09649122807017543],[0.16611842105263158,-0.07456140350877193],[0.1825657894736842,-0.0625],[0.18969298245614036,-0.05482456140350877]]]",1,[14],,,,,,,,,,,,,,trainStation5.jpg,space,7.0008,0,31,31,91,1,shoestore2.jpg,skatepark5.jpg,ticket_counter6.jpg,sidewalk3.jpg,,
Image_List_2,,,,,,,,,,,,,,,,46612,2022-03-02_22h14.48.634,analogCatScenes,2020.1.3,Win32,60,"[1368,912]","[[[-0.004934210526315789,-0.19407894736842105],[-0.003837719298245614,-0.18804824561403508],[-0.003837719298245614,-0.1162280701754386],[0.0027412280701754384,-0.049342105263157895],[0.0043859649122807015,-0.03673245614035088],[0.0043859649122807015,-0.03673245614035088]],[[0,-0.20010964912280702],[-0.011513157894736841,-0.18914473684210525],[-0.051535087719298246,-0.17160087719298245],[-0.09429824561403509,-0.14912280701754385],[-0.13432017543859648,-0.13651315789473684]]]",2,"[6,5]",,,,,,,,,,,,,,frontFoyer7.jpg,space,4.8009,0,32,32,45,1,fittingroom2.jpg,factory1.jpg,forestpath4.jpg,dock4.jpg,,
Image_List_2,,,,,,,,,,,,,,,,46612,2022-03-02_22h14.48.634,analogCatScenes,2020.1.3,Win32,60,"[1368,912]","[[[0,-0.20285087719298245],[0.018092105263157895,-0.19901315789473684],[0.0805921052631579,-0.18804824561403508],[0.15570175438596492,-0.17598684210526316],[0.21217105263157895,-0.15515350877192982],[0.24780701754385964,-0.13760964912280702],[0.2807017543859649,-0.11513157894736842],[0.2949561403508772,-0.10526315789473684]],[[-0.006578947368421052,-0.20559210526315788],[-0.049890350877192985,-0.19901315789473684],[-0.15350877192982457,-0.17653508771929824],[-0.24177631578947367,-0.13651315789473684]]]",2,"[8,4]",,,,,,,,,,,,,,newsstand5.jpg,space,7.1073,0,33,33,64,1,igloo2.jpg,jewelrystore8.jpg,lab5.jpg,homegarage2.jpg,,
Image_List_2,,,,,,,,,,,,,,,,46612,2022-03-02_22h14.48.634,analogCatScenes,2020.1.3,Win32,60,"[1368,912]","[[[-0.0043859649122807015,-0.1913377192982456],[-0.011513157894736841,-0.18146929824561403],[-0.025767543859649123,-0.16940789473684212],[-0.044407894736842105,-0.15953947368421054],[-0.05866228070175439,-0.1474780701754386],[-0.0849780701754386,-0.13212719298245615],[-0.10910087719298246,-0.11513157894736842],[-0.13541666666666666,-0.09703947368421052],[-0.1524122807017544,-0.08168859649122807],[-0.1650219298245614,-0.05975877192982456],[-0.17214912280701755,-0.027960526315789474],[-0.17160087719298245,0.0005482456140350877],[-0.15296052631578946,0.025219298245614034],[-0.12774122807017543,0.05317982456140351],[-0.12390350877192982,0.05866228070175439],[-0.12280701754385964,0.06140350877192982]],[[-0.003289473684210526,-0.19682017543859648],[-0.00932017543859649,-0.1962719298245614],[-0.02905701754385965,-0.17927631578947367],[-0.054276315789473686,-0.15570175438596492],[-0.08223684210526316,-0.12828947368421054],[-0.10635964912280702,-0.10526315789473684],[-0.1288377192982456,-0.0849780701754386],[-0.15405701754385964,-0.06195175438596491],[-0.17598684210526316,-0.042214912280701754],[-0.20010964912280702,-0.022478070175438597],[-0.23574561403508773,-0.010964912280701754],[-0.26589912280701755,-0.013706140350877192],[-0.30098684210526316,-0.012609649122807017]]]",2,"[16,13]",,,,,,,,,,,,,,minigolf.jpg,space,9.6692,0,34,34,62,1,hotellobby2.jpg,horsebarn8.jpg,lab3.jpg,hayfield7.jpg,,
Image_List_2,,,,,,,,,,,,,,,,46612,2022-03-02_22h14.48.634,analogCatScenes,2020.1.3,Win32,60,"[1368,912]","[[[0.001644736842105263,-0.19572368421052633],[-0.004934210526315789,-0.19682017543859648],[-0.051535087719298246,-0.17653508771929824],[-0.1611842105263158,-0.14692982456140352],[-0.26096491228070173,-0.09320175438596491]]]",1,[5],,,,,,,,,,,,,,horsebarn11.jpg,space,3.4995,0,35,35,54,1,greenhouse2.jpg,gazebo2.jpg,homegarage4.jpg,frontFoyer.jpg,,
Image_List_2,,,,,,,,,,,,,,,,46612,2022-03-02_22h14.48.634,analogCatScenes,2020.1.3,Win32,60,"[1368,912]","[[[0.001644736842105263,-0.1913377192982456],[-0.01425438596491228,-0.17708333333333334],[-0.05482456140350877,-0.14638157894736842],[-0.10910087719298246,-0.10416666666666667],[-0.17324561403508773,-0.0537280701754386],[-0.21984649122807018,-0.011513157894736841],[-0.24561403508771928,0.004934210526315789]],[[0.001644736842105263,-0.20230263157894737],[0.02631578947368421,-0.16666666666666666],[0.13103070175438597,-0.08552631578947369],[0.24287280701754385,-0.02850877192982456],[0.2987938596491228,-0.00712719298245614]],[[0.001644736842105263,-0.20010964912280702],[0.0010964912280701754,-0.16885964912280702],[-0.0043859649122807015,-0.08333333333333333],[-0.008771929824561403,-0.012609649122807017],[-0.01699561403508772,0.027960526315789474],[-0.01644736842105263,0.039473684210526314]]]",3,"[7,5,6]",,,,,,,,,,,,,,volleyballcourt4.jpg,space,6.6941,0,36,36,93,1,tollbooth8.jpg,staircase4.jpg,warehouseoutside2.jpg,tenniscourt.jpg,,
Image_List_2,,,,,,,,,,,,,,,,46612,2022-03-02_22h14.48.634,analogCatScenes,2020.1.3,Win32,60,"[1368,912]","[[[-0.004934210526315789,-0.19298245614035087],[-0.0027412280701754384,-0.1924342105263158],[0.013706140350877192,-0.18475877192982457],[0.03399122807017544,-0.17324561403508773],[0.06304824561403509,-0.15405701754385964],[0.08662280701754387,-0.13651315789473684],[0.11239035087719298,-0.1162280701754386],[0.15076754385964913,-0.08223684210526316],[0.1962719298245614,-0.03125],[0.21217105263157895,0.0021929824561403508],[0.21875,0.023026315789473683],[0.21984649122807018,0.02631578947368421]],[[-0.008223684210526315,-0.19517543859649122],[-0.039473684210526314,-0.18585526315789475],[-0.08168859649122807,-0.16666666666666666],[-0.1288377192982456,-0.14364035087719298],[-0.1650219298245614,-0.12609649122807018],[-0.19736842105263158,-0.11239035087719298],[-0.22532894736842105,-0.10142543859649122],[-0.24835526315789475,-0.08771929824561403]]]",2,"[12,8]",,,,,,,,,,,,,,gasstation8.jpg,space,6.185,0,37,37,47,1,frontDoor.jpg,firestation4.jpg,fountain7.jpg,elevatorOutside2.jpg,,
Image_List_2,,,,,,,,,,,,,,,,46612,2022-03-02_22h14.48.634,analogCatScenes,2020.1.3,Win32,60,"[1368,912]","[[[0,-0.19956140350877194],[-0.023574561403508772,-0.18037280701754385],[-0.06140350877192982,-0.1162280701754386],[-0.0893640350877193,-0.03728070175438596],[-0.11403508771929824,0.0400219298245614],[-0.12280701754385964,0.09100877192982457],[-0.11677631578947369,0.13815789473684212],[-0.11458333333333333,0.16557017543859648],[-0.11677631578947369,0.18530701754385964],[-0.11787280701754387,0.1924342105263158]]]",1,[10],,,,,,,,,,,,,,sidewalk2.jpg,space,3.9318,0,38,38,84,1,readingroom5.jpg,restaurant13.jpg,sandDunes_desert_outdoor.jpg,rooftop2.jpg,,
Image_List_2,,,,,,,,,,,,,,,,46612,2022-03-02_22h14.48.634,analogCatScenes,2020.1.3,Win32,60,"[1368,912]","[[[-0.00932017543859649,-0.19956140350877194],[0.0010964912280701754,-0.1650219298245614],[0.03234649122807018,-0.06304824561403509],[0.0537280701754386,0.006030701754385965],[0.05866228070175439,0.023574561403508772],[0.05866228070175439,0.023574561403508772]],[[-0.0010964912280701754,-0.20065789473684212],[-0.0027412280701754384,-0.19956140350877194],[-0.01425438596491228,-0.19517543859649122],[-0.047149122807017545,-0.18969298245614036],[-0.08717105263157894,-0.18585526315789475],[-0.12938596491228072,-0.18146929824561403],[-0.17214912280701755,-0.17763157894736842],[-0.21984649122807018,-0.17708333333333334],[-0.24780701754385964,-0.17543859649122806]]]",2,"[6,9]",,,,,,,,,,,,,,elevatorOutside4.jpg,space,6.2613,0,39,39,38,1,dining_car2.jpg,dock1.jpg,driveway8.jpg,classroom1.jpg,,
Image_List_2,,,,,,,,,,,,,,,,46612,2022-03-02_22h14.48.634,analogCatScenes,2020.1.3,Win32,60,"[1368,912]","[[[-0.004934210526315789,-0.19188596491228072],[-0.007675438596491228,-0.19024122807017543],[-0.06907894736842106,-0.15679824561403508],[-0.14364035087719298,-0.10307017543859649],[-0.20942982456140352,-0.03289473684210526],[-0.25274122807017546,0.027412280701754384]]]",1,[6],,,,,,,,,,,,,,wineVineyard2.jpg,space,3.3973,0,40,40,97,1,warehouseoutside4.jpg,waitingroom4.jpg,winebarrel3.jpg,warehouseoutside3.jpg,,
Image_List_2,,,,,,,,,,,,,,,,46612,2022-03-02_22h14.48.634,analogCatScenes,2020.1.3,Win32,60,"[1368,912]","[[[-0.005482456140350877,-0.20778508771929824],[-0.006030701754385965,-0.20778508771929824],[0.001644736842105263,-0.20833333333333334],[0.01699561403508772,-0.20668859649122806],[0.047149122807017545,-0.20065789473684212],[0.10197368421052631,-0.18037280701754385],[0.15350877192982457,-0.14967105263157895],[0.18859649122807018,-0.10910087719298246],[0.20888157894736842,-0.05756578947368421],[0.20010964912280702,-0.018092105263157895],[0.18695175438596492,0.017543859649122806],[0.17214912280701755,0.03837719298245614],[0.16392543859649122,0.047149122807017545],[0.15405701754385964,0.05098684210526316],[0.13815789473684212,0.05263157894736842],[0.12719298245614036,0.052083333333333336],[0.11677631578947369,0.051535087719298246]]]",1,[17],,,,,,,,,,,,,,waitingroom3.jpg,space,6.3358,0,41,41,94,1,treehouse.jpg,staircase6.jpg,weightroom.jpg,trainStation3.jpg,,
Image_List_2,,,,,,,,,,,,,,,,46612,2022-03-02_22h14.48.634,analogCatScenes,2020.1.3,Win32,60,"[1368,912]","[[[-0.010964912280701754,-0.2050438596491228],[-0.023574561403508772,-0.20285087719298245],[-0.0625,-0.20394736842105263],[-0.10964912280701754,-0.19462719298245615],[-0.15570175438596492,-0.17653508771929824],[-0.19791666666666666,-0.14857456140350878],[-0.22971491228070176,-0.1206140350877193],[-0.2538377192982456,-0.09046052631578948],[-0.27247807017543857,-0.06030701754385965],[-0.29385964912280704,-0.02850877192982456],[-0.3031798245614035,-0.01425438596491228]]]",1,[11],,,,,,,,,,,,,,banquetHall4.jpg,space,4.7935,0,42,42,7,1,attic2.jpg,backstage1.jpg,baggageClaim3.jpg,applestore2.jpg,,
Image_List_2,,,,,,,,,,,,,,,,46612,2022-03-02_22h14.48.634,analogCatScenes,2020.1.3,Win32,60,"[1368,912]","[[[-0.007675438596491228,-0.19572368421052633],[-0.01206140350877193,-0.19024122807017543],[-0.03234649122807018,-0.16721491228070176],[-0.05701754385964912,-0.13267543859649122],[-0.08662280701754387,-0.07785087719298246],[-0.11458333333333333,-0.03070175438596491],[-0.13212719298245615,-0.0021929824561403508],[-0.14967105263157895,0.018092105263157895],[-0.16885964912280702,0.03179824561403509],[-0.17763157894736842,0.0400219298245614]]]",1,[10],,,,,,,,,,,,,,ruralroad5.jpg,space,4.5954,0,43,43,81,1,promenadeDeck.jpg,promenadeDeck2.jpg,rainforest5.jpg,pasture8.jpg,,
Image_List_2,,,,,,,,,,,,,,,,46612,2022-03-02_22h14.48.634,analogCatScenes,2020.1.3,Win32,60,"[1368,912]","[[[-0.003837719298245614,-0.19188596491228072],[-0.027960526315789474,-0.2012061403508772],[-0.08991228070175439,-0.21655701754385964],[-0.16611842105263158,-0.21546052631578946],[-0.22094298245614036,-0.20175438596491227],[-0.26206140350877194,-0.16885964912280702],[-0.29660087719298245,-0.1118421052631579],[-0.31743421052631576,-0.049342105263157895]]]",1,[8],,,,,,,,,,,,,,diner12.jpg,space,5.9153,0,44,44,32,1,dancestudio6.jpg,constructionSite2.jpg,dentist4.jpg,cabin4.jpg,,
Image_List_2,,,,,,,,,,,,,,,,46612,2022-03-02_22h14.48.634,analogCatScenes,2020.1.3,Win32,60,"[1368,912]","[[[0.006578947368421052,-0.20942982456140352],[0.03892543859649123,-0.21052631578947367],[0.09210526315789473,-0.21875],[0.14912280701754385,-0.22532894736842105],[0.19188596491228072,-0.2225877192982456],[0.2225877192982456,-0.2149122807017544],[0.2505482456140351,-0.20668859649122806],[0.27576754385964913,-0.19517543859649122],[0.30372807017543857,-0.17214912280701755],[0.3196271929824561,-0.15625]],[[-0.01206140350877193,-0.21052631578947367],[-0.043859649122807015,-0.21765350877192982],[-0.11677631578947369,-0.24287280701754385],[-0.17927631578947367,-0.24725877192982457],[-0.23574561403508773,-0.23026315789473684],[-0.28125,-0.20942982456140352],[-0.3125,-0.18146929824561403]]]",2,"[10,7]",,,,,,,,,,,,,,newsstand7.jpg,space,5.3128,0,45,45,65,1,igloo5.jpg,laundromat2.jpeg,labClass7.jpg,homeoffice8.jpg,,
Image_List_2,,,,,,,,,,,,,,,,46612,2022-03-02_22h14.48.634,analogCatScenes,2020.1.3,Win32,60,"[1368,912]","[[[0.003289473684210526,-0.1924342105263158],[-0.01918859649122807,-0.19791666666666666],[-0.05482456140350877,-0.20285087719298245],[-0.10307017543859649,-0.19956140350877194],[-0.1699561403508772,-0.19846491228070176],[-0.23574561403508773,-0.19462719298245615],[-0.28234649122807015,-0.18804824561403508],[-0.29714912280701755,-0.18146929824561403]],[[0.0043859649122807015,-0.1962719298245614],[0.03344298245614035,-0.21162280701754385],[0.10526315789473684,-0.22916666666666666],[0.15186403508771928,-0.23574561403508773],[0.17434210526315788,-0.23793859649122806],[0.19846491228070176,-0.23903508771929824]]]",2,"[8,6]",,,,,,,,,,,,,,stripmall.jpg,space,6.6815,0,46,46,86,1,restaurant14.jpg,ruralroad3.jpg,sandDunes_desert_outdoor8.jpg,rooftop4.jpg,,
Image_List_2,,,,,,,,,,,,,,,,46612,2022-03-02_22h14.48.634,analogCatScenes,2020.1.3,Win32,60,"[1368,912]","[[[-0.003837719298245614,-0.19517543859649122],[0.007675438596491228,-0.19791666666666666],[0.05921052631578947,-0.1924342105263158],[0.13157894736842105,-0.18530701754385964],[0.19682017543859648,-0.15899122807017543],[0.23410087719298245,-0.12390350877192982],[0.2412280701754386,-0.07675438596491228],[0.22478070175438597,-0.046052631578947366],[0.21929824561403508,-0.0400219298245614]],[[-0.00932017543859649,-0.19572368421052633],[-0.0268640350877193,-0.19956140350877194],[-0.10800438596491228,-0.21162280701754385],[-0.21710526315789475,-0.20394736842105263],[-0.2883771929824561,-0.18585526315789475],[-0.31524122807017546,-0.1699561403508772]]]",2,"[9,6]",,,,,,,,,,,,,,diningroom1.jpg,space,9.0444,0,47,47,33,1,deck1.jpg,courthouse2.jpg,diner10.jpg,cabinIndoors5.jpg,,
Image_List_2,,,,,,,,,,,,,,,,46612,2022-03-02_22h14.48.634,analogCatScenes,2020.1.3,Win32,60,"[1368,912]","[[[-0.0027412280701754384,-0.19901315789473684],[-0.022478070175438597,-0.19956140350877194],[-0.06414473684210527,-0.18421052631578946],[-0.1206140350877193,-0.15460526315789475],[-0.17269736842105263,-0.12609649122807018],[-0.22149122807017543,-0.09375],[-0.26535087719298245,-0.06853070175438597],[-0.29331140350877194,-0.04824561403508772],[-0.3168859649122807,-0.029605263157894735],[-0.3201754385964912,-0.02631578947368421]]]",1,[10],,,,,,,,,,,,,,cafeteria6.jpg,space,3.3194,0,48,48,16,1,basement.jpg,breakroom2.jpg,campusquad4.jpg,barbershop2.jpg,,
Image_List_2,,,,,,,,,,,,,,,,46612,2022-03-02_22h14.48.634,analogCatScenes,2020.1.3,Win32,60,"[1368,912]","[[[-0.00932017543859649,-0.20230263157894737],[-0.011513157894736841,-0.20230263157894737],[-0.00712719298245614,-0.19846491228070176],[0.03837719298245614,-0.15679824561403508],[0.09594298245614036,-0.07072368421052631],[0.11348684210526316,-0.010964912280701754],[0.12335526315789473,0.049342105263157895],[0.13322368421052633,0.07839912280701754]]]",1,[8],,,,,,,,,,,,,,basketballcourt4.jpg,space,3.5678,0,49,49,11,1,backyard2.jpg,bambooforest3.jpg,baywindow5.jpg,backyard1.jpg,,
Image_List_2,,,,,,,,,,,,,,,,46612,2022-03-02_22h14.48.634,analogCatScenes,2020.1.3,Win32,60,"[1368,912]","[[[-0.00712719298245614,-0.19901315789473684],[-0.02412280701754386,-0.2012061403508772],[-0.044407894736842105,-0.20065789473684212],[-0.05756578947368421,-0.19846491228070176],[-0.06962719298245613,-0.19682017543859648],[-0.07894736842105263,-0.19572368421052633],[-0.09100877192982457,-0.19353070175438597],[-0.10307017543859649,-0.19024122807017543],[-0.12335526315789473,-0.18146929824561403],[-0.15186403508771928,-0.1600877192982456],[-0.16776315789473684,-0.14418859649122806],[-0.19078947368421054,-0.12445175438596491],[-0.21710526315789475,-0.10032894736842106],[-0.24561403508771928,-0.0756578947368421]],[[0.003289473684210526,-0.19353070175438597],[0.003289473684210526,-0.19353070175438597],[0.01699561403508772,-0.1962719298245614],[0.06469298245614036,-0.19298245614035087],[0.1206140350877193,-0.17269736842105263],[0.18475877192982457,-0.13596491228070176],[0.24780701754385964,-0.09978070175438597],[0.27247807017543857,-0.09429824561403509]]]",2,"[14,8]",,,,,,,,,,,,,,sculpturegarden1.jpg,space,6.55,0,50,50,83,1,readingroom1.jpg,promenadeDeck6.jpg,restaurant8.jpg,readingroom2.jpg,,
Image_List_2,,,,,,,,,,,,,,,,46612,2022-03-02_22h14.48.634,analogCatScenes,2020.1.3,Win32,60,"[1368,912]","[[[-0.001644736842105263,-0.20065789473684212],[-0.01206140350877193,-0.18530701754385964],[-0.04111842105263158,-0.13980263157894737],[-0.08278508771929824,-0.08442982456140351],[-0.10197368421052631,-0.06085526315789474]]]",1,[5],,,,,,,,,,,,,,photographer_studio2.jpg,space,5.5121,0,51,51,73,1,musicStore3.jpg,nursery.jpg,nursery4.jpg,library_aisle9.jpg,,
Image_List_2,,,,,,,,,,,,,,,,46612,2022-03-02_22h14.48.634,analogCatScenes,2020.1.3,Win32,60,"[1368,912]","[[[-0.007675438596491228,-0.20339912280701755],[-0.007675438596491228,-0.20175438596491227],[-0.012609649122807017,-0.17160087719298245],[-0.03125,-0.13486842105263158],[-0.05098684210526316,-0.09649122807017543],[-0.05756578947368421,-0.07291666666666667],[-0.05646929824561404,-0.0668859649122807],[-0.05537280701754386,-0.06578947368421052]],[[-0.003837719298245614,-0.19572368421052633],[0.03070175438596491,-0.17598684210526316],[0.05701754385964912,-0.11403508771929824],[0.05317982456140351,-0.08552631578947369],[0.051535087719298246,-0.07510964912280702],[0.05098684210526316,-0.07401315789473684]]]",2,"[8,6]",,,,,,,,,,,,,,trainStation1.jpg,space,6.1831,0,52,52,90,1,savanna5.jpg,sidewalk1.jpg,stripmall3.jpg,shoestore4.jpg,,
Image_List_2,,,,,,,,,,,,,,,,46612,2022-03-02_22h14.48.634,analogCatScenes,2020.1.3,Win32,60,"[1368,912]","[[[-0.003837719298245614,-0.19517543859649122],[-0.03125,-0.17050438596491227],[-0.08607456140350878,-0.1299342105263158],[-0.14638157894736842,-0.09155701754385964],[-0.19682017543859648,-0.05537280701754386]],[[-0.0010964912280701754,-0.19791666666666666],[-0.00932017543859649,-0.14802631578947367],[-0.00712719298245614,-0.03508771929824561],[-0.00712719298245614,-0.001644736842105263]],[[-0.0010964912280701754,-0.19407894736842105],[0.05921052631578947,-0.14473684210526316],[0.1524122807017544,-0.0805921052631579],[0.18421052631578946,-0.06140350877192982]]]",3,"[5,4,4]",,,,,,,,,,,,,,sandDunes_desert_outdoor9.jpg,space,5.3155,0,53,53,82,1,publicrestroom2.jpg,promenadeDeck3.jpg,readingroom4.jpg,postoffice4.jpg,,
Image_List_2,,,,,,,,,,,,,,,,46612,2022-03-02_22h14.48.634,analogCatScenes,2020.1.3,Win32,60,"[1368,912]","[[[-0.006030701754385965,-0.19901315789473684],[0.0268640350877193,-0.19956140350877194],[0.09539473684210527,-0.1787280701754386],[0.15515350877192982,-0.15186403508771928],[0.20010964912280702,-0.12554824561403508],[0.2412280701754386,-0.09649122807017543],[0.2571271929824561,-0.07510964912280702],[0.2631578947368421,-0.05921052631578947],[0.2642543859649123,-0.052083333333333336],[0.2631578947368421,-0.049342105263157895],[0.2631578947368421,-0.049342105263157895]],[[-0.001644736842105263,-0.2012061403508772],[-0.019736842105263157,-0.20559210526315788],[-0.06359649122807018,-0.20668859649122806],[-0.12774122807017543,-0.18859649122807018],[-0.17927631578947367,-0.16666666666666666],[-0.22642543859649122,-0.13212719298245615],[-0.27850877192982454,-0.08607456140350878],[-0.30043859649122806,-0.05646929824561404]]]",2,"[11,8]",,,,,,,,,,,,,,diningroom5.jpg,space,6.2245,0,54,54,34,1,deck4.jpg,courthouse4.jpg,diner11.jpg,campusquad1.jpg,,
Image_List_2,,,,,,,,,,,,,,,,46612,2022-03-02_22h14.48.634,analogCatScenes,2020.1.3,Win32,60,"[1368,912]","[[[-0.0010964912280701754,-0.19736842105263158],[-0.0021929824561403508,-0.17324561403508773],[0.03618421052631579,-0.09100877192982457],[0.10800438596491228,-0.015899122807017545],[0.1787280701754386,0.01425438596491228],[0.23519736842105263,0.023574561403508772],[0.2779605263157895,0.02412280701754386],[0.2911184210526316,0.023574561403508772],[0.2916666666666667,0.023574561403508772]]]",1,[9],,,,,,,,,,,,,,cave.jpg,space,6.6966,0,55,55,20,1,boardwalk6.jpg,campsite3.jpg,cave4.jpg,basketballcourt7.jpg,,
Image_List_2,,,,,,,,,,,,,,,,46612,2022-03-02_22h14.48.634,analogCatScenes,2020.1.3,Win32,60,"[1368,912]","[[[-0.0027412280701754384,-0.19846491228070176],[0.003837719298245614,-0.2012061403508772],[0.051535087719298246,-0.20723684210526316],[0.11239035087719298,-0.20394736842105263],[0.17708333333333334,-0.19298245614035087],[0.23519736842105263,-0.17817982456140352],[0.27850877192982454,-0.15076754385964913],[0.3020833333333333,-0.11348684210526316],[0.3125,-0.0625],[0.2993421052631579,-0.02905701754385965],[0.27521929824561403,-0.014802631578947368],[0.2450657894736842,-0.003289473684210526],[0.22149122807017543,0.004934210526315789],[0.20010964912280702,0.013157894736842105],[0.18201754385964913,0.02412280701754386],[0.16447368421052633,0.04111842105263158]],[[-0.010964912280701754,-0.19956140350877194],[-0.0356359649122807,-0.20559210526315788],[-0.0849780701754386,-0.20394736842105263],[-0.14364035087719298,-0.20285087719298245],[-0.22149122807017543,-0.18585526315789475],[-0.2746710526315789,-0.15350877192982457],[-0.2944078947368421,-0.11842105263157894],[-0.2955043859649123,-0.08552631578947369],[-0.27521929824561403,-0.044956140350877194],[-0.24067982456140352,-0.003837719298245614],[-0.20010964912280702,0.03453947368421053],[-0.1962719298245614,0.03837719298245614],[-0.1924342105263158,0.03892543859649123],[-0.18914473684210525,0.03892543859649123]]]",2,"[16,14]",,,,,,,,,,,,,,banquetHall2.jpg,space,9.9278,0,56,56,6,1,ATM1.jpg,auto_showroom5.jpg,baggageClaim1.jpg,apartmentBuilding3.jpg,,
Image_List_2,,,,,,,,,,,,,,,,46612,2022-03-02_22h14.48.634,analogCatScenes,2020.1.3,Win32,60,"[1368,912]","[[[-0.01206140350877193,-0.20230263157894737],[-0.013706140350877192,-0.20175438596491227],[-0.01425438596491228,-0.20175438596491227],[-0.014802631578947368,-0.20175438596491227],[-0.01864035087719298,-0.2012061403508772],[-0.0356359649122807,-0.19846491228070176],[-0.07839912280701754,-0.18640350877192982],[-0.1069078947368421,-0.16228070175438597],[-0.12609649122807018,-0.13322368421052633],[-0.13322368421052633,-0.10964912280701754],[-0.1387061403508772,-0.0800438596491228],[-0.12719298245614036,-0.04057017543859649],[-0.10526315789473684,-0.0027412280701754384]]]",1,[13],,,,,,,,,,,,,,office3.jpg,space,5.5323,0,57,57,66,1,library_aisle10.jpg,laundromat3.jpg,liquorstore.jpg,horsebarn9.jpg,,
Image_List_2,,,,,,,,,,,,,,,,46612,2022-03-02_22h14.48.634,analogCatScenes,2020.1.3,Win32,60,"[1368,912]","[[[-0.00712719298245614,-0.20394736842105263],[-0.007675438596491228,-0.2050438596491228],[0.0021929824561403508,-0.18804824561403508],[0.03453947368421053,-0.16611842105263158],[0.08333333333333333,-0.13815789473684212],[0.1206140350877193,-0.11239035087719298],[0.16392543859649122,-0.08223684210526316],[0.21436403508771928,-0.049342105263157895],[0.24451754385964913,-0.029605263157894735],[0.26973684210526316,-0.010964912280701754],[0.2955043859649123,0.010964912280701754]],[[-0.0043859649122807015,-0.19846491228070176],[-0.006578947368421052,-0.1836622807017544],[-0.004934210526315789,-0.1425438596491228],[-0.0010964912280701754,-0.09539473684210527],[0.008223684210526315,-0.03399122807017544],[0.019736842105263157,0.023026315789473683],[0.03289473684210526,0.06414473684210527]]]",2,"[11,7]",,,,,,,,,,,,,,yogastudio4.jpg,space,7.3764,0,58,58,99,1,wineVineyard9.jpg,windmill2.jpg,wrestlingring7.jpg,yogastudio1.jpg,,
Image_List_2,,,,,,,,,,,,,,,,46612,2022-03-02_22h14.48.634,analogCatScenes,2020.1.3,Win32,60,"[1368,912]","[[[-0.007675438596491228,-0.19846491228070176],[0.010964912280701754,-0.16885964912280702],[0.042214912280701754,-0.12390350877192982],[0.07346491228070176,-0.08881578947368421],[0.1074561403508772,-0.05975877192982456],[0.13760964912280702,-0.03618421052631579],[0.18640350877192982,-0.0010964912280701754],[0.21052631578947367,0.015350877192982455],[0.21052631578947367,0.015350877192982455]],[[-0.0043859649122807015,-0.20339912280701755],[-0.0021929824561403508,-0.16447368421052633],[-0.008771929824561403,-0.10197368421052631],[-0.013157894736842105,-0.07510964912280702],[-0.014802631578947368,-0.06962719298245613]]]",2,"[9,5]",,,,,,,,,,,,,,lab1.jpg,space,6.445,0,59,59,58,1,highway7.jpg,hedgemaze1.jpg,igloo4.jpg,grocerystore2.jpg,,
Image_List_2,,,,,,,,,,,,,,,,46612,2022-03-02_22h14.48.634,analogCatScenes,2020.1.3,Win32,60,"[1368,912]",[],0,[],,,,,,,,,,,,,,hotelRoom3.jpg,space,0.3733,0,60,60,55,1,greenmountains.jpg,gazebo5.jpg,hotelRoom7.jpg,frontLawn2.jpg,,
Image_List_2,,,,,,,,,,,,,,,,46612,2022-03-02_22h14.48.634,analogCatScenes,2020.1.3,Win32,60,"[1368,912]","[[[0.003289473684210526,-0.20285087719298245],[0.011513157894736841,-0.19956140350877194],[0.06414473684210527,-0.18640350877192982],[0.10635964912280702,-0.18475877192982457],[0.14692982456140352,-0.17434210526315788],[0.17927631578947367,-0.1513157894736842],[0.19846491228070176,-0.1206140350877193],[0.21271929824561403,-0.08114035087719298],[0.21765350877192982,-0.051535087719298246]],[[-0.007675438596491228,-0.19736842105263158],[-0.03618421052631579,-0.19517543859649122],[-0.0805921052631579,-0.16666666666666666],[-0.10471491228070176,-0.11677631578947369],[-0.10416666666666667,-0.09484649122807018]]]",2,"[9,5]",,,,,,,,,,,,,,homeoffice.jpg,space,6.9876,0,61,61,53,1,gazebo3.jpg,frontLawn3.jpg,homegarage3.jpg,fountain.jpg,,
Image_List_2,,,,,,,,,,,,,,,,46612,2022-03-02_22h14.48.634,analogCatScenes,2020.1.3,Win32,60,"[1368,912]","[[[-0.00932017543859649,-0.19462719298245615],[-0.029605263157894735,-0.2012061403508772],[-0.05098684210526316,-0.20449561403508773],[-0.07510964912280702,-0.20778508771929824],[-0.10581140350877193,-0.21107456140350878],[-0.13706140350877194,-0.2099780701754386],[-0.18421052631578946,-0.19517543859649122],[-0.22807017543859648,-0.16282894736842105],[-0.25,-0.1337719298245614]]]",1,[9],,,,,,,,,,,,,,breakroom5.jpg,space,3.8176,0,62,62,14,1,ballroom1.jpg,bistrooutdoor5.jpg,botanicalGarden5.jpg,ballroom3.jpg,,
Image_List_2,,,,,,,,,,,,,,,,46612,2022-03-02_22h14.48.634,analogCatScenes,2020.1.3,Win32,60,"[1368,912]","[[[0.0021929824561403508,-0.20285087719298245],[0.04550438596491228,-0.18146929824561403],[0.09649122807017543,-0.14912280701754385],[0.12445175438596491,-0.12828947368421054],[0.13760964912280702,-0.11403508771929824],[0.15350877192982457,-0.08826754385964912],[0.16337719298245615,-0.06140350877192982],[0.16337719298245615,-0.04111842105263158],[0.16337719298245615,-0.027412280701754384],[0.16282894736842105,-0.024671052631578948],[0.16282894736842105,-0.02412280701754386]]]",1,[11],,,,,,,,,,,,,,poolhall1.jpg,space,8.184,0,63,63,78,1,parkinglot3.jpg,pier5.jpg,pavilion3.jpg,observatory1.jpg,,
Image_List_2,,,,,,,,,,,,,,,,46612,2022-03-02_22h14.48.634,analogCatScenes,2020.1.3,Win32,60,"[1368,912]","[[[-0.009868421052631578,-0.19517543859649122],[0.03782894736842105,-0.17927631578947367],[0.10800438596491228,-0.12225877192982457],[0.15899122807017543,-0.06085526315789474],[0.20230263157894737,0.0005482456140350877],[0.21326754385964913,0.023026315789473683],[0.2149122807017544,0.027960526315789474],[0.21546052631578946,0.027960526315789474]]]",1,[8],,,,,,,,,,,,,,hardwarestore1.jpg,space,3.9274,0,64,64,52,1,gasstation7.jpg,frontFoyer6.jpg,highway.jpg,forestpath2.jpg,,
Image_List_2,,,,,,,,,,,,,,,,46612,2022-03-02_22h14.48.634,analogCatScenes,2020.1.3,Win32,60,"[1368,912]","[[[-0.0021929824561403508,-0.19188596491228072],[-0.0021929824561403508,-0.19188596491228072],[0,-0.18530701754385964],[0.008771929824561403,-0.15076754385964913],[0.01699561403508772,-0.10635964912280702],[0.022478070175438597,-0.052083333333333336],[0.03070175438596491,-0.007675438596491228],[0.046600877192982455,0.03728070175438596],[0.06907894736842106,0.07839912280701754],[0.09539473684210527,0.11567982456140351],[0.11951754385964912,0.13925438596491227],[0.1425438596491228,0.15679824561403508],[0.16173245614035087,0.17105263157894737],[0.18201754385964913,0.19078947368421054],[0.19188596491228072,0.20339912280701755],[0.19846491228070176,0.21875],[0.20230263157894737,0.23190789473684212],[0.20339912280701755,0.24177631578947367],[0.20285087719298245,0.24890350877192982]],[[-0.0027412280701754384,-0.1913377192982456],[-0.020833333333333332,-0.12280701754385964],[-0.03179824561403509,-0.025219298245614034],[-0.03344298245614035,0.05592105263157895],[-0.03453947368421053,0.11732456140350878],[-0.03728070175438596,0.15460526315789475],[-0.0400219298245614,0.17763157894736842],[-0.041666666666666664,0.19462719298245615],[-0.046052631578947366,0.21052631578947367]],[[-0.008223684210526315,-0.2050438596491228],[-0.010964912280701754,-0.19572368421052633],[-0.01644736842105263,-0.15515350877192982],[-0.05263157894736842,-0.0805921052631579],[-0.09375,-0.018092105263157895],[-0.11896929824561403,0.029605263157894735],[-0.14473684210526316,0.0668859649122807],[-0.17050438596491227,0.09429824561403509],[-0.18969298245614036,0.12171052631578948],[-0.20614035087719298,0.16228070175438597],[-0.20230263157894737,0.19846491228070176],[-0.19353070175438597,0.2236842105263158],[-0.18585526315789475,0.23903508771929824],[-0.16282894736842105,0.26644736842105265],[-0.14967105263157895,0.29660087719298245]]]",3,"[19,9,15]",,,,,,,,,,,,,,cemetery6.jpg,space,10.2475,0,65,65,21,1,botanicalGarden6.jpg,campusquad3.jpg,cave5.jpg,beach1.jpeg,,
Image_List_2,,,,,,,,,,,,,,,,46612,2022-03-02_22h14.48.634,analogCatScenes,2020.1.3,Win32,60,"[1368,912]","[[[-0.0005482456140350877,-0.20339912280701755],[0.07291666666666667,-0.18421052631578946],[0.1524122807017544,-0.15405701754385964],[0.22478070175438597,-0.125],[0.27631578947368424,-0.09978070175438597],[0.30756578947368424,-0.08114035087719298],[0.3163377192982456,-0.07401315789473684],[0.31798245614035087,-0.07072368421052631],[0.31853070175438597,-0.06633771929824561]],[[-0.005482456140350877,-0.20339912280701755],[-0.03070175438596491,-0.20833333333333334],[-0.11896929824561403,-0.21326754385964913],[-0.21600877192982457,-0.20723684210526316],[-0.2850877192982456,-0.19846491228070176]]]",2,"[9,5]",,,,,,,,,,,,,,baggageClaim2.jpg,space,8.9052,0,66,66,4,1,artStudio1.jpg,auto_showroom1.jpg,appleorchard3.jpg,alley4.jpg,,
Image_List_2,,,,,,,,,,,,,,,,46612,2022-03-02_22h14.48.634,analogCatScenes,2020.1.3,Win32,60,"[1368,912]","[[[-0.006030701754385965,-0.2012061403508772],[-0.013706140350877192,-0.17982456140350878],[-0.03508771929824561,-0.12390350877192982],[-0.05537280701754386,-0.06085526315789474],[-0.06304824561403509,0.01206140350877193],[-0.06359649122807018,0.09594298245614036],[-0.05756578947368421,0.1474780701754386],[-0.05646929824561404,0.18037280701754385],[-0.05921052631578947,0.20942982456140352]]]",1,[9],,,,,,,,,,,,,,track5.jpg,space,6.1975,0,67,67,89,1,ruralroad7.jpg,ShowJumping7.jpg,staircase7.jpg,sculpturegarden3.jpg,,
Image_List_2,,,,,,,,,,,,,,,,46612,2022-03-02_22h14.48.634,analogCatScenes,2020.1.3,Win32,60,"[1368,912]","[[[-0.003837719298245614,-0.20010964912280702],[0.01864035087719298,-0.19846491228070176],[0.11567982456140351,-0.17598684210526316],[0.23355263157894737,-0.11019736842105263],[0.26864035087719296,-0.051535087719298246],[0.28015350877192985,0.007675438596491228],[0.2768640350877193,0.03782894736842105],[0.27247807017543857,0.048793859649122806]]]",1,[8],,,,,,,,,,,,,,eyeglassstore9.jpg,space,13.6116,0,68,68,39,1,driveway6.jpg,drycleaners6.jpg,drymountains5.jpg,cliff5.jpg,,
Image_List_2,,,,,,,,,,,,,,,,46612,2022-03-02_22h14.48.634,analogCatScenes,2020.1.3,Win32,60,"[1368,912]","[[[-0.004934210526315789,-0.19791666666666666],[-0.0043859649122807015,-0.18914473684210525],[-0.001644736842105263,-0.09375],[0.006030701754385965,0.030153508771929825],[0.010416666666666666,0.05537280701754386]]]",1,[5],,,,,,,,,,,,,,warehouse2.jpg,space,2.8586,0,69,69,95,1,waitingroom2.jpg,stripmall6.jpg,weightroom4.jpg,tvstudio3.jpg,,
Image_List_2,,,,,,,,,,,,,,,,46612,2022-03-02_22h14.48.634,analogCatScenes,2020.1.3,Win32,60,"[1368,912]","[[[-0.0043859649122807015,-0.20394736842105263],[-0.00712719298245614,-0.1924342105263158],[-0.013706140350877192,-0.1206140350877193],[-0.01425438596491228,-0.11513157894736842]],[[0.001644736842105263,-0.19901315789473684],[0.018092105263157895,-0.20065789473684212],[0.10307017543859649,-0.19572368421052633],[0.16940789473684212,-0.19298245614035087],[0.2138157894736842,-0.19353070175438597]],[[-0.004934210526315789,-0.2012061403508772],[-0.030153508771929825,-0.20833333333333334],[-0.09484649122807018,-0.21436403508771928],[-0.18146929824561403,-0.20942982456140352],[-0.2225877192982456,-0.2012061403508772]]]",3,"[4,5,5]",,,,,,,,,,,,,,apartmentBuilding1.jpg,space,5.7731,0,70,70,1,1,airportTerminal4.jpg,applestore1.jpg,airportTerminal3.jpg,airportTerminal2.jpg,,
Image_List_2,,,,,,,,,,,,,,,,46612,2022-03-02_22h14.48.634,analogCatScenes,2020.1.3,Win32,60,"[1368,912]","[[[0.0021929824561403508,-0.19353070175438597],[-0.0010964912280701754,-0.19407894736842105],[0.01699561403508772,-0.20010964912280702],[0.0762061403508772,-0.19846491228070176],[0.13925438596491227,-0.1962719298245614],[0.21271929824561403,-0.1924342105263158],[0.27631578947368424,-0.18475877192982457],[0.29660087719298245,-0.1699561403508772]]]",1,[8],,,,,,,,,,,,,,racecarcourse2.jpg,space,9.0792,0,71,71,80,1,pavilion2.jpg,porch.jpg,poolhall5.jpg,parkinggarage4.jpg,,
Image_List_2,,,,,,,,,,,,,,,,46612,2022-03-02_22h14.48.634,analogCatScenes,2020.1.3,Win32,60,"[1368,912]","[[[-0.006030701754385965,-0.19353070175438597],[-0.04331140350877193,-0.16611842105263158],[-0.11403508771929824,-0.11896929824561403],[-0.17763157894736842,-0.0668859649122807],[-0.2362938596491228,-0.019736842105263157],[-0.2598684210526316,0.0027412280701754384]]]",1,[6],,,,,,,,,,,,,,jail1.jpg,space,4.468,0,72,72,57,1,hayfield5.jpg,hallway4.jpg,hut5.jpg,gazebo.jpg,,
Image_List_2,,,,,,,,,,,,,,,,46612,2022-03-02_22h14.48.634,analogCatScenes,2020.1.3,Win32,60,"[1368,912]","[[[-0.003837719298245614,-0.20230263157894737],[0.010964912280701754,-0.1962719298245614],[0.06907894736842106,-0.15296052631578946],[0.14912280701754385,-0.08662280701754387],[0.19791666666666666,-0.04276315789473684],[0.23135964912280702,-0.006578947368421052],[0.25603070175438597,0.023574561403508772],[0.27850877192982454,0.049890350877192985],[0.28399122807017546,0.06030701754385965],[0.28728070175438597,0.06853070175438597],[0.2905701754385965,0.0756578947368421],[0.29331140350877194,0.08168859649122807],[0.2949561403508772,0.08717105263157894]]]",1,[13],,,,,,,,,,,,,,poolhall2.jpeg,space,4.2817,0,73,73,79,1,pasture.jpg,playground9.jpg,pier2.jpg,observatory2.jpg,,
Image_List_2,,,,,,,,,,,,,,,,46612,2022-03-02_22h14.48.634,analogCatScenes,2020.1.3,Win32,60,"[1368,912]","[[[-0.0043859649122807015,-0.19956140350877194],[-0.023026315789473683,-0.15899122807017543],[-0.05043859649122807,-0.09758771929824561],[-0.06195175438596491,-0.054276315789473686],[-0.0800438596491228,-0.015350877192982455],[-0.09703947368421052,0.019736842105263157],[-0.10581140350877193,0.04331140350877193],[-0.11403508771929824,0.06030701754385965],[-0.11896929824561403,0.0712719298245614],[-0.12171052631578948,0.07730263157894737]],[[-0.0021929824561403508,-0.19353070175438597],[0.018092105263157895,-0.19517543859649122],[0.07346491228070176,-0.1836622807017544],[0.13706140350877194,-0.17050438596491227],[0.18695175438596492,-0.16447368421052633],[0.21052631578947367,-0.15953947368421054],[0.23739035087719298,-0.1513157894736842],[0.26535087719298245,-0.14364035087719298],[0.2856359649122807,-0.13760964912280702],[0.30098684210526316,-0.13267543859649122]],[[-0.006578947368421052,-0.19572368421052633],[-0.030153508771929825,-0.19736842105263158],[-0.08333333333333333,-0.20339912280701755],[-0.11842105263157894,-0.20668859649122806],[-0.1513157894736842,-0.20833333333333334],[-0.19462719298245615,-0.21326754385964913],[-0.24945175438596492,-0.23026315789473684],[-0.26096491228070173,-0.22971491228070176]]]",3,"[10,10,8]",,,,,,,,,,,,,,casino1.jpg,space,8.774,0,74,74,18,1,bleachers5.jpg,brewery4.jpg,castle2.jpg,basement6.jpg,,
Image_List_2,,,,,,,,,,,,,,,,46612,2022-03-02_22h14.48.634,analogCatScenes,2020.1.3,Win32,60,"[1368,912]","[[[0.0005482456140350877,-0.19736842105263158],[0.039473684210526314,-0.11348684210526316],[0.07346491228070176,-0.02412280701754386],[0.09923245614035088,0.03782894736842105],[0.12664473684210525,0.12774122807017543],[0.13651315789473684,0.19298245614035087],[0.13596491228070176,0.24780701754385964],[0.1337719298245614,0.27521929824561403],[0.13267543859649122,0.2894736842105263]]]",1,[9],,,,,,,,,,,,,,track.jpg,space,3.487,0,75,75,88,1,rooftop1.jpg,sculpturegarden4.jpg,soccerfield.jpg,sandbox.jpg,,
Image_List_2,,,,,,,,,,,,,,,,46612,2022-03-02_22h14.48.634,analogCatScenes,2020.1.3,Win32,60,"[1368,912]","[[[0,-0.19353070175438597],[-0.0005482456140350877,-0.1513157894736842],[0.007675438596491228,-0.06085526315789474],[0.02412280701754386,-0.0027412280701754384],[0.046600877192982455,0.0268640350877193],[0.05866228070175439,0.03399122807017544],[0.06524122807017543,0.0356359649122807],[0.06743421052631579,0.0356359649122807],[0.06907894736842106,0.03508771929824561],[0.07291666666666667,0.03399122807017544],[0.0762061403508772,0.03289473684210526],[0.07675438596491228,0.03289473684210526]],[[-0.0043859649122807015,-0.20285087719298245],[-0.0027412280701754384,-0.18859649122807018],[0,-0.1474780701754386],[-0.003837719298245614,-0.0805921052631579],[-0.025219298245614034,-0.010964912280701754],[-0.04824561403508772,0.02138157894736842],[-0.06140350877192982,0.029605263157894735],[-0.07346491228070176,0.03179824561403509],[-0.08442982456140351,0.02905701754385965],[-0.09758771929824561,0.027960526315789474],[-0.10032894736842106,0.027960526315789474]]]",2,"[12,11]",,,,,,,,,,,,,,lightingstore3.jpg,space,17.4496,0,76,76,60,1,hometheater2.jpg,homegarage.jpg,kindergarten_classroom6.jpg,hallway.jpg,,
Image_List_2,,,,,,,,,,,,,,,,46612,2022-03-02_22h14.48.634,analogCatScenes,2020.1.3,Win32,60,"[1368,912]","[[[-0.004934210526315789,-0.1962719298245614],[-0.012609649122807017,-0.17708333333333334],[-0.04824561403508772,-0.11019736842105263],[-0.07894736842105263,-0.05646929824561404],[-0.10307017543859649,-0.03070175438596491],[-0.11951754385964912,-0.013157894736842105]],[[-0.008223684210526315,-0.1962719298245614],[0.03837719298245614,-0.1650219298245614],[0.11293859649122807,-0.08278508771929824],[0.14199561403508773,-0.04824561403508772],[0.1425438596491228,-0.044956140350877194],[0.14199561403508773,-0.04111842105263158],[0.14144736842105263,-0.027412280701754384]]]",2,"[6,7]",,,,,,,,,,,,,,campsite6.jpg,space,4.8578,0,77,77,17,1,bikerack1.jpg,breakroom4.jpg,carmechanic.jpg,baseball6.jpg,,
Image_List_2,,,,,,,,,,,,,,,,46612,2022-03-02_22h14.48.634,analogCatScenes,2020.1.3,Win32,60,"[1368,912]","[[[-0.00932017543859649,-0.20230263157894737],[-0.047697368421052634,-0.18475877192982457],[-0.09429824561403509,-0.16173245614035087],[-0.13486842105263158,-0.13212719298245615],[-0.16885964912280702,-0.09649122807017543],[-0.19682017543859648,-0.02905701754385965],[-0.19736842105263158,0.05043859649122807],[-0.19572368421052633,0.07456140350877193]],[[-0.003289473684210526,-0.19353070175438597],[0.008223684210526315,-0.19956140350877194],[0.06304824561403509,-0.19956140350877194],[0.12390350877192982,-0.19791666666666666],[0.18804824561403508,-0.18530701754385964],[0.22916666666666666,-0.17598684210526316],[0.25,-0.16666666666666666]]]",2,"[8,7]",,,,,,,,,,,,,,museum6.jpg,space,5.252,0,78,78,63,1,hut2.jpg,hotelRoom2.jpg,lab4.jpg,highway2.jpg,,
Image_List_2,,,,,,,,,,,,,,,,46612,2022-03-02_22h14.48.634,analogCatScenes,2020.1.3,Win32,60,"[1368,912]","[[[0.0010964912280701754,-0.19024122807017543],[0.00712719298245614,-0.19024122807017543],[0.01918859649122807,-0.18585526315789475],[0.04057017543859649,-0.17269736842105263],[0.07456140350877193,-0.15625],[0.1112938596491228,-0.13925438596491227],[0.13925438596491227,-0.11074561403508772],[0.15844298245614036,-0.07894736842105263],[0.16666666666666666,-0.051535087719298246],[0.16666666666666666,-0.03508771929824561],[0.16611842105263158,-0.009868421052631578],[0.16557017543859648,0.006578947368421052]],[[-0.007675438596491228,-0.19572368421052633],[-0.02905701754385965,-0.20339912280701755],[-0.10307017543859649,-0.18695175438596492],[-0.17050438596491227,-0.14802631578947367],[-0.19462719298245615,-0.09210526315789473],[-0.17763157894736842,-0.03837719298245614]]]",2,"[12,6]",,,,,,,,,,,,,,park7.jpg,space,7.1754,0,79,79,67,1,library_aisle3.jpg,laundromat4.jpg,liquorstore2.jpg,hospitalroom2.jpg,,
Image_List_2,,,,,,,,,,,,,,,,46612,2022-03-02_22h14.48.634,analogCatScenes,2020.1.3,Win32,60,"[1368,912]","[[[0.0027412280701754384,-0.1913377192982456],[0.06085526315789474,-0.14309210526315788],[0.12335526315789473,-0.07894736842105263],[0.17434210526315788,-0.01644736842105263],[0.21436403508771928,0.03289473684210526],[0.24780701754385964,0.07346491228070176],[0.2719298245614035,0.09868421052631579]]]",1,[7],,,,,,,,,,,,,,alley2.jpg,space,3.3352,0,80,80,0,1,airplanecabin1.jpg,appleorchard4.jpg,airplanecabin5.jpg,airplanecabin3.jpg,,
Image_List_2,,,,,,,,,,,,,,,,46612,2022-03-02_22h14.48.634,analogCatScenes,2020.1.3,Win32,60,"[1368,912]","[[[-0.0021929824561403508,-0.20010964912280702],[-0.03289473684210526,-0.1913377192982456],[-0.10087719298245613,-0.16228070175438597],[-0.14857456140350878,-0.10471491228070176],[-0.16721491228070176,-0.02631578947368421],[-0.14638157894736842,0.020285087719298246],[-0.12664473684210525,0.05921052631578947],[-0.11074561403508772,0.10855263157894737],[-0.09594298245614036,0.15186403508771928],[-0.09484649122807018,0.16447368421052633],[-0.0981359649122807,0.16885964912280702],[-0.10142543859649122,0.17214912280701755]]]",1,[12],,,,,,,,,,,,,,forestpath10.jpg,space,4.9906,0,81,81,43,1,exerciseequipment5.jpg,dugout2.jpg,foodcourt.jpg,diningroom3.jpg,,
Image_List_2,,,,,,,,,,,,,,,,46612,2022-03-02_22h14.48.634,analogCatScenes,2020.1.3,Win32,60,"[1368,912]","[[[-0.0005482456140350877,-0.19517543859649122],[0.003837719298245614,-0.1913377192982456],[0.07456140350877193,-0.13432017543859648],[0.09155701754385964,-0.1206140350877193]]]",1,[4],,,,,,,,,,,,,,frontFoyer4.jpg,space,3.8789,0,82,82,44,1,firestation2.jpg,elevatorOutside1.jpg,foodcourt6.jpg,dock2.jpg,,
Image_List_2,,,,,,,,,,,,,,,,46612,2022-03-02_22h14.48.634,analogCatScenes,2020.1.3,Win32,60,"[1368,912]","[[[-0.004934210526315789,-0.19407894736842105],[-0.009868421052631578,-0.18804824561403508],[-0.027412280701754384,-0.16611842105263158],[-0.05921052631578947,-0.13432017543859648],[-0.10087719298245613,-0.11403508771929824],[-0.15844298245614036,-0.08662280701754387],[-0.20942982456140352,-0.06359649122807018],[-0.2412280701754386,-0.051535087719298246]],[[-0.008223684210526315,-0.1913377192982456],[-0.005482456140350877,-0.11513157894736842],[-0.005482456140350877,-0.019736842105263157],[-0.00932017543859649,0.04331140350877193],[-0.010964912280701754,0.05921052631578947]],[[0.005482456140350877,-0.19956140350877194],[0.03125,-0.16666666666666666],[0.12335526315789473,-0.05975877192982456],[0.20285087719298245,0.009868421052631578],[0.20614035087719298,0.012609649122807017],[0.20668859649122806,0.013157894736842105],[0.20668859649122806,0.013157894736842105]]]",3,"[8,5,7]",,,,,,,,,,,,,,desertvegetation3.jpg,space,8.5974,0,83,83,30,1,courthouse1.jpg,clothingstore2.jpg,copyroom2.jpg,bus_shelter3.jpg,,
Image_List_2,,,,,,,,,,,,,,,,46612,2022-03-02_22h14.48.634,analogCatScenes,2020.1.3,Win32,60,"[1368,912]","[[[0.0043859649122807015,-0.19353070175438597],[0.06414473684210527,-0.1875],[0.1524122807017544,-0.15460526315789475],[0.23958333333333334,-0.1162280701754386],[0.30043859649122806,-0.08662280701754387],[0.30975877192982454,-0.0756578947368421]],[[-0.006030701754385965,-0.19078947368421054],[-0.027412280701754384,-0.19682017543859648],[-0.09539473684210527,-0.18695175438596492],[-0.15734649122807018,-0.17050438596491227],[-0.21600877192982457,-0.14692982456140352],[-0.25274122807017546,-0.12445175438596491],[-0.2817982456140351,-0.1069078947368421]]]",2,"[6,7]",,,,,,,,,,,,,,bar2.jpg,space,5.0319,0,84,84,9,1,auto_showroom3.jpg,ballroom2.jpg,basement5.jpg,arcade2.jpg,,
Image_List_2,,,,,,,,,,,,,,,,46612,2022-03-02_22h14.48.634,analogCatScenes,2020.1.3,Win32,60,"[1368,912]","[[[-0.004934210526315789,-0.19188596491228072],[-0.004934210526315789,-0.19188596491228072],[-0.003289473684210526,-0.16337719298245615],[0.013157894736842105,-0.09429824561403509],[0.03618421052631579,-0.06304824561403509],[0.044407894736842105,-0.049890350877192985],[0.048793859649122806,-0.041666666666666664],[0.05043859649122807,-0.03728070175438596]],[[0.0027412280701754384,-0.19078947368421054],[0.07182017543859649,-0.18695175438596492],[0.1513157894736842,-0.17324561403508773],[0.22807017543859648,-0.14692982456140352],[0.2774122807017544,-0.1288377192982456],[0.28618421052631576,-0.12280701754385964]],[[-0.003837719298245614,-0.1962719298245614],[-0.008771929824561403,-0.19682017543859648],[-0.04550438596491228,-0.19078947368421054],[-0.1337719298245614,-0.1825657894736842],[-0.21655701754385964,-0.16392543859649122],[-0.2949561403508772,-0.15844298245614036],[-0.3229166666666667,-0.16337719298245615]]]",3,"[8,6,7]",,,,,,,,,,,,,,firestation3.jpg,space,7.2833,0,85,85,42,1,exerciseequipment3.jpg,drymountains6.jpg,farm4.jpg,desertvegetation2.jpg,,
Image_List_2,,,,,,,,,,,,,,,,46612,2022-03-02_22h14.48.634,analogCatScenes,2020.1.3,Win32,60,"[1368,912]","[[[0,-0.19791666666666666],[0.015350877192982455,-0.1924342105263158],[0.06469298245614036,-0.17708333333333334],[0.1025219298245614,-0.17105263157894737],[0.1288377192982456,-0.17050438596491227],[0.15296052631578946,-0.1737938596491228],[0.17160087719298245,-0.18092105263157895],[0.18475877192982457,-0.19024122807017543],[0.19462719298245615,-0.20175438596491227],[0.20230263157894737,-0.21052631578947367],[0.2050438596491228,-0.21436403508771928]],[[-0.004934210526315789,-0.1962719298245614],[-0.010964912280701754,-0.19736842105263158],[-0.05263157894736842,-0.18421052631578946],[-0.09046052631578948,-0.1425438596491228],[-0.08278508771929824,-0.05098684210526316],[-0.05592105263157895,0.011513157894736841],[-0.02138157894736842,0.05592105263157895],[-0.005482456140350877,0.07291666666666667]]]",2,"[11,8]",,,,,,,,,,,,,,attic1.jpg,space,7.2729,0,86,86,3,1,apartmentBuilding2.jpg,aquarium1.jpg,appleorchard2.jpg,alley3.jpg,,
Image_List_2,,,,,,,,,,,,,,,,46612,2022-03-02_22h14.48.634,analogCatScenes,2020.1.3,Win32,60,"[1368,912]","[[[-0.008771929824561403,-0.19188596491228072],[-0.0537280701754386,-0.1387061403508772],[-0.13267543859649122,-0.06414473684210527],[-0.22423245614035087,-0.020833333333333332],[-0.27028508771929827,-0.01918859649122807]],[[-0.008223684210526315,-0.20833333333333334],[-0.008223684210526315,-0.17653508771929824],[-0.011513157894736841,-0.09539473684210527],[-0.022478070175438597,-0.0043859649122807015],[-0.030153508771929825,0.05592105263157895],[-0.03125,0.07456140350877193],[-0.029605263157894735,0.08662280701754387]],[[-0.01206140350877193,-0.19517543859649122],[0.013157894736842105,-0.16392543859649122],[0.0756578947368421,-0.10032894736842106],[0.14802631578947367,-0.03289473684210526],[0.20942982456140352,0.007675438596491228],[0.22203947368421054,0.014802631578947368],[0.22423245614035087,0.015899122807017545]]]",3,"[5,7,7]",,,,,,,,,,,,,,volleyballcourt.jpg,space,7.0039,0,87,87,92,1,staircase.jpg,skatepark7.jpg,tvstudio2.jpg,soccerfield2.jpg,,
Image_List_2,,,,,,,,,,,,,,,,46612,2022-03-02_22h14.48.634,analogCatScenes,2020.1.3,Win32,60,"[1368,912]","[[[-0.0021929824561403508,-0.19956140350877194],[0.003837719298245614,-0.16611842105263158],[0.025219298245614034,-0.10526315789473684],[0.05043859649122807,-0.046052631578947366],[0.07675438596491228,0.027412280701754384],[0.09758771929824561,0.08607456140350878],[0.11239035087719298,0.1337719298245614],[0.1162280701754386,0.17434210526315788],[0.11951754385964912,0.20668859649122806],[0.1206140350877193,0.22532894736842105]],[[-0.001644736842105263,-0.1962719298245614],[-0.003289473684210526,-0.14692982456140352],[-0.00712719298245614,-0.07894736842105263],[-0.020285087719298246,-0.041666666666666664],[-0.02905701754385965,-0.01644736842105263],[-0.03289473684210526,0.00712719298245614],[-0.03618421052631579,0.027960526315789474],[-0.03892543859649123,0.03673245614035088],[-0.04111842105263158,0.039473684210526314]]]",2,"[10,9]",,,,,,,,,,,,,,barbershop3.jpg,space,8.194,0,88,88,10,1,backstage2.jpg,ballroom4.jpg,basketballcourt3.jpg,ATM4.jpg,,
Image_List_2,,,,,,,,,,,,,,,,46612,2022-03-02_22h14.48.634,analogCatScenes,2020.1.3,Win32,60,"[1368,912]","[[[-0.001644736842105263,-0.19188596491228072],[0.020285087719298246,-0.19901315789473684],[0.0849780701754386,-0.20065789473684212],[0.14638157894736842,-0.19462719298245615],[0.20778508771929824,-0.18585526315789475],[0.2576754385964912,-0.1650219298245614],[0.28618421052631576,-0.14638157894736842]],[[-0.008223684210526315,-0.19572368421052633],[-0.047149122807017545,-0.20449561403508773],[-0.12774122807017543,-0.20230263157894737],[-0.21162280701754385,-0.18092105263157895],[-0.28125,-0.13541666666666666],[-0.3190789473684211,-0.09978070175438597],[-0.3262061403508772,-0.09265350877192982]]]",2,"[7,7]",,,,,,,,,,,,,,grocerystore6.jpg,space,4.5268,0,89,89,50,1,frontLawn4.jpg,forestpath6.jpg,hallway2.jpg,fireplace4.jpg,,
Image_List_2,,,,,,,,,,,,,,,,46612,2022-03-02_22h14.48.634,analogCatScenes,2020.1.3,Win32,60,"[1368,912]","[[[-0.003837719298245614,-0.1962719298245614],[-0.006030701754385965,-0.19846491228070176],[-0.010416666666666666,-0.19956140350877194],[-0.022478070175438597,-0.19791666666666666],[-0.041666666666666664,-0.19078947368421054],[-0.0668859649122807,-0.18311403508771928],[-0.09594298245614036,-0.17489035087719298],[-0.13157894736842105,-0.16557017543859648],[-0.15734649122807018,-0.16228070175438597],[-0.1836622807017544,-0.1611842105263158],[-0.22094298245614036,-0.1600877192982456],[-0.2631578947368421,-0.16721491228070176]]]",1,[12],,,,,,,,,,,,,,cliff3.jpg,space,6.5993,0,90,90,24,1,campsite.jpg,cave6.jpg,cemetery5.jpg,boardwalk.jpg,,
Image_List_2,,,,,,,,,,,,,,,,46612,2022-03-02_22h14.48.634,analogCatScenes,2020.1.3,Win32,60,"[1368,912]","[[[-0.01206140350877193,-0.20394736842105263],[0.01206140350877193,-0.19901315789473684],[0.041666666666666664,-0.18585526315789475],[0.08552631578947369,-0.17105263157894737],[0.13815789473684212,-0.1611842105263158],[0.19024122807017543,-0.1425438596491228],[0.22861842105263158,-0.12280701754385964],[0.25493421052631576,-0.10581140350877193],[0.2631578947368421,-0.09703947368421052],[0.2604166666666667,-0.08717105263157894],[0.25493421052631576,-0.07894736842105263],[0.25274122807017546,-0.0762061403508772],[0.25274122807017546,-0.0756578947368421],[0.25219298245614036,-0.0756578947368421],[0.24561403508771928,-0.07346491228070176],[0.23135964912280702,-0.06798245614035088],[0.21326754385964913,-0.05975877192982456],[0.1962719298245614,-0.048793859649122806]],[[-0.008771929824561403,-0.19956140350877194],[-0.06578947368421052,-0.2099780701754386],[-0.16282894736842105,-0.21107456140350878],[-0.24671052631578946,-0.19572368421052633],[-0.2889254385964912,-0.18092105263157895],[-0.3256578947368421,-0.16776315789473684]]]",2,"[18,6]",,,,,,,,,,,,,,church6.jpg,space,6.7373,0,91,91,22,1,bowlingalley5.jpg,cargo5.jpg,cemetery.jpg,bistrooutdoor6.jpg,,
Image_List_2,,,,,,,,,,,,,,,,46612,2022-03-02_22h14.48.634,analogCatScenes,2020.1.3,Win32,60,"[1368,912]","[[[-0.008223684210526315,-0.19956140350877194],[-0.00932017543859649,-0.1913377192982456],[-0.027960526315789474,-0.1425438596491228],[-0.049890350877192985,-0.09868421052631579],[-0.0712719298245614,-0.06359649122807018],[-0.09429824561403509,-0.027960526315789474],[-0.1074561403508772,-0.009868421052631578],[-0.11787280701754387,-0.0010964912280701754],[-0.13048245614035087,0.007675438596491228],[-0.14583333333333334,0.01644736842105263],[-0.1600877192982456,0.022478070175438597],[-0.1737938596491228,0.027960526315789474]],[[-0.00712719298245614,-0.20339912280701755],[0.008771929824561403,-0.18914473684210525],[0.07456140350877193,-0.16228070175438597],[0.14583333333333334,-0.1474780701754386],[0.20449561403508773,-0.14144736842105263],[0.24396929824561403,-0.14199561403508773],[0.2774122807017544,-0.14309210526315788]]]",2,"[12,7]",,,,,,,,,,,,,,library_aisle8.jpg,space,5.5957,0,92,92,59,1,homegarden7.jpg,highway4.jpg,kindergarten_classroom5.jpg,grocerystore3.jpg,,
Image_List_2,,,,,,,,,,,,,,,,46612,2022-03-02_22h14.48.634,analogCatScenes,2020.1.3,Win32,60,"[1368,912]","[[[-0.009868421052631578,-0.2012061403508772],[-0.00932017543859649,-0.20010964912280702],[-0.003837719298245614,-0.14364035087719298],[-0.00712719298245614,-0.06414473684210527],[-0.006578947368421052,0.008223684210526315],[-0.010416666666666666,0.052083333333333336],[-0.009868421052631578,0.06524122807017543],[-0.009868421052631578,0.06633771929824561]]]",1,[8],,,,,,,,,,,,,,dock3.jpg,space,3.1627,0,93,93,35,1,deck5.jpg,cubicle7.jpg,dining_car6.jpg,carmechanic2.jpg,,
Image_List_2,,,,,,,,,,,,,,,,46612,2022-03-02_22h14.48.634,analogCatScenes,2020.1.3,Win32,60,"[1368,912]","[[[-0.0005482456140350877,-0.20065789473684212],[-0.0043859649122807015,-0.18421052631578946],[0.0005482456140350877,-0.13212719298245615],[0.01918859649122807,-0.07456140350877193],[0.047149122807017545,-0.03892543859649123],[0.06962719298245613,-0.020833333333333332],[0.08607456140350878,-0.013157894736842105],[0.09210526315789473,-0.00932017543859649],[0.09320175438596491,-0.008223684210526315]],[[-0.0021929824561403508,-0.20010964912280702],[-0.006030701754385965,-0.18695175438596492],[-0.008223684210526315,-0.16063596491228072],[-0.009868421052631578,-0.12664473684210525],[-0.01699561403508772,-0.08717105263157894],[-0.02850877192982456,-0.054276315789473686],[-0.039473684210526314,-0.03179824561403509],[-0.054276315789473686,-0.015350877192982455],[-0.06359649122807018,-0.010416666666666666],[-0.07291666666666667,-0.00932017543859649],[-0.08278508771929824,-0.01206140350877193],[-0.09375,-0.015350877192982455]]]",2,"[9,12]",,,,,,,,,,,,,,pharmacy4.jpg,space,5.3093,0,94,94,72,1,museum5.jpg,musicStore1.jpg,museum4.jpg,kindergarten_classroom.jpg,,
Image_List_2,,,,,,,,,,,,,,,,46612,2022-03-02_22h14.48.634,analogCatScenes,2020.1.3,Win32,60,"[1368,912]","[[[-0.008223684210526315,-0.20230263157894737],[0.0005482456140350877,-0.19298245614035087],[0.046052631578947366,-0.17708333333333334],[0.0712719298245614,-0.15789473684210525],[0.06195175438596491,-0.12938596491228072],[0.049342105263157895,-0.11842105263157894],[0.04550438596491228,-0.11732456140350878],[0.043859649122807015,-0.11732456140350878]],[[-0.0010964912280701754,-0.20230263157894737],[0.01425438596491228,-0.2012061403508772],[0.06798245614035088,-0.19353070175438597],[0.10032894736842106,-0.18969298245614036],[0.13541666666666666,-0.18859649122807018],[0.17160087719298245,-0.1836622807017544],[0.20614035087719298,-0.17763157894736842],[0.23355263157894737,-0.17434210526315788],[0.2675438596491228,-0.1699561403508772],[0.29221491228070173,-0.16721491228070176],[0.30043859649122806,-0.16940789473684212]],[[-0.0021929824561403508,-0.19901315789473684],[-0.03234649122807018,-0.19682017543859648],[-0.08826754385964912,-0.20888157894736842],[-0.14089912280701755,-0.22532894736842105],[-0.19078947368421054,-0.23300438596491227],[-0.25219298245614036,-0.22587719298245615],[-0.29002192982456143,-0.22149122807017543]]]",3,"[8,11,7]",,,,,,,,,,,,,,church8.jpg,space,10.8478,0,95,95,23,1,bus_shelter.jpg,carmechanic4.jpeg,cemetery3.jpg,bleachers6.jpg,,
