image_list,key_resp_intructions.keys,key_resp_intructions.rt,key_resp_intructions_3.keys,key_resp_intructions_3.rt,PracticeComplete_2.keys,PracticeComplete_2.rt,PracticeComplete_3.keys,PracticeComplete_3.rt,demo_trials.thisRepN,demo_trials.thisTrialN,demo_trials.thisN,demo_trials.thisIndex,demo_trials.ran,demo_images,path_images,participant,date,expName,psychopyVersion,OS,frameRate,windowSize,drawing,numDrawings,drawingSizes,practice_complete.keys,practice_complete.rt,PracticeComplete.keys,PracticeComplete.rt,practice_trials.thisRepN,practice_trials.thisTrialN,practice_trials.thisN,practice_trials.thisIndex,practice_trials.ran,practice_images,feedback_images,key_resp_intructions_2.keys,key_resp_intructions_2.rt,Image_List_2,trial_complete.keys,trial_complete.rt,trials.thisRepN,trials.thisTrialN,trials.thisN,trials.thisIndex,trials.ran,Image_List_1,Image_List_3,Image_List_4,Image_List_5,key_resp.keys,key_resp.rt
Image_List_2,space,11.7146,space,3.2982,space,3.8298,space,3.2561,0,0,0,6,1,right_left.jpg,right_left_path.jpg,46617,2022-03-01_15h52.24.293,analogCatScenes,2020.1.3,MacIntel,60,,,,,,,,,,,,,,,,,,,,,,,,,,,,,,,
Image_List_2,,,,,space,1.6545,space,0.8433,0,1,1,2,1,ahead_right.jpg,ahead_right_path.jpg,46617,2022-03-01_15h52.24.293,analogCatScenes,2020.1.3,MacIntel,60,,,,,,,,,,,,,,,,,,,,,,,,,,,,,,,
Image_List_2,,,,,space,2.1982,space,2.4147,0,2,2,3,1,ahead_right_left.jpg,ahead_right_left_path.jpg,46617,2022-03-01_15h52.24.293,analogCatScenes,2020.1.3,MacIntel,60,,,,,,,,,,,,,,,,,,,,,,,,,,,,,,,
Image_List_2,,,,,space,1.5536,space,0.5855,0,3,3,0,1,ahead.jpg,ahead_path.jpg,46617,2022-03-01_15h52.24.293,analogCatScenes,2020.1.3,MacIntel,60,,,,,,,,,,,,,,,,,,,,,,,,,,,,,,,
Image_List_2,,,,,space,1.3081,space,0.5556,0,4,4,5,1,right.jpg,right_path.jpg,46617,2022-03-01_15h52.24.293,analogCatScenes,2020.1.3,MacIntel,60,,,,,,,,,,,,,,,,,,,,,,,,,,,,,,,
Image_List_2,,,,,space,0.5132,space,0.0407,0,5,5,1,1,ahead_left.jpg,ahead_left_path.jpg,46617,2022-03-01_15h52.24.293,analogCatScenes,2020.1.3,MacIntel,60,,,,,,,,,,,,,,,,,,,,,,,,,,,,,,,
Image_List_2,,,,,space,0.1693,space,0.1445,0,6,6,4,1,left.jpg,left_path.jpg,46617,2022-03-01_15h52.24.293,analogCatScenes,2020.1.3,MacIntel,60,,,,,,,,,,,,,,,,,,,,,,,,,,,,,,,
Image_List_2,,,,,,,,,,,,,,,,46617,2022-03-01_15h52.24.293,analogCatScenes,2020.1.3,MacIntel,60,"[1920,1200]",[],0,[],space,0.1378,space,0.3122,0,0,0,3,1,ahead_right_left_2.jpg,ahead_right_left_2_path.jpg,,,,,,,,,,,,,,,,
Image_List_2,,,,,,,,,,,,,,,,46617,2022-03-01_15h52.24.293,analogCatScenes,2020.1.3,MacIntel,60,"[1920,1200]",[],0,[],space,0.1572,space,0.1381,0,1,1,6,1,right_left_2.jpg,right_left_2_path.jpg,,,,,,,,,,,,,,,,
Image_List_2,,,,,,,,,,,,,,,,46617,2022-03-01_15h52.24.293,analogCatScenes,2020.1.3,MacIntel,60,"[1920,1200]",[],0,[],space,0.1692,space,0.1744,0,2,2,2,1,ahead_right_2.jpg,ahead_right_2_path.jpg,,,,,,,,,,,,,,,,
Image_List_2,,,,,,,,,,,,,,,,46617,2022-03-01_15h52.24.293,analogCatScenes,2020.1.3,MacIntel,60,"[1920,1200]",[],0,[],space,0.1499,space,0.1597,0,3,3,5,1,right_2.jpg,right_2_path.jpg,,,,,,,,,,,,,,,,
Image_List_2,,,,,,,,,,,,,,,,46617,2022-03-01_15h52.24.293,analogCatScenes,2020.1.3,MacIntel,60,"[1920,1200]",[],0,[],space,0.0274,space,0.0671,0,4,4,4,1,left_2.jpg,left_2_path.jpg,,,,,,,,,,,,,,,,
Image_List_2,,,,,,,,,,,,,,,,46617,2022-03-01_15h52.24.293,analogCatScenes,2020.1.3,MacIntel,60,"[1920,1200]",[],0,[],space,0.2001,space,0.1971,0,5,5,0,1,ahead_2.jpg,ahead_2_path.jpg,,,,,,,,,,,,,,,,
Image_List_2,,,,,,,,,,,,,,,,46617,2022-03-01_15h52.24.293,analogCatScenes,2020.1.3,MacIntel,60,"[1920,1200]","[[[-0.002449493408203125,-0.19976664225260415],[-0.002449493408203125,-0.19976664225260415],[-0.002449493408203125,-0.19976664225260415],[-0.002449493408203125,-0.19976664225260415],[-0.002449493408203125,-0.19976664225260415],[-0.002449493408203125,-0.19976664225260415],[-0.002449493408203125,-0.19832733154296875],[-0.002449493408203125,-0.17376825968424478],[-0.002449493408203125,-0.13751495361328125],[-0.002449493408203125,-0.09825998942057292],[-0.002449493408203125,-0.086614990234375],[-0.002449493408203125,-0.0732080078125],[-0.002449493408203125,-0.053501790364583336],[-0.002449493408203125,-0.04782374064127604],[-0.002449493408203125,-0.044670511881510416],[-0.002449493408203125,-0.03936843872070313],[-0.002449493408203125,-0.03273417154947917],[-0.002449493408203125,-0.028436431884765623],[-0.002449493408203125,-0.021941680908203125],[-0.002449493408203125,-0.011868235270182291],[-0.0016312662760416667,-0.006140645345052083],[0.002018229166666667,0.01575663248697917],[0.003560791015625,0.025830078125],[0.006203765869140625,0.03885670979817708],[0.009288838704427083,0.048930155436197914],[0.013823750813802084,0.0627239990234375],[0.015272369384765625,0.06706990559895833],[0.019056193033854165,0.07337631225585937],[0.02220942179361979,0.0790521240234375],[0.02559722900390625,0.08332804361979167],[0.026836446126302083,0.08536244710286459],[0.028612620035807293,0.0880267333984375],[0.03211619059244792,0.09279159545898437],[0.036437276204427084,0.10124689737955729],[0.0395904541015625,0.10755335489908854],[0.042931009928385416,0.1150524393717448],[0.04671483357747396,0.12451207478841146],[0.049050547281901044,0.12981417338053386],[0.050942484537760416,0.13612060546875],[0.0524609375,0.1417505137125651],[0.05325612386067708,0.1437848917643229],[0.05405131022135417,0.14581926981608073],[0.05405131022135417,0.14785364786783853],[0.05503255208333333,0.15348355611165365],[0.05503255208333333,0.1577813212076823],[0.056106974283854166,0.1634112294514974],[0.056106974283854166,0.1660755157470703],[0.056106974283854166,0.16873980204264322],[0.056106974283854166,0.17014427185058595],[0.056106974283854166,0.1728808848063151],[0.056106974283854166,0.17428535461425781],[0.056106974283854166,0.17568982442220052],[0.056106974283854166,0.17709429423014322],[0.056106974283854166,0.17875719706217447],[0.056106974283854166,0.17945943196614583],[0.056106974283854166,0.18042009989420574],[0.056106974283854166,0.18138076782226562],[0.05575581868489583,0.18234143575032552],[0.0554046630859375,0.18400433858235676],[0.0554046630859375,0.18540880839029947],[0.055146280924479166,0.18566724141438803],[0.055146280924479166,0.18733014424641928],[0.05479512532552083,0.18873461405436198],[0.05479512532552083,0.19032519022623698],[0.05479512532552083,0.1923595682779948],[0.05479512532552083,0.19635599772135418],[0.05479512532552083,0.19768814086914063],[0.05479512532552083,0.20035242716471355],[0.05479512532552083,0.20320353190104168],[0.05479512532552083,0.20657007853190104],[0.05479512532552083,0.20753072102864584],[0.05479512532552083,0.20849141438802082],[0.0545367431640625,0.20874984741210936],[0.0545367431640625,0.20874984741210936],[0.05433858235677083,0.20874984741210936]],[[-0.0015966288248697917,-0.19451456705729167],[-0.0015966288248697917,-0.19451456705729167],[-0.0015966288248697917,-0.19451456705729167],[-0.0015966288248697917,-0.19451456705729167],[-0.0015966288248697917,-0.19451456705729167],[-0.0015966288248697917,-0.19451456705729167],[-0.0015966288248697917,-0.19451456705729167],[0.013870442708333333,-0.17358734130859374],[0.03969512939453125,-0.1434106953938802],[0.07126332600911459,-0.10552886962890624],[0.09898661295572916,-0.0759454854329427],[0.11617258707682292,-0.05746821085611979],[0.12768768310546874,-0.04494633992513021],[0.135003662109375,-0.037630411783854165],[0.1400487263997396,-0.0332159423828125],[0.1440900675455729,-0.029991861979166666],[0.14703389485677085,-0.02749211629231771],[0.15446573893229168,-0.02150909423828125],[0.16919382731119792,-0.010053914388020833],[0.18115071614583333,0.000077972412109375],[0.1892132568359375,0.005430348714192708],[0.19671244303385416,0.0094952392578125],[0.20238820393880208,0.012648417154947916],[0.2080180867513021,0.015148162841796875],[0.21149912516276043,0.016666615804036458],[0.21579691569010417,0.018278299967447918],[0.2218004353841146,0.021688690185546877],[0.22684560139973958,0.025472513834635415],[0.23189076741536457,0.029256388346354165],[0.23983662923177082,0.036758168538411455],[0.24488169352213543,0.041172637939453124],[0.24992685953776042,0.044956512451171875],[0.25539326985677085,0.04934814453125],[0.2586165364583333,0.05257151285807292],[0.26183990478515623,0.055794779459635416],[0.2700221761067708,0.06397705078125],[0.2805507405598958,0.07198033650716146],[0.2877937825520833,0.07777483622233072],[0.29725341796875,0.08281997680664062],[0.30355987548828123,0.08534250895182292],[0.3088619995117188,0.08704757690429688],[0.31516845703125,0.08893951416015625],[0.32362375895182294,0.09136861165364583],[0.32710479736328124,0.09181266784667969]],[[-0.005557149251302083,-0.20041086832682292],[-0.005557149251302083,-0.20041086832682292],[-0.005557149251302083,-0.20041086832682292],[-0.005557149251302083,-0.20041086832682292],[-0.007883199055989583,-0.20041086832682292],[-0.024625244140625,-0.19710652669270834],[-0.0377850341796875,-0.1923211669921875],[-0.10125335693359375,-0.16448506673177082],[-0.12907867431640624,-0.15179977416992188],[-0.17053207397460937,-0.12973581949869792],[-0.1946515401204427,-0.11647964477539062],[-0.21667887369791666,-0.1048681640625],[-0.22158818562825522,-0.10159530639648437],[-0.22773234049479166,-0.0961754862467448],[-0.2351642354329427,-0.09019241333007813],[-0.2477862548828125,-0.07993113199869792],[-0.25678675333658857,-0.072567138671875],[-0.26875152587890627,-0.062965087890625],[-0.27980504353841146,-0.05490300496419271],[-0.2854808044433594,-0.051119181315104165],[-0.2889618428548177,-0.04960067749023438],[-0.2945917765299479,-0.04754501342773437],[-0.2998938496907552,-0.046377156575520835]]]",3,"[75,44,23]",space,8.8212,space,1.4276,0,6,6,1,1,ahead_left_2.jpg,ahead_left_2_path.jpg,,,,,,,,,,,,,,,,
Image_List_2,,,,,,,,,,,,,,,,46617,2022-03-01_15h52.24.293,analogCatScenes,2020.1.3,MacIntel,60,"[1920,1200]","[[[-0.0007502237955729166,-0.19528666178385418],[-0.0007502237955729166,-0.19528666178385418],[-0.0007502237955729166,-0.19528666178385418],[-0.0007502237955729166,-0.19528666178385418],[-0.0007502237955729166,-0.19528666178385418],[-0.0007502237955729166,-0.1858611551920573],[-0.0007502237955729166,-0.17440602620442708],[-0.0007502237955729166,-0.1653448486328125],[-0.0007502237955729166,-0.12207941691080729],[-0.0007502237955729166,-0.10085393269856771],[-0.0007502237955729166,-0.05669825236002604],[-0.0007502237955729166,-0.03114888509114583],[-0.0007502237955729166,-0.013026580810546876],[-0.0007502237955729166,0.009581197102864583],[-0.0007502237955729166,0.01902918497721354],[-0.0007502237955729166,0.0302392578125],[0.00227020263671875,0.04144927978515625],[0.0029944864908854167,0.04794403076171875],[0.006079559326171875,0.05801747639973958],[0.007434488932291667,0.06551656087239584],[0.009046122233072917,0.06981430053710938],[0.010471445719401042,0.07462748209635417],[0.010915476481119792,0.07729176839192708],[0.011266581217447917,0.07799400329589844],[0.011710611979166667,0.08002838134765625],[0.01250579833984375,0.08276499430338542],[0.012764231363932291,0.0832818603515625],[0.012764231363932291,0.0837908935546875],[0.013022664388020834,0.08430775960286459],[0.013466695149739583,0.0863421376546224],[0.01400390625,0.08982315063476562],[0.015078328450520833,0.09412094116210938],[0.0168768310546875,0.10257624308268229],[0.0168768310546875,0.10572947184244792],[0.018044637044270832,0.11103154500325521],[0.019212493896484373,0.1163336690266927],[0.020917561848958332,0.12378463745117188],[0.0218988037109375,0.1272656758626302],[0.02234283447265625,0.12992996215820313],[0.022786916097005207,0.13196431477864584],[0.02323094685872396,0.13399871826171875],[0.023582051595052084,0.13603307088216146],[0.024026082356770832,0.13869735717773438],[0.024470163981119793,0.14206390380859374],[0.02489105224609375,0.1446587626139323],[0.0253350830078125,0.1473230489095052],[0.0253350830078125,0.14947191874186197],[0.025872294108072916,0.15376968383789064],[0.026502939860026043,0.16222498575846353],[0.027857869466145834,0.1697240702311198],[0.028488515218098958,0.17603052775065103],[0.0296563720703125,0.18133260091145834],[0.030007476806640624,0.18336700439453124],[0.030007476806640624,0.18362543741861978]]]",1,[54],,,,,,,,,,,,space,3.5181,metroInside4.jpg,space,2.1414,0,0,0,61,1,HorseRaceTrack.jpg,homegarden6.jpg,kindergarten_classroom7.jpg,hayfield6.jpg,,
Image_List_2,,,,,,,,,,,,,,,,46617,2022-03-01_15h52.24.293,analogCatScenes,2020.1.3,MacIntel,60,"[1920,1200]","[[[0.0016190083821614584,-0.1946014404296875],[0.0016190083821614584,-0.1946014404296875],[0.0016190083821614584,-0.1946014404296875],[0.0016190083821614584,-0.1946014404296875],[0.0016190083821614584,-0.1946014404296875],[0.0016190083821614584,-0.1946014404296875],[0.0016190083821614584,-0.1946014404296875],[0.0016190083821614584,-0.1946014404296875],[0.0016190083821614584,-0.1946014404296875],[0.0016190083821614584,-0.1946014404296875],[0.0016190083821614584,-0.1946014404296875],[0.0016190083821614584,-0.1946014404296875],[0.0016190083821614584,-0.1946014404296875],[0.0016190083821614584,-0.1946014404296875],[0.0016190083821614584,-0.1946014404296875],[0.0016190083821614584,-0.1946014404296875],[0.0016190083821614584,-0.1946014404296875],[0.0016190083821614584,-0.1946014404296875],[0.0016190083821614584,-0.1946014404296875],[0.0016190083821614584,-0.1946014404296875],[0.0016190083821614584,-0.1946014404296875],[0.0016190083821614584,-0.1946014404296875],[0.0016190083821614584,-0.1946014404296875],[0.0016190083821614584,-0.1946014404296875],[0.0016190083821614584,-0.1946014404296875],[0.0016190083821614584,-0.1946014404296875],[0.0016190083821614584,-0.1946014404296875],[0.0016190083821614584,-0.1946014404296875],[0.0016190083821614584,-0.1946014404296875],[0.0016190083821614584,-0.1946014404296875],[0.0016190083821614584,-0.1946014404296875],[0.0016190083821614584,-0.1946014404296875],[0.0016190083821614584,-0.1946014404296875],[0.0016190083821614584,-0.1946014404296875],[0.0016190083821614584,-0.1946014404296875],[0.0016190083821614584,-0.1946014404296875],[0.0016190083821614584,-0.1946014404296875],[0.0016190083821614584,-0.1946014404296875],[0.0016190083821614584,-0.1946014404296875],[0.0016190083821614584,-0.1946014404296875],[0.0016190083821614584,-0.1946014404296875],[0.0016190083821614584,-0.1946014404296875],[0.0016190083821614584,-0.1946014404296875],[0.0016190083821614584,-0.1946014404296875],[0.0016190083821614584,-0.1946014404296875],[0.0016190083821614584,-0.1946014404296875],[0.0016190083821614584,-0.1946014404296875],[0.0016190083821614584,-0.1946014404296875],[0.0016190083821614584,-0.1946014404296875],[0.0016190083821614584,-0.1946014404296875],[0.0016190083821614584,-0.1946014404296875],[0.0016190083821614584,-0.1946014404296875],[0.0016190083821614584,-0.1946014404296875],[0.0016190083821614584,-0.1946014404296875],[0.0016190083821614584,-0.1946014404296875],[0.0016190083821614584,-0.1946014404296875],[0.0016190083821614584,-0.1946014404296875],[0.0016190083821614584,-0.1946014404296875],[0.0016190083821614584,-0.1946014404296875],[0.0016190083821614584,-0.1946014404296875],[0.0016190083821614584,-0.1946014404296875],[0.0016190083821614584,-0.1946014404296875],[0.0016190083821614584,-0.1946014404296875],[0.0016190083821614584,-0.1946014404296875],[0.0016190083821614584,-0.1946014404296875],[0.0016190083821614584,-0.1946014404296875],[0.0016190083821614584,-0.1946014404296875],[0.0016190083821614584,-0.1946014404296875],[0.0016190083821614584,-0.1946014404296875],[0.0016190083821614584,-0.1946014404296875],[0.0016190083821614584,-0.1946014404296875],[0.0016190083821614584,-0.1946014404296875],[0.0016190083821614584,-0.1946014404296875],[0.0016190083821614584,-0.1946014404296875],[0.0016190083821614584,-0.1946014404296875],[0.0016190083821614584,-0.1946014404296875],[0.0016190083821614584,-0.1946014404296875],[0.0016190083821614584,-0.1946014404296875],[0.0016190083821614584,-0.1946014404296875],[0.0016190083821614584,-0.1946014404296875],[0.0016190083821614584,-0.1946014404296875],[0.0016190083821614584,-0.1946014404296875],[0.0016190083821614584,-0.1946014404296875],[0.0016190083821614584,-0.1946014404296875],[0.0016190083821614584,-0.1946014404296875],[0.0016190083821614584,-0.1946014404296875],[0.0016190083821614584,-0.1946014404296875],[0.0016190083821614584,-0.1946014404296875],[0.0016190083821614584,-0.1946014404296875],[0.0016190083821614584,-0.1946014404296875],[0.0016190083821614584,-0.1946014404296875],[0.0016190083821614584,-0.1946014404296875],[0.0016190083821614584,-0.1946014404296875],[0.0016190083821614584,-0.1946014404296875],[0.0016190083821614584,-0.1946014404296875],[0.0016190083821614584,-0.1946014404296875],[0.0016190083821614584,-0.1946014404296875],[0.0016190083821614584,-0.1946014404296875],[0.0016190083821614584,-0.1946014404296875],[0.0016190083821614584,-0.1946014404296875],[0.0016190083821614584,-0.1946014404296875],[0.0016190083821614584,-0.1946014404296875],[0.0016190083821614584,-0.1946014404296875],[0.0016190083821614584,-0.1946014404296875],[0.0016190083821614584,-0.1946014404296875],[0.0016190083821614584,-0.1946014404296875],[0.0016190083821614584,-0.1946014404296875],[0.0016190083821614584,-0.1946014404296875],[0.0016190083821614584,-0.1946014404296875],[0.0016190083821614584,-0.1946014404296875],[0.0016190083821614584,-0.1946014404296875],[0.0016190083821614584,-0.1946014404296875],[0.0016190083821614584,-0.1946014404296875],[0.0016190083821614584,-0.1946014404296875],[0.0016190083821614584,-0.1946014404296875],[0.0016190083821614584,-0.1946014404296875],[0.0016190083821614584,-0.1946014404296875],[0.0016190083821614584,-0.1946014404296875],[0.0016190083821614584,-0.1946014404296875],[0.0016190083821614584,-0.1946014404296875],[0.0016190083821614584,-0.1946014404296875],[0.0016190083821614584,-0.1946014404296875],[0.0016190083821614584,-0.1946014404296875],[0.0016190083821614584,-0.1946014404296875],[0.0016190083821614584,-0.1946014404296875],[0.0016190083821614584,-0.1946014404296875],[0.0016190083821614584,-0.1946014404296875],[0.0016190083821614584,-0.1946014404296875],[0.0016190083821614584,-0.1946014404296875],[0.0016190083821614584,-0.1946014404296875],[0.0016190083821614584,-0.1946014404296875],[0.0016190083821614584,-0.19443517049153647],[0.0019701131184895835,-0.19320770263671874],[0.003746287027994792,-0.19054341634114583],[0.005708821614583333,-0.1870623779296875],[0.012015228271484374,-0.17886403401692708],[0.01390716552734375,-0.17634145100911458],[0.019326985677083332,-0.17019734700520833],[0.029212595621744792,-0.15804484049479167],[0.03491536458333333,-0.15234207153320312],[0.04448079427083333,-0.14277664184570313],[0.05348124186197917,-0.13459442138671876],[0.06477732340494792,-0.12594136555989582],[0.07755076090494792,-0.11681747436523438],[0.0927490234375,-0.10655924479166666],[0.10719014485677084,-0.09696334838867188],[0.12968546549479168,-0.08233347574869791],[0.13698465983072916,-0.07868392944335938],[0.15309326171875,-0.06861602783203125],[0.16769144694010416,-0.06131693522135417],[0.1815772501627604,-0.053602498372395835],[0.19230987548828124,-0.047780049641927086],[0.20304239908854166,-0.04195760091145833],[0.2126904296875,-0.036818288167317706],[0.22138214111328125,-0.03392105102539063],[0.23248362223307292,-0.02921478271484375],[0.2476592000325521,-0.024303995768229166],[0.2587937418619792,-0.02112269083658854],[0.2702488199869792,-0.017849833170572916],[0.28327555338541666,-0.014388580322265625],[0.29945536295572917,-0.010296732584635416],[0.31091054280598956,-0.007023874918619792],[0.327652587890625,-0.002083079020182292],[0.34225077311197916,0.00156646728515625]],[[-0.005457712809244792,-0.19142120361328124],[-0.005457712809244792,-0.19142120361328124],[-0.005457712809244792,-0.19142120361328124],[-0.005457712809244792,-0.19142120361328124],[-0.005457712809244792,-0.19142120361328124],[-0.005457712809244792,-0.19142120361328124],[-0.005457712809244792,-0.19142120361328124],[-0.005457712809244792,-0.19142120361328124],[-0.005457712809244792,-0.19142120361328124],[-0.005457712809244792,-0.19142120361328124],[-0.005457712809244792,-0.19142120361328124],[-0.005457712809244792,-0.19142120361328124],[-0.005457712809244792,-0.19142120361328124],[-0.005625101725260416,-0.19142120361328124],[-0.0072156778971354165,-0.19142120361328124],[-0.009738260904947917,-0.18889862060546875],[-0.014783376057942709,-0.1851147969563802],[-0.030831400553385416,-0.1690667724609375],[-0.049502360026041664,-0.15168726603190105],[-0.06712554931640625,-0.1362670389811198],[-0.08298467000325521,-0.12251612345377604],[-0.0980865987141927,-0.11144139607747396],[-0.11328486124674479,-0.10027079264322916],[-0.1301508076985677,-0.08862813313802083],[-0.1481181844075521,-0.0769854736328125],[-0.16574137369791667,-0.0626666768391927],[-0.18965484619140624,-0.04498326619466146],[-0.20242823282877603,-0.03677179972330729],[-0.20881495157877605,-0.03220987955729167],[-0.22011098225911457,-0.024469197591145832],[-0.23207860310872397,-0.016848958333333334],[-0.23822270711263022,-0.012059783935546875],[-0.24499750773111978,-0.007270609537760417],[-0.2500426228841146,-0.003486785888671875],[-0.25681742350260417,0.0013023885091145834],[-0.2642493184407552,0.006467234293619791],[-0.2703934733072917,0.011887054443359375],[-0.27839182535807294,0.01806060791015625],[-0.2892564900716146,0.02675237019856771],[-0.29540064493815105,0.03217219034830729],[-0.30107640584309897,0.03658671061197916],[-0.30469797770182294,0.03948394775390625],[-0.31462595621744793,0.046165059407552084],[-0.320301767985026,0.05057952880859375],[-0.324156494140625,0.053359578450520834],[-0.32689310709635416,0.05459874471028646],[-0.3271514892578125,0.054857177734375],[-0.3271514892578125,0.054857177734375]]]",2,"[164,48]",,,,,,,,,,,,,,volleyballcourt4.jpg,space,15.4436,0,1,1,93,1,tollbooth8.jpg,staircase4.jpg,warehouseoutside2.jpg,tenniscourt.jpg,,
Image_List_2,,,,,,,,,,,,,,,,46617,2022-03-01_15h52.24.293,analogCatScenes,2020.1.3,MacIntel,60,"[1920,1200]","[[[0.0011366780598958334,-0.1964624532063802],[0.0011366780598958334,-0.1964624532063802],[0.0011366780598958334,-0.1964624532063802],[0.0011366780598958334,-0.1964624532063802],[0.0011366780598958334,-0.1964624532063802],[-0.0061956787109375,-0.1964624532063802],[-0.017840677897135417,-0.1964624532063802],[-0.06725372314453125,-0.1964624532063802],[-0.08614115397135416,-0.1964624532063802],[-0.11479888916015625,-0.1964624532063802],[-0.14803431193033853,-0.1964624532063802],[-0.16439458211263022,-0.1964624532063802],[-0.1708893330891927,-0.1964624532063802],[-0.1839269002278646,-0.1964624532063802],[-0.19437922159830728,-0.19428878784179687],[-0.20301045735677084,-0.1906635538736979],[-0.20515935262044271,-0.1895891316731771],[-0.2156493631998698,-0.1826270039876302],[-0.22195576985677085,-0.17884318033854166],[-0.22700093587239584,-0.17505930582682291],[-0.23456863403320313,-0.16812225341796874],[-0.23709121704101563,-0.16623031616210937],[-0.24197662353515625,-0.16134490966796874],[-0.245760498046875,-0.15629974365234375],[-0.24980127970377605,-0.1494794209798177],[-0.2514129130045573,-0.14518168131510417],[-0.25302459716796877,-0.14088389078776042],[-0.25554712931315104,-0.13142425537109376],[-0.25708964029947917,-0.12135080973307291],[-0.2580964152018229,-0.10913645426432292],[-0.2580964152018229,-0.09691411336263021],[-0.2580964152018229,-0.08684066772460937],[-0.25592351277669273,-0.07814890543619792],[-0.2508783976236979,-0.06868927001953125],[-0.24646387736002603,-0.06301350911458334],[-0.2426800537109375,-0.05796834309895833],[-0.240157470703125,-0.05607640584309896],[-0.2369341532389323,-0.05285308837890625],[-0.2321209716796875,-0.050002492268880205],[-0.22863993326822918,-0.04848398844401042],[-0.22597564697265626,-0.04759592692057291],[-0.2226091512044271,-0.046707865397135416],[-0.22127700805664063,-0.046263783772786456],[-0.21861272176106772,-0.04581975301106771],[-0.2151316833496094,-0.04528254191080729],[-0.206488037109375,-0.04348378499348959],[-0.1986116027832031,-0.04212839762369792],[-0.18991984049479166,-0.04067977905273437],[-0.180460205078125,-0.03815724690755208],[-0.17616241455078124,-0.03708282470703125],[-0.17134928385416667,-0.03512029012044271],[-0.16705149332682293,-0.032971394856770836],[-0.16238006591796875,-0.030005035400390626],[-0.15292043050130208,-0.024959920247395833],[-0.14724461873372396,-0.021176045735677083],[-0.14409138997395834,-0.019284159342447916],[-0.1377849833170573,-0.016130930582682293],[-0.1299603271484375,-0.011272684733072916],[-0.12528884887695313,-0.0083062744140625],[-0.12061737060546875,-0.0053399658203125],[-0.11685684204101562,-0.0026538594563802085],[-0.1086584981282552,0.0023912556966145834],[-0.09858505249023437,0.007018890380859375],[-0.08278401692708333,0.013376820882161458],[-0.06642379760742187,0.020141194661458334],[-0.050063527425130205,0.02589869181315104],[-0.029987894694010416,0.03212875366210938],[-0.002804463704427083,0.04018310546875],[0.015317840576171875,0.04421030680338542],[0.025414225260416666,0.04657669067382812],[0.04278676350911458,0.04994400024414063],[0.05147852579752604,0.05211690266927083],[0.06213083902994792,0.053471883138020836],[0.07377573649088541,0.05510854085286458],[0.08027048746744792,0.05709442138671875],[0.09367757161458333,0.059832305908203126],[0.10451812744140625,0.061818135579427086],[0.11616312662760417,0.06436721801757812],[0.12265787760416667,0.06490442911783854],[0.13311014811197916,0.0667291768391927],[0.14690399169921875,0.06927825927734375],[0.1569774373372396,0.07154510498046875],[0.16882242838541667,0.07362436930338542],[0.1763215128580729,0.07570360819498698],[0.18362823486328125,0.07765711466471355],[0.1911273193359375,0.07964271545410156],[0.2015704345703125,0.08353022257486979],[0.21321533203125,0.0868036142985026],[0.2246705118815104,0.0908947245279948],[0.23039815266927083,0.0925311787923177],[0.24619913736979165,0.0988891092936198],[0.25407562255859373,0.102418212890625],[0.262767333984375,0.10676406860351563],[0.27461232503255206,0.11300186157226562],[0.2809186808268229,0.11552441914876302]]]",1,[95],,,,,,,,,,,,,,casino3.jpg,space,3.2407,0,2,2,19,1,boardwalk2.jpg,cafeteria1.jpg,castle4.jpg,basketballcourt.jpg,,
Image_List_2,,,,,,,,,,,,,,,,46617,2022-03-01_15h52.24.293,analogCatScenes,2020.1.3,MacIntel,60,"[1920,1200]","[[[-0.0019055684407552084,-0.1881291707356771],[-0.0019055684407552084,-0.1881291707356771],[-0.0019055684407552084,-0.1881291707356771],[0.002822621663411458,-0.1881291707356771],[0.01316558837890625,-0.1881291707356771],[0.05770751953125,-0.1881291707356771],[0.0964923095703125,-0.18535542805989583],[0.11399800618489583,-0.18031778971354168],[0.13687479654947918,-0.1656854248046875],[0.14096588134765625,-0.16077611287434895],[0.1447752888997396,-0.15070266723632814],[0.14559346516927082,-0.1406292215983073],[0.14559346516927082,-0.11696985880533854],[0.14559346516927082,-0.09865631103515625],[0.14559346516927082,-0.09135721842447916],[0.14559346516927082,-0.07304361979166667],[0.14395701090494792,-0.05686375935872396],[0.14105977376302084,-0.0481719970703125],[0.13809346516927085,-0.04286992390950521],[0.13395914713541668,-0.03873565673828125],[0.1295714314778646,-0.0347662353515625],[0.12868326822916668,-0.03343409220377604],[0.12727884928385416,-0.03202962239583333],[0.1266693115234375,-0.031068979899088543]],[[-0.00036412556966145833,-0.19916666666666666],[-0.00036412556966145833,-0.19916666666666666],[-0.00036412556966145833,-0.19916666666666666],[-0.00036412556966145833,-0.19916666666666666],[-0.00036412556966145833,-0.19916666666666666],[-0.00036412556966145833,-0.19916666666666666],[-0.0005366007486979166,-0.19916666666666666],[-0.015134785970052083,-0.19916666666666666],[-0.024195963541666667,-0.19916666666666666],[-0.055191752115885416,-0.19916666666666666],[-0.11765279134114583,-0.19916666666666666],[-0.14570724487304687,-0.19916666666666666],[-0.17923467000325521,-0.1924230448404948],[-0.2043579610188802,-0.18404861450195312],[-0.2308203125,-0.1721551513671875],[-0.23811940511067708,-0.16850565592447916],[-0.24450612386067708,-0.16394368489583333],[-0.25727951049804687,-0.15481984456380207],[-0.27018575032552083,-0.1433624776204427],[-0.27918619791666666,-0.13599843343098958],[-0.2853303527832031,-0.13120925903320313],[-0.2889763895670573,-0.1288024393717448],[-0.28923482259114586,-0.1288024393717448]]]",2,"[24,23]",,,,,,,,,,,,,,waitingroom3.jpg,space,2.7694,0,3,3,94,1,treehouse.jpg,staircase6.jpg,weightroom.jpg,trainStation3.jpg,,
Image_List_2,,,,,,,,,,,,,,,,46617,2022-03-01_15h52.24.293,analogCatScenes,2020.1.3,MacIntel,60,"[1920,1200]","[[[0.0068799845377604165,-0.19898783365885417],[0.0068799845377604165,-0.19898783365885417],[0.0068799845377604165,-0.19898783365885417],[0.0068799845377604165,-0.19898783365885417],[0.0068799845377604165,-0.19898783365885417],[0.0068799845377604165,-0.19898783365885417],[0.0068799845377604165,-0.19898783365885417],[0.0068799845377604165,-0.19898783365885417],[0.004998575846354166,-0.19791671752929688],[-0.0060808817545572914,-0.18611287434895835],[-0.010172017415364583,-0.18202178955078124],[-0.018168894449869792,-0.17402486165364583],[-0.026351165771484376,-0.16584264119466147],[-0.03488204956054688,-0.15967249552408855],[-0.044447530110677085,-0.15010706583658853],[-0.05788177490234375,-0.1395043436686198],[-0.082552490234375,-0.12024622599283855],[-0.1023785400390625,-0.10813028971354166],[-0.11848724365234375,-0.09806238810221354],[-0.13384068806966146,-0.08937886555989584],[-0.15649322509765626,-0.07704579671223959],[-0.1655536397298177,-0.07301895141601562],[-0.18452784220377605,-0.06348454793294271],[-0.21561793009440103,-0.05174723307291667],[-0.23569356282552084,-0.04551717122395833],[-0.24790791829427083,-0.04186614990234375],[-0.2642209879557292,-0.03884282430013021],[-0.28002197265625,-0.035757802327473956],[-0.28752105712890624,-0.03367853800455729],[-0.2959764099121094,-0.03008153279622396],[-0.2986406962076823,-0.02830535888671875],[-0.30023127237955727,-0.02760289510091146],[-0.3009334818522135,-0.02699335734049479],[-0.3009334818522135,-0.026779276529947917]],[[0.008097178141276041,-0.1998737589518229],[0.008097178141276041,-0.1998737589518229],[0.008097178141276041,-0.1998737589518229],[0.008097178141276041,-0.1998737589518229],[0.008097178141276041,-0.1998737589518229],[0.008097178141276041,-0.1998737589518229],[0.008097178141276041,-0.19472249348958334],[0.008097178141276041,-0.1693010965983073],[0.008097178141276041,-0.14211761474609375],[0.008097178141276041,-0.13066248575846354],[0.008097178141276041,-0.11763580322265625],[0.008097178141276041,-0.10618067423502604],[0.010902964274088541,-0.09540496826171875],[0.014243520100911459,-0.0879058837890625],[0.01837773640950521,-0.08377166748046876],[0.026376088460286457,-0.07759806315104166],[0.040166219075520836,-0.0699785868326823],[0.05146230061848958,-0.06305613199869792],[0.060343119303385415,-0.05870956420898438],[0.07579091389973959,-0.05103281656901042],[0.08328999837239583,-0.047598622639973956],[0.0945001220703125,-0.043503824869791666],[0.10752675374348958,-0.04004262288411458],[0.12332773844401042,-0.03695755004882813],[0.13635447184244792,-0.03522694905598958],[0.143653564453125,-0.0343145751953125],[0.16555084228515626,-0.032489776611328125],[0.1801490275065104,-0.029752604166666665],[0.19474721272786458,-0.0279278564453125],[0.20519948323567708,-0.025754191080729166],[0.21389119466145834,-0.02358123779296875],[0.2181889851888021,-0.022506815592447917]]]",2,"[34,32]",,,,,,,,,,,,,,farm1.jpg,space,3.1502,0,4,4,40,1,drycleaners4.jpg,drymountains.jpg,dugout1.jpg,clothingstore3.jpg,,
Image_List_2,,,,,,,,,,,,,,,,46617,2022-03-01_15h52.24.293,analogCatScenes,2020.1.3,MacIntel,60,"[1920,1200]","[[[-0.0020684305826822917,-0.2001776123046875],[-0.0020684305826822917,-0.2001776123046875],[-0.0020684305826822917,-0.2001776123046875],[-0.0020684305826822917,-0.2001776123046875],[-0.0020684305826822917,-0.2001776123046875],[-0.0020684305826822917,-0.2001776123046875],[-0.0020684305826822917,-0.2001776123046875],[-0.0020684305826822917,-0.2001776123046875],[-0.0020684305826822917,-0.2001776123046875],[-0.0020684305826822917,-0.2001776123046875],[-0.0020684305826822917,-0.2001776123046875],[-0.0020684305826822917,-0.2001776123046875],[-0.0020684305826822917,-0.2001776123046875],[-0.0020684305826822917,-0.2001776123046875],[-0.0020684305826822917,-0.2001776123046875],[-0.0020684305826822917,-0.2001776123046875],[-0.0020684305826822917,-0.2001776123046875],[-0.004385986328125,-0.19910319010416666],[-0.01053009033203125,-0.1943140157063802],[-0.02953455607096354,-0.1781413777669271],[-0.038630472819010414,-0.16976979573567708],[-0.04716135660807292,-0.1627814229329427],[-0.054006245930989585,-0.1566608683268229],[-0.05533833821614583,-0.15399658203125],[-0.05667048136393229,-0.15000015258789062],[-0.05667048136393229,-0.1473358662923177],[-0.05667048136393229,-0.1446715799967448],[-0.05667048136393229,-0.14182047526041666],[-0.05533833821614583,-0.13826807657877604],[-0.049662577311197914,-0.1344842529296875],[-0.042163492838541664,-0.13114369710286458],[-0.037817586263020835,-0.12969507853190104],[-0.017491861979166665,-0.1234967041015625],[-0.0028936767578125,-0.12075953165690104],[0.013466593424479166,-0.11792795817057292],[0.031588897705078126,-0.11692118326822917],[0.05361785888671875,-0.11581975301106771],[0.07993743896484375,-0.1146234130859375],[0.11093332926432292,-0.1133319091796875],[0.14446075439453124,-0.1133319091796875],[0.19095448811848958,-0.1133319091796875],[0.21961222330729166,-0.1133319091796875],[0.23062672932942707,-0.1133319091796875],[0.2679608154296875,-0.1133319091796875],[0.2880364990234375,-0.1133319091796875],[0.299681396484375,-0.1133319091796875],[0.3113263956705729,-0.1133319091796875],[0.3199699910481771,-0.1133319091796875],[0.3228211466471354,-0.1133319091796875],[0.32492787679036456,-0.1133319091796875],[0.3254447428385417,-0.1133319091796875],[0.325703125,-0.11359034220377605],[0.325703125,-0.11380503336588542],[0.32591725667317706,-0.11401911417643229]]]",1,[54],,,,,,,,,,,,,,firestation3.jpg,space,2.9407,0,5,5,42,1,exerciseequipment3.jpg,drymountains6.jpg,farm4.jpg,desertvegetation2.jpg,,
Image_List_2,,,,,,,,,,,,,,,,46617,2022-03-01_15h52.24.293,analogCatScenes,2020.1.3,MacIntel,60,"[1920,1200]","[[[0.00341278076171875,-0.20167648315429687],[0.00341278076171875,-0.20167648315429687],[0.00341278076171875,-0.20167648315429687],[0.00341278076171875,-0.20167648315429687],[0.00341278076171875,-0.20167648315429687],[0.00341278076171875,-0.19401270548502605],[0.00341278076171875,-0.18356038411458334],[0.009453531901041666,-0.1581389872233073],[0.02109619140625,-0.14127309163411458],[0.03796213785807292,-0.12963043212890624],[0.05703094482421875,-0.12019068400065104],[0.07911875406901042,-0.1109716796875],[0.08484639485677083,-0.10851699829101563],[0.09546162923177083,-0.10155721028645834],[0.10219940185546875,-0.09629302978515625],[0.10715108235677083,-0.08846837361653646],[0.11049163818359375,-0.08096928914388021],[0.11659586588541666,-0.06794260660807291],[0.12068705240885416,-0.0564874267578125],[0.12578470865885416,-0.037733205159505206],[0.12723347981770833,-0.02885243733723958],[0.12877604166666667,-0.01877899169921875],[0.130224609375,-0.0057413736979166664],[0.13157958984375,0.0017577107747395833],[0.13284088134765626,0.008064168294270833],[0.1345458984375,0.013366241455078125],[0.13669474283854166,0.01981292724609375],[0.1396611531575521,0.025115000406901043],[0.14510701497395834,0.03437021891276042],[0.14875651041666665,0.040756937662760416],[0.1598652140299479,0.05715189615885417],[0.16603535970052083,0.06568277994791667],[0.16944600423177084,0.06953750610351563],[0.17040669759114582,0.07023976643880209]],[[-0.004279327392578125,-0.19486373901367188],[-0.004279327392578125,-0.19486373901367188],[-0.004279327392578125,-0.19486373901367188],[-0.004279327392578125,-0.19486373901367188],[-0.004647013346354167,-0.19486373901367188],[-0.019245198567708333,-0.19486373901367188],[-0.045757598876953125,-0.19486373901367188],[-0.08129277547200521,-0.190703125],[-0.10761240641276042,-0.18352503458658853],[-0.12397267659505208,-0.17968668619791667],[-0.13876139322916667,-0.17767308553059896],[-0.1545624287923177,-0.1768548583984375],[-0.16601755777994792,-0.1768548583984375],[-0.18339009602864584,-0.1768548583984375],[-0.19641677856445314,-0.1768548583984375],[-0.2094434611002604,-0.1768548583984375],[-0.2283875020345052,-0.17503011067708332],[-0.2414141845703125,-0.1698382568359375],[-0.2541875712076823,-0.16162679036458333],[-0.2630968729654948,-0.1554546610514323],[-0.2779192097981771,-0.1455731201171875],[-0.2844402567545573,-0.13987030029296876],[-0.29142862955729165,-0.13215764363606772],[-0.2974547831217448,-0.1261314900716146],[-0.3012153116861979,-0.1234453837076823],[-0.3025474548339844,-0.12300135294596354],[-0.3052117411295573,-0.12255727132161458],[-0.31184600830078124,-0.12255727132161458],[-0.315980224609375,-0.12669153849283854]]]",2,"[34,29]",,,,,,,,,,,,,,basketballcourt4.jpg,space,2.9194,0,6,6,11,1,backyard2.jpg,bambooforest3.jpg,baywindow5.jpg,backyard1.jpg,,
Image_List_2,,,,,,,,,,,,,,,,46617,2022-03-01_15h52.24.293,analogCatScenes,2020.1.3,MacIntel,60,"[1920,1200]","[[[0.0013311767578125,-0.2037671915690104],[0.0013311767578125,-0.2037671915690104],[0.0013311767578125,-0.2037671915690104],[0.0013311767578125,-0.2037671915690104],[0.0013311767578125,-0.2037671915690104],[0.0013311767578125,-0.2035936991373698],[0.0013311767578125,-0.18899551391601563],[0.0013311767578125,-0.1748278299967448],[0.003155975341796875,-0.1474531046549479],[0.00636566162109375,-0.12737747192382812],[0.00948089599609375,-0.10906387329101562],[0.011683807373046876,-0.09804941813151041],[0.015616811116536459,-0.07067469278971354],[0.017914581298828124,-0.04650039672851562],[0.019928181966145833,-0.028378092447916666],[0.022854410807291666,-0.010064493815104167],[0.025685933430989582,0.006295725504557292],[0.03418065388997396,0.029955088297526043],[0.0378302001953125,0.03725418090820312],[0.04512929280598958,0.05185236612955729],[0.0506707763671875,0.06076161702473958],[0.0597381591796875,0.07291412353515625],[0.06515797932942709,0.0790582275390625],[0.06929219563802083,0.08319244384765626],[0.07251546223958333,0.08641576131184896],[0.0747357177734375,0.08863601684570313],[0.07677012125651042,0.08987520853678385],[0.07887685139973959,0.09198191324869792],[0.0815411376953125,0.09375808715820312],[0.08287322998046875,0.09464617411295573],[0.08754475911458333,0.09761253356933594],[0.09436503092447916,0.10165334065755208],[0.0981256103515625,0.10433942159016928],[0.10188608805338542,0.10702550252278646],[0.1063006591796875,0.11144002278645833],[0.10980417887369792,0.11557423909505209],[0.11330780029296875,0.11970845540364583],[0.11608784993489583,0.1235631815592448],[0.11931162516276042,0.13019742329915365],[0.12266011555989584,0.1428296407063802],[0.12524312337239582,0.15832758585611978],[0.12735188802083333,0.17878646850585939],[0.13075307210286458,0.20001197814941407],[0.13349039713541666,0.22209981282552083],[0.13493927001953124,0.23098058064778645],[0.13601369222005208,0.2352783711751302],[0.1369017537434896,0.23794265747070312],[0.1369017537434896,0.23934712727864582],[0.1372529093424479,0.24030776977539062],[0.13751129150390626,0.2408246358235677],[0.13798441569010417,0.24108306884765626]]]",1,[51],,,,,,,,,,,,,,barbershop3.jpg,space,1.898,0,7,7,10,1,backstage2.jpg,ballroom4.jpg,basketballcourt3.jpg,ATM4.jpg,,
Image_List_2,,,,,,,,,,,,,,,,46617,2022-03-01_15h52.24.293,analogCatScenes,2020.1.3,MacIntel,60,"[1920,1200]","[[[-0.00256195068359375,-0.19640899658203126],[-0.00256195068359375,-0.19640899658203126],[-0.00256195068359375,-0.19640899658203126],[-0.00256195068359375,-0.19640899658203126],[-0.00256195068359375,-0.19640899658203126],[-0.00256195068359375,-0.19640899658203126],[0.002306671142578125,-0.19640899658203126],[0.00665252685546875,-0.19640899658203126],[0.023864644368489583,-0.1881646219889323],[0.061998087565104165,-0.167255859375],[0.10303670247395834,-0.1420012919108073],[0.1456536865234375,-0.11674672444661459],[0.17035074869791667,-0.10339146931966146],[0.20853495279947917,-0.07626200358072917],[0.2246436564127604,-0.06619405110677083],[0.23088521321614583,-0.0620330810546875],[0.24101969401041667,-0.05510823567708333],[0.24291158040364583,-0.05258565266927084],[0.24585540771484374,-0.05008590698242187],[0.24744578043619792,-0.048051554361979165],[0.24992411295572917,-0.04468500773111979],[0.25062642415364583,-0.043280537923177084],[0.25151448567708334,-0.04061625162760417],[0.25186564127604166,-0.03991404215494792],[0.2523096720377604,-0.03654749552408854],[0.2523096720377604,-0.03306645711263021],[0.24978708902994792,-0.02739069620768229],[0.23990142822265625,-0.016056416829427083],[0.238289794921875,-0.014444783528645833],[0.23057708740234376,-0.007456410725911459],[0.22286448160807293,-0.0004680379231770833],[0.2130987548828125,0.007849019368489583],[0.20648508707682292,0.01383209228515625],[0.1979541015625,0.020820465087890625],[0.19089589436848958,0.025167795817057293],[0.17163157145182292,0.0353033447265625],[0.16155812581380208,0.039112752278645836],[0.153681640625,0.041823628743489584],[0.14045491536458332,0.046169942220052086],[0.1341485595703125,0.04869252522786458],[0.12784210205078125,0.05058441162109375],[0.1235443115234375,0.052196044921875],[0.11709767659505209,0.055419362386067705],[0.11443339029947917,0.05675150553385417],[0.11239898681640625,0.05799072265625],[0.11178944905598959,0.05895136515299479],[0.11153106689453125,0.05972666422526041],[0.11153106689453125,0.061131134033203124],[0.11197509765625,0.06386774698893229],[0.1153857421875,0.06709182739257813],[0.120430908203125,0.07087565104166667],[0.12510233561197917,0.07384201049804688],[0.1333006795247396,0.07888715108235678],[0.13759847005208334,0.08103602091471354],[0.14107950846354167,0.08255449930826823],[0.1424116007486979,0.08344258626302083],[0.1464080810546875,0.08610684712727865],[0.1484423828125,0.0876971689860026],[0.15047678629557293,0.08928749084472656],[0.15213968912760417,0.09059926350911458],[0.15239817301432293,0.09085769653320312],[0.1529150390625,0.09111612955729166],[0.1529150390625,0.09111612955729166],[0.1529150390625,0.0913141123453776],[0.1529150390625,0.09150416056315104],[0.15221272786458334,0.09211369832356771],[0.15006388346354166,0.09318814595540365],[0.1368372599283854,0.09825879414876303],[0.12223907470703126,0.10373311360677083],[0.11335825602213542,0.10744906107584636],[0.101903076171875,0.11072194417317709],[0.08886545817057291,0.1150677998860677],[0.08313791910807292,0.11752248128255208],[0.07664316813151041,0.11950831095377604],[0.0649981689453125,0.12296976725260417],[0.05277587890625,0.12712926228841145],[0.04527679443359375,0.12983917236328124],[0.03878204345703125,0.13236221313476562],[0.0344842529296875,0.13397384643554688],[0.031819966634114585,0.1357500203450521],[0.029155680338541667,0.13752619425455728],[0.0257891845703125,0.14000462849934897],[0.02438471476236979,0.14105796813964844],[0.023789723714192707,0.14198954264322916],[0.023789723714192707,0.14246292114257814],[0.023789723714192707,0.14246292114257814],[0.023789723714192707,0.14246292114257814],[0.02404815673828125,0.14264811197916666],[0.031058298746744793,0.14498484293619793],[0.03993906656901042,0.14788253784179686],[0.05139424641927083,0.15033721923828125],[0.065992431640625,0.1530743662516276],[0.08079060872395834,0.15534169514973958],[0.08513651529947917,0.15534169514973958],[0.09144287109375,0.1559723409016927],[0.0967449951171875,0.1559723409016927],[0.10319163004557291,0.15650955200195313],[0.10849375406901042,0.15704676310221355],[0.11279154459635417,0.15758397420247397],[0.11476552327473959,0.15793507893880207],[0.11572611490885416,0.15793507893880207],[0.11624308268229167,0.15793507893880207]]]",1,[102],,,,,,,,,,,,,,yogastudio4.jpg,space,2.9802,0,8,8,99,1,wineVineyard9.jpg,windmill2.jpg,wrestlingring7.jpg,yogastudio1.jpg,,
Image_List_2,,,,,,,,,,,,,,,,46617,2022-03-01_15h52.24.293,analogCatScenes,2020.1.3,MacIntel,60,"[1920,1200]","[[[0.00409912109375,-0.19394734700520833],[0.00409912109375,-0.19394734700520833],[0.00409912109375,-0.19394734700520833],[0.00409912109375,-0.19394734700520833],[0.0035428873697916667,-0.19394734700520833],[-0.010624796549479166,-0.19394734700520833],[-0.02893834431966146,-0.18973058064778645],[-0.05415924072265625,-0.17996877034505207],[-0.09007471720377604,-0.1613654581705729],[-0.12450764973958334,-0.13979705810546875],[-0.14233194986979167,-0.12619222005208333],[-0.16405843098958334,-0.10944163004557292],[-0.17467061360677083,-0.09964772542317708],[-0.1765625,-0.09649449666341146],[-0.18015950520833332,-0.09182301839192708],[-0.18293955485026042,-0.08796834309895833],[-0.18698033650716145,-0.08051737467447917],[-0.19076416015625,-0.07484156290690104],[-0.197001953125,-0.06299662272135417],[-0.20015513102213542,-0.05669016520182291],[-0.2020470682779948,-0.05038375854492187],[-0.20302831013997397,-0.04557057698567708],[-0.20302831013997397,-0.04290629069010417],[-0.20302831013997397,-0.04024200439453125],[-0.20302831013997397,-0.03575663248697917],[-0.19814549763997397,-0.02391169230143229],[-0.19386606852213542,-0.010885009765625],[-0.19005447387695312,-0.00143707275390625],[-0.18841801961263022,0.004290517171223958],[-0.18234181722005208,0.018709818522135418],[-0.1774317423502604,0.030354817708333332]]]",1,[31],,,,,,,,,,,,,,farm3.jpg,space,3.1135,0,9,9,41,1,dugout4.jpg,drymountains3.jpg,fabricstore1.jpg,dentist2.jpg,,
Image_List_2,,,,,,,,,,,,,,,,46617,2022-03-01_15h52.24.293,analogCatScenes,2020.1.3,MacIntel,60,"[1920,1200]","[[[0.0042525736490885415,-0.19335474650065104],[0.0042525736490885415,-0.19335474650065104],[0.0042525736490885415,-0.19335474650065104],[0.0042525736490885415,-0.19335474650065104],[0.0042525736490885415,-0.19255091349283854],[0.0042525736490885415,-0.1244171142578125],[0.0042525736490885415,-0.11125732421875],[0.0042525736490885415,-0.044025726318359375],[0.0042525736490885415,-0.0029056294759114585],[0.0042525736490885415,0.06014032999674479],[0.0042525736490885415,0.08431462605794271],[0.0042525736490885415,0.10243693033854166],[0.0042525736490885415,0.11761245727539063],[0.0042525736490885415,0.12391891479492187],[0.0042525736490885415,0.1263262176513672],[0.0042525736490885415,0.1287335205078125],[0.0042525736490885415,0.1287335205078125],[0.0042525736490885415,0.1287335205078125],[0.0042525736490885415,0.1287335205078125],[0.0042525736490885415,0.1287335205078125]]]",1,[20],,,,,,,,,,,,,,warehouse2.jpg,space,1.1568,0,10,10,95,1,waitingroom2.jpg,stripmall6.jpg,weightroom4.jpg,tvstudio3.jpg,,
Image_List_2,,,,,,,,,,,,,,,,46617,2022-03-01_15h52.24.293,analogCatScenes,2020.1.3,MacIntel,60,"[1920,1200]","[[[0.002838795979817708,-0.19286631266276041],[0.002838795979817708,-0.19286631266276041],[0.002838795979817708,-0.19286631266276041],[0.002838795979817708,-0.19286631266276041],[0.002838795979817708,-0.19286631266276041],[0.002838795979817708,-0.19250417073567708],[0.006973063151041667,-0.18836995442708335],[0.015503946940104167,-0.18219980875651043],[0.031050211588541668,-0.1731993103027344],[0.03911280314127604,-0.16803451538085937],[0.04717534383138021,-0.16286966959635416],[0.051499125162760416,-0.15962132771809895],[0.05525970458984375,-0.15693522135416665],[0.05747996012369792,-0.1547149658203125],[0.058884379069010416,-0.15366165161132814],[0.05965972900390625,-0.15314478556315103],[0.0603619384765625,-0.15253519694010417]]]",1,[17],,,,,,,,,,,,,,lab1.jpg,space,1.301,0,11,11,58,1,highway7.jpg,hedgemaze1.jpg,igloo4.jpg,grocerystore2.jpg,,
Image_List_2,,,,,,,,,,,,,,,,46617,2022-03-01_15h52.24.293,analogCatScenes,2020.1.3,MacIntel,60,"[1920,1200]","[[[-0.001998748779296875,-0.19947123209635417],[-0.001998748779296875,-0.19947123209635417],[-0.001998748779296875,-0.19947123209635417],[-0.001998748779296875,-0.19947123209635417],[-0.001998748779296875,-0.19947123209635417],[-0.001998748779296875,-0.19947123209635417],[-0.001998748779296875,-0.19223597208658855],[-0.001998748779296875,-0.16319198608398439],[-0.001998748779296875,-0.12148630777994791],[-0.001998748779296875,-0.08299789428710938],[-0.001998748779296875,-0.060776926676432294],[-0.001998748779296875,-0.052900441487630206],[-0.001998748779296875,-0.0412554931640625],[-0.001998748779296875,-0.03992335001627604],[-0.001998748779296875,-0.028138885498046873],[-0.001998748779296875,-0.020639801025390626],[-0.001998748779296875,-0.014333394368489584],[-0.001998748779296875,-0.006882425944010417],[-0.001998748779296875,-0.00555023193359375],[-0.001554718017578125,-0.0028859456380208332],[-0.00075958251953125,0.0004805501302083333],[-0.00022237141927083335,0.004778340657552083],[-0.00022237141927083335,0.010080413818359375],[-0.00022237141927083335,0.011412556966145833],[-0.00022237141927083335,0.01344696044921875]],[[-0.00432586669921875,-0.20067097981770834],[-0.00432586669921875,-0.20067097981770834],[-0.00432586669921875,-0.20067097981770834],[-0.00432586669921875,-0.20067097981770834],[-0.00432586669921875,-0.20067097981770834],[-0.00432586669921875,-0.20067097981770834],[-0.008846028645833334,-0.20067097981770834],[-0.016145121256510415,-0.20067097981770834],[-0.03660400390625,-0.20067097981770834],[-0.08302266438802083,-0.20067097981770834],[-0.10420542399088542,-0.20067097981770834],[-0.1305250040690104,-0.20067097981770834],[-0.1591827392578125,-0.20067097981770834],[-0.18784047444661459,-0.20067097981770834],[-0.2098694864908854,-0.20067097981770834],[-0.229945068359375,-0.20067097981770834],[-0.25360443115234377,-0.20067097981770834],[-0.26090352376302084,-0.19975860595703124],[-0.27393020629882814,-0.1953850301106771],[-0.28695688883463544,-0.19110555013020833],[-0.3072826131184896,-0.18317657470703125],[-0.32140034993489586,-0.17788243611653645],[-0.3301063537597656,-0.17423639933268228],[-0.3387980651855469,-0.1713391621907552],[-0.3441001892089844,-0.17017130533854166],[-0.3469512939453125,-0.1692829895019531],[-0.3485418701171875,-0.1692829895019531],[-0.348800303141276,-0.1692829895019531]]]",2,"[25,28]",,,,,,,,,,,,,,campsite6.jpg,space,2.7891,0,12,12,17,1,bikerack1.jpg,breakroom4.jpg,carmechanic.jpg,baseball6.jpg,,
Image_List_2,,,,,,,,,,,,,,,,46617,2022-03-01_15h52.24.293,analogCatScenes,2020.1.3,MacIntel,60,"[1920,1200]","[[[-0.001590576171875,-0.20455647786458334],[-0.001590576171875,-0.20455647786458334],[-0.001590576171875,-0.20455647786458334],[-0.001590576171875,-0.20455647786458334],[-0.001590576171875,-0.20455647786458334],[-0.001590576171875,-0.20455647786458334],[-0.001590576171875,-0.20455647786458334],[-0.001590576171875,-0.20455647786458334],[-0.001590576171875,-0.20455647786458334],[-0.00194091796875,-0.20455647786458334],[-0.0032731119791666666,-0.20455647786458334],[-0.013925374348958333,-0.20455647786458334],[-0.022617136637369792,-0.2023835245768229],[-0.03473139444986979,-0.1962793477376302],[-0.04713165283203125,-0.18907246907552083],[-0.07205190022786458,-0.17239583333333333],[-0.08338607788085937,-0.1638952128092448],[-0.09191696166992187,-0.15690684000651042],[-0.10278167724609374,-0.14821512858072916],[-0.11115320841471354,-0.1391192118326823],[-0.12071868896484375,-0.1295537821451823],[-0.13380696614583334,-0.11545867919921875],[-0.14856465657552084,-0.09959955851236979],[-0.16065266927083333,-0.08669331868489584],[-0.1676410420735677,-0.07898061116536459],[-0.17142486572265625,-0.07330485026041667],[-0.175771484375,-0.06442403157552083],[-0.1814056396484375,-0.047051493326822916],[-0.18212992350260418,-0.04270563761393229],[-0.1861590576171875,-0.023818257649739584],[-0.18751449584960939,-0.0159417724609375],[-0.19053558349609376,0.006527862548828125],[-0.19053558349609376,0.02131657918294271],[-0.19053558349609376,0.039630126953125],[-0.19053558349609376,0.05499048868815104],[-0.18990498860677082,0.07364163716634115],[-0.18681991577148438,0.08371508280436198],[-0.18555862426757813,0.09002151489257812],[-0.1843194580078125,0.0933880360921224],[-0.18396830240885417,0.09409027099609375],[-0.18361719767252604,0.09612464904785156],[-0.1831731669108073,0.0996056620279948],[-0.18118733723958333,0.11044629414876302],[-0.17810226440429688,0.12051973978678386],[-0.1740111287434896,0.13197489420572917],[-0.16963755289713542,0.14500157674153646],[-0.16627848307291668,0.15231277465820312],[-0.15941802978515626,0.16905484517415365],[-0.1535955810546875,0.17978741963704428],[-0.14597432454427084,0.191944580078125],[-0.1421904500325521,0.1976203409830729],[-0.14130238850911458,0.19895248413085936],[-0.1405999247233073,0.2005430603027344],[-0.1399903361002604,0.20124532063802084],[-0.13973195393880208,0.20171785990397134],[-0.13951822916666667,0.20171785990397134],[-0.13925984700520833,0.20267852783203125],[-0.13890869140625,0.20408299763997395],[-0.13855758666992188,0.20504366556803386],[-0.13829915364583334,0.20556053161621093],[-0.13829915364583334,0.20556053161621093],[-0.13829915364583334,0.20556053161621093],[-0.13829915364583334,0.20556053161621093],[-0.13829915364583334,0.20556053161621093],[-0.13829915364583334,0.20556053161621093],[-0.13829915364583334,0.20182968139648438]]]",1,[66],,,,,,,,,,,,,,forestpath10.jpg,space,2.8734,0,13,13,43,1,exerciseequipment5.jpg,dugout2.jpg,foodcourt.jpg,diningroom3.jpg,,
Image_List_2,,,,,,,,,,,,,,,,46617,2022-03-01_15h52.24.293,analogCatScenes,2020.1.3,MacIntel,60,"[1920,1200]","[[[0.011994832356770834,-0.20047637939453125],[0.011994832356770834,-0.20047637939453125],[0.011994832356770834,-0.20047637939453125],[0.011994832356770834,-0.20047637939453125],[0.011994832356770834,-0.20047637939453125],[0.011994832356770834,-0.19815343221028645],[0.015616353352864583,-0.19210296630859375],[0.024616851806640624,-0.18473892211914061],[0.04635701497395833,-0.17149347941080728],[0.05441131591796875,-0.16645955403645835],[0.08096700032552083,-0.15014261881510416],[0.094033203125,-0.14164204915364584],[0.11165639241536458,-0.1284246826171875],[0.12576192220052082,-0.11932510375976563],[0.13919626871744792,-0.10963480631510417],[0.149014892578125,-0.1030889892578125],[0.15939860026041666,-0.0935235595703125],[0.17450052897135418,-0.08144205729166666],[0.18935282389322916,-0.06668436686197916],[0.19892293294270832,-0.05812103271484375],[0.20953287760416667,-0.04669286092122396],[0.2130364990234375,-0.04255864461263021],[0.21411092122395833,-0.040409749348958336],[0.2157225545247396,-0.03611200968424479],[0.21960052490234375,-0.026464029947916665],[0.22158640543619793,-0.019969278971354167],[0.2263104248046875,-0.0114337158203125],[0.2290202840169271,-0.00393463134765625],[0.23154337565104166,0.00256011962890625],[0.23369222005208334,0.009006805419921875],[0.23502431233723958,0.011671091715494792],[0.2364495849609375,0.016484273274739582],[0.23806121826171875,0.020782012939453125],[0.2396728515625,0.02507975260416667],[0.24182179768880208,0.029377543131510416],[0.24359792073567707,0.03337397257486979],[0.244486083984375,0.03603825887044271],[0.24546732584635417,0.03951929728190104],[0.24644856770833334,0.043000284830729166],[0.24752298990885416,0.049446970621744794],[0.2479670206705729,0.05077911376953125],[0.2489482625325521,0.05426015218098958],[0.24939229329427084,0.0569244384765625],[0.2507246907552083,0.06110768636067709],[0.25214996337890627,0.06592081705729166],[0.25303802490234373,0.06858510335286458],[0.2533891805013021,0.06954579671223958],[0.2533891805013021,0.07006266276041667],[0.2533891805013021,0.07027659098307291],[0.2533891805013021,0.07123728434244792]]]",1,[50],,,,,,,,,,,,,,gasstation8.jpg,space,5.5731,0,14,14,47,1,frontDoor.jpg,firestation4.jpg,fountain7.jpg,elevatorOutside2.jpg,,
Image_List_2,,,,,,,,,,,,,,,,46617,2022-03-01_15h52.24.293,analogCatScenes,2020.1.3,MacIntel,60,"[1920,1200]","[[[0.00088287353515625,-0.2037109883626302],[0.00088287353515625,-0.2037109883626302],[0.00088287353515625,-0.2037109883626302],[0.00088287353515625,-0.2037109883626302],[0.00088287353515625,-0.2037109883626302],[0.00088287353515625,-0.20119120279947916],[0.00088287353515625,-0.1921300760904948],[0.00088287353515625,-0.1629932657877604],[0.00088287353515625,-0.14668024698893228],[0.009694468180338542,-0.12465128580729166],[0.01822209676106771,-0.10567713419596354],[0.03184514363606771,-0.08217488606770833],[0.036407063802083334,-0.07578821818033854],[0.046097412109375,-0.06144154866536458],[0.054308878580729164,-0.048668162027994795],[0.06337921142578125,-0.03751729329427083],[0.06804972330729167,-0.03094024658203125],[0.07654520670572916,-0.018165130615234375],[0.07871805826822917,-0.01381927490234375],[0.08510477701822916,0.0080780029296875],[0.08664784749348958,0.01853032430013021],[0.08837992350260417,0.03269800821940104],[0.08837992350260417,0.05516764322916667],[0.08837992350260417,0.060895233154296874],[0.08674346923828125,0.07392191569010417],[0.08510701497395834,0.08280268351236979],[0.08330851236979167,0.09125801086425782],[0.0823272705078125,0.09473902384440104],[0.08099517822265626,0.09740331013997396],[0.08010711669921874,0.09873545328776041],[0.0754351806640625,0.105743408203125],[0.07309946695963541,0.11104548136393229],[0.0691009521484375,0.121497802734375]]]",1,[33],,,,,,,,,,,,,,desertvegetation6.jpg,space,1.7369,0,15,15,31,1,cubicle4.jpg,conference4.jpg,courtroom2.jpg,cabin3.jpg,,
Image_List_2,,,,,,,,,,,,,,,,46617,2022-03-01_15h52.24.293,analogCatScenes,2020.1.3,MacIntel,60,"[1920,1200]","[[[0.005349782307942709,-0.2028136189778646],[0.005349782307942709,-0.2028136189778646],[0.005349782307942709,-0.2028136189778646],[0.005349782307942709,-0.2028136189778646],[0.005349782307942709,-0.2028136189778646],[0.005349782307942709,-0.2028136189778646],[0.005349782307942709,-0.2028136189778646],[0.005349782307942709,-0.19572163899739584],[0.005349782307942709,-0.18999404907226564],[0.017230936686197917,-0.1703924560546875],[0.03309005737304688,-0.15664154052734375],[0.07288411458333334,-0.1262694803873698],[0.10731709798177083,-0.10470108032226562],[0.1406024169921875,-0.08528467814127604],[0.15971811930338542,-0.07344456990559896],[0.17636077880859374,-0.06373636881510417],[0.21244374593098958,-0.044498443603515625],[0.23861358642578126,-0.03205922444661458],[0.25868927001953124,-0.02362630208333333],[0.2907283528645833,-0.009211578369140626],[0.3082105509440104,-0.0025071207682291667],[0.3113637288411458,-0.0012458292643229166],[0.32300872802734376,0.00366424560546875],[0.3336609903971354,0.009621022542317708],[0.33996744791666667,0.012774251302083333],[0.34463887532552084,0.015740559895833332],[0.34968404134114583,0.019524434407552083]]]",1,[27],,,,,,,,,,,,,,warehouseoutside1.jpg,space,2.1031,0,16,16,96,1,warehouse4.jpg,tenniscourt3.jpg,windmill1.jpg,warehouse1.jpg,,
Image_List_2,,,,,,,,,,,,,,,,46617,2022-03-01_15h52.24.293,analogCatScenes,2020.1.3,MacIntel,60,"[1920,1200]","[[[0.00959625244140625,-0.20394012451171875],[0.00959625244140625,-0.20394012451171875],[0.00959625244140625,-0.20394012451171875],[0.00959625244140625,-0.20394012451171875],[0.00959625244140625,-0.20394012451171875],[0.0030617268880208334,-0.20394012451171875],[-0.015060577392578125,-0.20394012451171875],[-0.04624989827473958,-0.20394012451171875],[-0.0850347900390625,-0.19523625691731772],[-0.14457499186197917,-0.17782852172851563],[-0.16503387451171875,-0.17150232950846353],[-0.18549280802408855,-0.16489217122395833],[-0.19851949055989584,-0.1597003173828125],[-0.2125933329264323,-0.15217397054036458],[-0.21750269571940103,-0.14890111287434896],[-0.22650319417317707,-0.14071884155273437],[-0.23764185587565104,-0.1295801798502604],[-0.253248036702474,-0.11296717325846355],[-0.26337992350260414,-0.10101028442382813],[-0.27500823974609373,-0.08744394938151041],[-0.2795701599121094,-0.08105723063151042],[-0.29079416910807293,-0.06843104044596354],[-0.2969382731119792,-0.06301122029622395],[-0.30079299926757813,-0.060231221516927086],[-0.30289967854817706,-0.0591778564453125],[-0.30289967854817706,-0.05891942342122396]]]",1,[26],,,,,,,,,,,,,,horsebarn11.jpg,space,2.0025,0,17,17,54,1,greenhouse2.jpg,gazebo2.jpg,homegarage4.jpg,frontFoyer.jpg,,
Image_List_2,,,,,,,,,,,,,,,,46617,2022-03-01_15h52.24.293,analogCatScenes,2020.1.3,MacIntel,60,"[1920,1200]","[[[0.0034261067708333333,-0.20611536661783855],[0.0034261067708333333,-0.20611536661783855],[0.0034261067708333333,-0.20611536661783855],[0.0034261067708333333,-0.20611536661783855],[0.0034261067708333333,-0.20611536661783855],[0.0034261067708333333,-0.20611536661783855],[0.0034261067708333333,-0.20611536661783855],[0.003597869873046875,-0.2059436543782552],[0.009275868733723958,-0.20433125813802083],[0.015003458658854166,-0.20269480387369793],[0.02979217529296875,-0.1990447998046875],[0.05892893473307292,-0.19803797403971354],[0.08310323079427083,-0.19693654378255207],[0.10727752685546875,-0.19693654378255207],[0.12735321044921874,-0.19693654378255207],[0.15844329833984375,-0.19693654378255207],[0.16750447591145834,-0.19693654378255207],[0.17795674641927084,-0.19693654378255207],[0.18941192626953124,-0.19693654378255207],[0.2026385498046875,-0.19693654378255207],[0.20894500732421875,-0.19693654378255207],[0.21525146484375,-0.19441396077473957],[0.21840464274088542,-0.19315272013346355],[0.2255986531575521,-0.18829442342122396],[0.23047627766927084,-0.18463623046875],[0.23461049397786457,-0.18113260904947917],[0.23874471028645833,-0.1769983927408854],[0.24259918212890624,-0.1709948221842448],[0.24449117024739583,-0.16784159342447916],[0.2468267822265625,-0.16253946940104166],[0.2501001993815104,-0.15089452107747395],[0.2532804361979167,-0.135718994140625],[0.25419281005859373,-0.12627100626627605],[0.255010986328125,-0.11481587727864584],[0.255010986328125,-0.10908828735351563],[0.2557353719075521,-0.09724334716796874],[0.256365966796875,-0.0909368896484375],[0.25744038899739585,-0.08663909912109374],[0.258421630859375,-0.08315811157226563],[0.2592168172200521,-0.08112370808919271]]]",1,[40],,,,,,,,,,,,,,frontFoyer4.jpg,space,1.7285,0,18,18,44,1,firestation2.jpg,elevatorOutside1.jpg,foodcourt6.jpg,dock2.jpg,,
Image_List_2,,,,,,,,,,,,,,,,46617,2022-03-01_15h52.24.293,analogCatScenes,2020.1.3,MacIntel,60,"[1920,1200]","[[[0.0028257242838541667,-0.206529541015625],[0.0028257242838541667,-0.206529541015625],[0.0028257242838541667,-0.206529541015625],[0.0028257242838541667,-0.206529541015625],[0.0028257242838541667,-0.206529541015625],[0.0028257242838541667,-0.206529541015625],[0.0028257242838541667,-0.20618001302083333],[0.0028257242838541667,-0.19552769978841145],[0.0028257242838541667,-0.18984965006510415],[0.0028257242838541667,-0.18115793863932292],[0.0028257242838541667,-0.16736409505208333],[0.003456319173177083,-0.1610576375325521],[0.007265726725260417,-0.15098419189453124],[0.01271153767903646,-0.14172902425130207],[0.024984893798828126,-0.12781916300455728],[0.0363751220703125,-0.12007853190104166],[0.04767120361328125,-0.11224365234375],[0.06799692789713542,-0.10422053019205729],[0.07096669514973958,-0.10303263346354166],[0.087708740234375,-0.0972736104329427],[0.09891876220703125,-0.09472279866536458],[0.10679524739583333,-0.09254918416341146],[0.12416778564453125,-0.09000035603841146],[0.13719441731770834,-0.08826975504557291],[0.14292205810546876,-0.08745152791341146],[0.1592822265625,-0.0864447530110677],[0.18294158935546875,-0.08452555338541666],[0.1971092732747396,-0.08452555338541666],[0.2059900919596354,-0.08452555338541666],[0.21468180338541668,-0.08380126953125],[0.22771942138671875,-0.08307693481445312],[0.23501851399739584,-0.08307693481445312],[0.24251759847005208,-0.08235265096028646],[0.25372762044270836,-0.0813458251953125],[0.266954345703125,-0.07844838460286459],[0.2722563680013021,-0.07674331665039062],[0.274290771484375,-0.07559702555338542],[0.27562296549479165,-0.07515299479166666],[0.2779154459635417,-0.0724163818359375],[0.2799712117513021,-0.06947255452473958],[0.2819336954752604,-0.06599156697591146],[0.2844334920247396,-0.06304773966471354],[0.2872840372721354,-0.05823455810546875],[0.2881722005208333,-0.0569024658203125],[0.2891534423828125,-0.053421427408854166],[0.29130228678385417,-0.04697479248046875],[0.292376708984375,-0.042677001953125],[0.29398834228515625,-0.03837921142578125],[0.2950627644856771,-0.03408147176106771],[0.2955999755859375,-0.03193257649739583],[0.2973984781901042,-0.023477274576822915],[0.2980290730794271,-0.017170817057291666],[0.2980290730794271,-0.009671732584635417],[0.2980290730794271,0.0039337666829427085],[0.2980290730794271,0.009661356608072916],[0.2980290730794271,0.03598098754882813],[0.2903740437825521,0.08052289326985677],[0.28032755533854165,0.10788914998372395],[0.2745051066080729,0.11953409830729167],[0.26852203369140626,0.12759666442871093],[0.2643878173828125,0.13110026041666667],[0.26165120442708334,0.13180246988932293],[0.26024668375651044,0.13180246988932293],[0.25858378092447915,0.13180246988932293],[0.25654947916666665,0.13180246988932293],[0.25451507568359377,0.13180246988932293],[0.25248067220052084,0.13180246988932293],[0.2503739420572917,0.13180246988932293],[0.24985707600911458,0.13180246988932293]]]",1,[69],,,,,,,,,,,,,,playground10.jpg,space,3.4094,0,19,19,74,1,newsstand2.jpg,observatory4.jpeg,operatingroom1.jpg,lightingstore2.jpg,,
Image_List_2,,,,,,,,,,,,,,,,46617,2022-03-01_15h52.24.293,analogCatScenes,2020.1.3,MacIntel,60,"[1920,1200]","[[[-0.007103373209635416,-0.20341618855794272],[-0.007103373209635416,-0.20341618855794272],[-0.007103373209635416,-0.20341618855794272],[-0.007103373209635416,-0.20341618855794272],[-0.007103373209635416,-0.20341618855794272],[-0.0072754414876302085,-0.20341618855794272],[-0.014774525960286458,-0.20341618855794272],[-0.05210861206054687,-0.20341618855794272],[-0.08076634724934896,-0.20341618855794272],[-0.09965372721354167,-0.20341618855794272],[-0.12382802327473959,-0.20341618855794272],[-0.13327601114908855,-0.20341618855794272],[-0.14215682983398437,-0.20341618855794272],[-0.15260915120442708,-0.20341618855794272],[-0.161064453125,-0.19855789184570313],[-0.16805282592773438,-0.1908452351888021],[-0.16875503540039063,-0.1901429748535156],[-0.1747381083170573,-0.18289866129557292],[-0.18242451985677083,-0.17250228881835938],[-0.1896313985188802,-0.16010208129882814],[-0.19381718953450522,-0.14845713297526042],[-0.19554779052734375,-0.13543045043945312],[-0.1963660176595052,-0.1265496826171875],[-0.1963660176595052,-0.11766886393229167],[-0.1963660176595052,-0.11236673990885417],[-0.1963660176595052,-0.10888575236002604],[-0.1963660176595052,-0.10614913940429688],[-0.1963660176595052,-0.10481699625651042],[-0.1963660176595052,-0.1027825927734375],[-0.19592193603515626,-0.10074824015299479],[-0.19557083129882813,-0.09908533732096354],[-0.19557083129882813,-0.098826904296875],[-0.19557083129882813,-0.098826904296875],[-0.19557083129882813,-0.098826904296875],[-0.19557083129882813,-0.098826904296875]]]",1,[35],,,,,,,,,,,,,,breakroom5.jpg,space,1.6618,0,20,20,14,1,ballroom1.jpg,bistrooutdoor5.jpg,botanicalGarden5.jpg,ballroom3.jpg,,
Image_List_2,,,,,,,,,,,,,,,,46617,2022-03-01_15h52.24.293,analogCatScenes,2020.1.3,MacIntel,60,"[1920,1200]","[[[0.00685455322265625,-0.2016295369466146],[0.00685455322265625,-0.2016295369466146],[0.00685455322265625,-0.2016295369466146],[0.00685455322265625,-0.2016295369466146],[0.00685455322265625,-0.2016295369466146],[0.00685455322265625,-0.2016295369466146],[0.00685455322265625,-0.2016295369466146],[0.00685455322265625,-0.2016295369466146],[0.010762786865234375,-0.2016295369466146],[0.04003779093424479,-0.19604649861653645],[0.05539815266927083,-0.194945068359375],[0.07957244873046875,-0.19264724731445312],[0.09964803059895834,-0.19264724731445312],[0.11997385660807292,-0.19264724731445312],[0.13004730224609376,-0.19264724731445312],[0.14012074788411458,-0.19264724731445312],[0.14741984049479168,-0.19264724731445312],[0.1647923787434896,-0.19837534586588543],[0.18115254720052085,-0.2022136942545573],[0.19279754638671875,-0.20385040283203126],[0.20582417805989583,-0.20385040283203126],[0.2202435302734375,-0.20385040283203126],[0.22458943684895832,-0.20385040283203126],[0.22989156087239584,-0.20214528401692708],[0.23834686279296874,-0.19854832967122396],[0.245845947265625,-0.1964690653483073],[0.25372233072916667,-0.19429539998372397],[0.2641747029622396,-0.19184000651041666],[0.28450042724609376,-0.18828460693359375],[0.29752705891927084,-0.1874664306640625],[0.3079794311523438,-0.1865540568033854],[0.322398681640625,-0.1850114949544271],[0.32870513916015626,-0.18438090006510416],[0.33218617757161456,-0.1833996073404948],[0.33492279052734375,-0.1826044718424479],[0.33632731119791665,-0.18190221150716146],[0.3369368489583333,-0.18094156901041666]]]",1,[37],,,,,,,,,,,,,,church8.jpg,space,1.7132,0,21,21,23,1,bus_shelter.jpg,carmechanic4.jpeg,cemetery3.jpg,bleachers6.jpg,,
Image_List_2,,,,,,,,,,,,,,,,46617,2022-03-01_15h52.24.293,analogCatScenes,2020.1.3,MacIntel,60,"[1920,1200]","[[[0.0005739847819010417,-0.19918675740559896],[0.0005739847819010417,-0.19918675740559896],[0.0005739847819010417,-0.19918675740559896],[0.0005739847819010417,-0.19918675740559896],[0.0005739847819010417,-0.19918675740559896],[0.0005739847819010417,-0.19918675740559896],[0.00021214803059895835,-0.19918675740559896],[-0.005089925130208333,-0.19918675740559896],[-0.02246246337890625,-0.19918675740559896],[-0.03882273356119792,-0.19918675740559896],[-0.05713633219401042,-0.19918675740559896],[-0.07544987996419271,-0.19918675740559896],[-0.09181009928385417,-0.19918675740559896],[-0.10993245442708334,-0.19918675740559896],[-0.12472117106119791,-0.19918675740559896],[-0.13636611938476562,-0.19918675740559896],[-0.15373865763346353,-0.1932703653971354],[-0.16613886515299478,-0.18606348673502604],[-0.17357081095377605,-0.17944981892903647],[-0.17766194661458334,-0.17535868326822918],[-0.18607264200846355,-0.16631729125976563],[-0.1877777099609375,-0.16101521809895833],[-0.1877777099609375,-0.15452046712239584],[-0.18387420654296874,-0.14211201985677083],[-0.17135233561197916,-0.130596923828125],[-0.1517736307779948,-0.11561381022135417],[-0.1137872823079427,-0.09035308837890625],[-0.08986033121744792,-0.07599695841471354],[-0.06798380533854166,-0.06450795491536458],[-0.037898050944010414,-0.050471903483072914],[-0.019775746663411458,-0.04443115234375],[-0.0016534423828125,-0.039397176106770834],[0.01842219034830729,-0.03407923380533854],[0.0495123291015625,-0.025551656087239583],[0.058573404947916664,-0.022531280517578123],[0.07669576009114583,-0.01649052937825521],[0.094818115234375,-0.011456553141276042],[0.12023946126302083,-0.0036854044596354167],[0.13069173177083335,-0.000599365234375],[0.14214691162109375,0.002673492431640625],[0.150838623046875,0.005570729573567708],[0.15833770751953125,0.0082806396484375],[0.16899007161458332,0.012251790364583333],[0.17429219563802084,0.01405029296875],[0.1837518310546875,0.01531158447265625],[0.1899114990234375,0.01531158447265625],[0.19741058349609375,0.01531158447265625],[0.20490966796875,0.013862965901692708],[0.21436930338541665,0.009448445638020834],[0.21866709391276043,0.007836812337239584],[0.22070139567057293,0.00659759521484375],[0.2214037068684896,0.006246490478515625],[0.22262278238932293,0.005378519694010417],[0.22288116455078125,0.005378519694010417],[0.2230951944986979,0.005378519694010417],[0.2230951944986979,0.005378519694010417],[0.2230951944986979,0.005378519694010417],[0.2230951944986979,0.005378519694010417],[0.2230951944986979,0.005378519694010417],[0.2230951944986979,0.005378519694010417],[0.22292226155598957,0.005378519694010417],[0.21642751057942708,0.005378519694010417],[0.20006734212239582,0.008304494222005208],[0.178038330078125,0.014913177490234375],[0.13154459635416665,0.02782806396484375],[0.10522491455078126,0.036202494303385416],[0.06789082845052083,0.04668492635091146],[0.04371653238932292,0.052476806640625],[0.023640899658203124,0.05779474894205729],[0.0037970987955729166,0.05981058756510416],[-0.006655171712239583,0.06135355631510417],[-0.026550496419270833,0.06245503743489583],[-0.041339213053385414,0.06245503743489583],[-0.05279434204101562,0.06327321370442708],[-0.0691546122233073,0.06327321370442708],[-0.08551483154296875,0.06428003946940104],[-0.09772918701171875,0.06428003946940104],[-0.11075586954752605,0.06519241333007812],[-0.12260080973307291,0.06664103190104166],[-0.1279029337565104,0.0678088887532552],[-0.13220072428385415,0.06888331095377605],[-0.13701385498046875,0.07030858357747395],[-0.13967814127604167,0.07119669596354167],[-0.14234242757161458,0.07208475748697916],[-0.1450067138671875,0.07297286987304688],[-0.14774332682291666,0.07376800537109375],[-0.1497777303059896,0.07456319173177084],[-0.1524420166015625,0.07545125325520834],[-0.15580851236979168,0.07633936564127604],[-0.15784291585286458,0.0767833964029948],[-0.1592473856608073,0.07748563130696615],[-0.15959849039713542,0.0781878662109375],[-0.1605591837565104,0.07914853413899739],[-0.16152008056640624,0.08099754333496094]]]",1,[94],,,,,,,,,,,,,,pavilion5.jpg,space,2.5805,0,22,22,71,1,metroInside2.jpg,metroInside3.jpg,museum3.jpg,jewelrystore.jpg,,
Image_List_2,,,,,,,,,,,,,,,,46617,2022-03-01_15h52.24.293,analogCatScenes,2020.1.3,MacIntel,60,"[1920,1200]","[[[-0.0011591084798177084,-0.1969036865234375],[-0.0011591084798177084,-0.1969036865234375],[-0.0011591084798177084,-0.1969036865234375],[-0.0011591084798177084,-0.1969036865234375],[-0.0011591084798177084,-0.1969036865234375],[-0.0011591084798177084,-0.1969036865234375],[0.0025591532389322917,-0.1969036865234375],[0.0082867431640625,-0.1969036865234375],[0.04654774983723958,-0.1969036865234375],[0.07754364013671874,-0.1969036865234375],[0.09876912434895833,-0.1969036865234375],[0.14779449462890626,-0.1969036865234375],[0.16095428466796874,-0.1969036865234375],[0.18317525227864584,-0.1969036865234375],[0.1977734375,-0.1959913126627604],[0.2157616170247396,-0.18838185628255208],[0.22476216634114585,-0.1801996358235677],[0.24294830322265626,-0.1640269978841146],[0.2549051920572917,-0.15389506022135416],[0.26233713785807294,-0.1479120381673177],[0.2689508056640625,-0.14129831949869792],[0.27259684244791665,-0.1380963643391927],[0.27311381022135417,-0.13757949829101562],[0.27311381022135417,-0.13706263224283854],[0.27311381022135417,-0.13684783935546874],[0.27311381022135417,-0.13562876383463543]]]",1,[26],,,,,,,,,,,,,,newsstand7.jpg,space,1.4998,0,23,23,65,1,igloo5.jpg,laundromat2.jpeg,labClass7.jpg,homeoffice8.jpg,,
Image_List_2,,,,,,,,,,,,,,,,46617,2022-03-01_15h52.24.293,analogCatScenes,2020.1.3,MacIntel,60,"[1920,1200]","[[[-0.002351226806640625,-0.19178146362304688],[-0.002351226806640625,-0.19178146362304688],[-0.002351226806640625,-0.19178146362304688],[-0.002351226806640625,-0.19178146362304688],[-0.002351226806640625,-0.19178146362304688],[-0.002351226806640625,-0.19178146362304688],[-0.002351226806640625,-0.19178146362304688],[-0.0038557942708333333,-0.19178146362304688],[-0.007009023030598958,-0.19178146362304688],[-0.020979512532552085,-0.1854881795247396],[-0.03860270182291667,-0.17116938273111978],[-0.05986704508463542,-0.142186279296875],[-0.0698883056640625,-0.11993799845377605],[-0.07735183715820312,-0.09128026326497396],[-0.07845326741536458,-0.08026580810546875],[-0.07845326741536458,-0.06075236002604167],[-0.07845326741536458,-0.050678914388020836],[-0.07845326741536458,-0.04418416341145833],[-0.07800923665364583,-0.038554229736328126],[-0.07149042765299479,-0.032035420735677084],[-0.06658106486002605,-0.02876251220703125],[-0.04826751708984375,-0.020707194010416666],[-0.0015802510579427083,-0.006595204671223959],[0.034478759765625,0.003112996419270833],[0.07326365152994792,0.010238698323567708],[0.10425944010416667,0.0154046630859375],[0.13291727701822917,0.0204754638671875],[0.15709147135416668,0.02396962483723958],[0.17716715494791666,0.02396962483723958],[0.19352742513020835,0.02396962483723958],[0.21718668619791667,0.02396962483723958],[0.2229143269856771,0.02396962483723958],[0.23751251220703126,0.02396962483723958],[0.24639333089192708,0.02396962483723958],[0.25842732747395836,0.02396962483723958],[0.26109161376953127,0.025301717122395834],[0.26249603271484373,0.026355082194010417],[0.26401479085286456,0.032172597249348955],[0.2655572509765625,0.04224604288736979],[0.2655572509765625,0.057034759521484374],[0.2646448771158854,0.08245615641276041],[0.25643341064453123,0.0961419677734375],[0.24491831461588542,0.10866383870442708],[0.2261937459309896,0.12077977498372396],[0.19081298828125,0.13198501586914063],[0.1549591064453125,0.13868316650390625],[0.11228220621744792,0.1424182637532552],[0.07622314453125,0.1424182637532552],[0.037438303629557294,0.1424182637532552],[0.0039108784993489585,0.1411267598470052],[-0.02240875244140625,0.1375377400716146],[-0.04658304850260417,0.1352399444580078],[-0.07767318725585938,0.13203028361002603],[-0.09774881998697917,0.12992202758789062],[-0.1197777811686198,0.1277191670735677],[-0.130792236328125,0.1255162556966146],[-0.15282119750976564,0.12331339518229166],[-0.1748138936360677,0.12331339518229166],[-0.18488733927408854,0.12331339518229166],[-0.18965220133463542,0.12681696573893228],[-0.19142837524414064,0.1294812520345052],[-0.19177947998046874,0.13151563008626302],[-0.19177947998046874,0.13417991638183593],[-0.19177947998046874,0.13766092936197916],[-0.18488479614257813,0.14925114949544271],[-0.1700324503580729,0.16290738423665366],[-0.16122090657552082,0.16951606750488282],[-0.14139485677083333,0.18163197835286457],[-0.11512156168619792,0.19390355428059897],[-0.09876129150390625,0.19975550333658854],[-0.0806390380859375,0.20378270467122395],[-0.06251668294270833,0.20478947957356772],[-0.029281260172526042,0.20478947957356772],[-0.018266805013020835,0.20478947957356772],[0.008052876790364583,0.20000411987304687],[0.03437245686848958,0.19282602945963542],[0.06956125895182291,0.1837297821044922],[0.09373555501302083,0.17793787638346353],[0.11381123860677084,0.17582962036132813],[0.142947998046875,0.1737214152018229],[0.1630235799153646,0.1737214152018229],[0.17938385009765626,0.1737214152018229],[0.1967047119140625,0.17891764322916667],[0.20539652506510417,0.18253921508789062],[0.211702880859375,0.18569239298502604],[0.21518391927083333,0.1876549275716146],[0.217476806640625,0.18950368245442709],[0.21799367268880207,0.19002054850260416],[0.21851053873697918,0.1902789815266927],[0.21851053873697918,0.1902789815266927],[0.21762237548828126,0.19346794128417968],[0.20990976969401043,0.20045631408691406],[0.19943186442057292,0.209109369913737],[0.1786041259765625,0.22235481262207032],[0.16048187255859375,0.23040916442871093],[0.15142069498697916,0.2334295399983724],[0.12510101318359376,0.23941126505533855],[0.094105224609375,0.24457722981770832],[0.054625752766927084,0.24936258951822918],[0.042411397298177084,0.250369389851888],[0.0276226806640625,0.25219439188639325],[0.010880635579427084,0.2549322764078776],[-0.0005745442708333334,0.2573869323730469],[-0.0151727294921875,0.2601241048177083],[-0.029961446126302083,0.262767333984375],[-0.040413767496744794,0.26367970784505207],[-0.05621480305989583,0.2652222188313802],[-0.06371388753255208,0.26585286458333335],[-0.0668670654296875,0.26648351033528644],[-0.072169189453125,0.26881922403971353],[-0.07936319986979166,0.273677495320638],[-0.08440836588541667,0.27746134440104164],[-0.08644271850585937,0.27905166625976563],[-0.08802591959635417,0.28019078572591144],[-0.08854278564453125,0.28044921875],[-0.08854278564453125,0.28044921875]]]",1,[116],,,,,,,,,,,,,,greenhouse5.jpg,space,2.8935,0,24,24,49,1,frontDoor3.jpg,flowershop3.jpg,greenhouse.jpg,farm2.jpg,,
Image_List_2,,,,,,,,,,,,,,,,46617,2022-03-01_15h52.24.293,analogCatScenes,2020.1.3,MacIntel,60,"[1920,1200]","[[[0.006113179524739583,-0.19506484985351563],[0.006113179524739583,-0.19506484985351563],[0.006113179524739583,-0.19506484985351563],[0.006113179524739583,-0.19506484985351563],[0.006113179524739583,-0.19506484985351563],[0.006113179524739583,-0.1913414510091146],[0.006113179524739583,-0.18699559529622395],[0.006113179524739583,-0.17239741007486978],[0.006113179524739583,-0.15050013224283854],[0.006113179524739583,-0.13747344970703124],[0.009292195638020834,-0.12740000406901042],[0.010553436279296875,-0.11851923624674479],[0.012726389567057291,-0.10409993489583333],[0.014175008138020834,-0.0940264892578125],[0.01480560302734375,-0.09087326049804688],[0.016886088053385418,-0.08381352742513021],[0.022963816324869792,-0.06901535034179687],[0.02513671875,-0.06151626586914063],[0.028570963541666668,-0.05401718139648438],[0.03216796875,-0.045561879475911456],[0.03270517985026042,-0.04341298421223958],[0.033593241373697916,-0.04074869791666667],[0.035928955078125,-0.03544662475585938],[0.03882619222005208,-0.026754862467447918],[0.04333485921223958,-0.01710693359375],[0.045670572916666666,-0.0118048095703125],[0.046723887125651044,-0.010400339762369792],[0.047333475748697916,-0.009439697265625],[0.047333475748697916,-0.009439697265625],[0.04752329508463542,-0.009439697265625],[0.04798004150390625,-0.008982950846354167],[0.049384511311848955,-0.007929585774739583],[0.05468658447265625,-0.004963226318359375],[0.06791330973307291,0.0015562947591145834],[0.07679402669270834,0.005272216796875],[0.08548583984375,0.009618123372395834],[0.08983164469401042,0.011791025797526042],[0.09627827962239584,0.014477132161458333],[0.09975931803385417,0.0154583740234375],[0.1032403564453125,0.016439615885416668],[0.10753814697265625,0.0175140380859375],[0.11699778238932292,0.019405924479166666],[0.12134368896484375,0.019405924479166666],[0.1288427734375,0.020760904947916665],[0.13514912923177083,0.020760904947916665],[0.14360453287760416,0.020760904947916665],[0.14890655517578125,0.020760904947916665],[0.153204345703125,0.020760904947916665],[0.15635762532552083,0.020760904947916665],[0.16280426025390626,0.020760904947916665],[0.16546854654947918,0.020760904947916665],[0.16750284830729167,0.020760904947916665],[0.16846354166666666,0.020760904947916665],[0.1692388916015625,0.020760904947916665],[0.16975575764973957,0.020760904947916665],[0.16975575764973957,0.020760904947916665],[0.16994588216145834,0.020760904947916665],[0.16994588216145834,0.020760904947916665],[0.17013102213541667,0.020760904947916665],[0.17038950602213543,0.020760904947916665]],[[0.006515604654947917,-0.19820159912109375],[0.006515604654947917,-0.19820159912109375],[0.006515604654947917,-0.19820159912109375],[0.006515604654947917,-0.19820159912109375],[0.006515604654947917,-0.19820159912109375],[0.006515604654947917,-0.19820159912109375],[0.006515604654947917,-0.18914586385091145],[0.006515604654947917,-0.16048812866210938],[0.006515604654947917,-0.14160074869791667],[0.006515604654947917,-0.11528111775716146],[0.006515604654947917,-0.10426661173502604],[0.006515604654947917,-0.0857574971516927],[0.006515604654947917,-0.07341084798177083],[0.006515604654947917,-0.063017578125],[0.006515604654947917,-0.05671112060546875],[0.006515604654947917,-0.05026448567708333],[0.006515604654947917,-0.048932342529296874],[0.006515604654947917,-0.04626805623372396],[0.006515604654947917,-0.041970316569010416],[0.006515604654947917,-0.029747975667317707],[0.006515604654947917,-0.02325322469075521],[0.006515604654947917,-0.013179779052734375],[0.007239888509114584,-0.004488016764322917],[0.007239888509114584,0.001818389892578125],[0.007239888509114584,0.007120463053385416],[0.007239888509114584,0.01600128173828125],[0.007239888509114584,0.0235003662109375],[0.007239888509114584,0.03653798421223958],[0.007239888509114584,0.040019022623697914],[0.006795857747395833,0.04135111490885417],[0.006537424723307292,0.04231180826822917],[0.005225626627604166,0.04362360636393229],[0.00319122314453125,0.04521392822265625],[0.0005269368489583333,0.04699010213216146],[-0.0037708028157552084,0.04860173543294271],[-0.00806854248046875,0.05021336873372396],[-0.01337066650390625,0.05084401448567708],[-0.01867279052734375,0.051474660237630206],[-0.026123758951822916,0.051474660237630206],[-0.03042149861653646,0.051474660237630206],[-0.03471928914388021,0.051474660237630206],[-0.03686818440755208,0.051474660237630206],[-0.0433148193359375,0.04986302693684896],[-0.04597910563151042,0.04897491455078125],[-0.047383575439453124,0.04862380981445313],[-0.04790044148763021,0.04836537679036458],[-0.048098602294921876,0.04836537679036458],[-0.048098602294921876,0.04836537679036458],[-0.048098602294921876,0.048151346842447915],[-0.048098602294921876,0.047678680419921876]]]",2,"[60,50]",,,,,,,,,,,,,,elevatorOutside4.jpg,space,3.4853,0,25,25,38,1,dining_car2.jpg,dock1.jpg,driveway8.jpg,classroom1.jpg,,
Image_List_2,,,,,,,,,,,,,,,,46617,2022-03-01_15h52.24.293,analogCatScenes,2020.1.3,MacIntel,60,"[1920,1200]","[[[-0.0017862955729166666,-0.19490015665690105],[-0.0017862955729166666,-0.19490015665690105],[-0.0017862955729166666,-0.19490015665690105],[-0.0017862955729166666,-0.19490015665690105],[-0.0017862955729166666,-0.19490015665690105],[-0.0017862955729166666,-0.19411697387695312],[-0.0017862955729166666,-0.1852362060546875],[-0.0017862955729166666,-0.16887593587239583],[-0.0017862955729166666,-0.1503668212890625],[-0.0017862955729166666,-0.14148600260416666],[-0.0017862955729166666,-0.13499125162760417],[-0.002674407958984375,-0.13232696533203125],[-0.0087005615234375,-0.1250395711263021],[-0.015758768717447916,-0.12069224039713541],[-0.0250140380859375,-0.11524637858072917],[-0.032073720296223955,-0.11234766642252604],[-0.04511133829752604,-0.10727752685546875],[-0.0538031005859375,-0.10365595499674479],[-0.058148956298828124,-0.10220733642578125],[-0.06564804077148438,-0.09949747721354167],[-0.07630035400390625,-0.09615692138671875],[-0.0837994384765625,-0.09417134602864584],[-0.09129852294921875,-0.09146143595377604],[-0.10175079345703125,-0.08655059814453125],[-0.11535186767578125,-0.078931884765625],[-0.11787445068359376,-0.07703994750976563],[-0.1268749491373698,-0.0696759033203125],[-0.1328271993001302,-0.06440958658854166],[-0.13976425170898438,-0.0574725341796875],[-0.14172678629557292,-0.05399149576822917],[-0.14387563069661458,-0.05023096720377604],[-0.14495005289713542,-0.048082071940104165],[-0.14754297892252605,-0.042452189127604165],[-0.14852427164713541,-0.03897115071614583],[-0.14941233317057293,-0.03630686442057292],[-0.14941233317057293,-0.03534617106119792],[-0.14941233317057293,-0.0345709228515625],[-0.14941233317057293,-0.0345709228515625],[-0.14941233317057293,-0.0340985107421875],[-0.14808019002278647,-0.032508138020833334],[-0.14240437825520832,-0.029354960123697916],[-0.13476582845052085,-0.02468302408854167],[-0.13046803792317707,-0.0225341796875],[-0.12698705037434896,-0.02057164510091146],[-0.1256549072265625,-0.0201275634765625],[-0.12228836059570312,-0.018444315592447916],[-0.12088389078776042,-0.017742106119791667],[-0.11992324829101562,-0.017483673095703124],[-0.11914794921875,-0.016966807047526043],[-0.11863108317057292,-0.0167083740234375],[-0.11863108317057292,-0.016449940999348957],[-0.11841705322265625,-0.0162359619140625],[-0.11841705322265625,-0.015762837727864583],[-0.11841705322265625,-0.014358367919921875],[-0.12030899047851562,-0.0096868896484375],[-0.12547383626302083,-0.0016243489583333333],[-0.13969680786132813,0.015241902669270833],[-0.1522186787923177,0.026756998697916666],[-0.16351476033528645,0.03541005452473958],[-0.17695968627929687,0.04513753255208333],[-0.18677836100260417,0.051683349609375],[-0.1953092956542969,0.05785349527994792],[-0.20255238850911458,0.06364796956380209],[-0.21012013753255207,0.07058502197265625],[-0.21516525268554687,0.07499954223632813],[-0.21894912719726561,0.08004468282063802],[-0.22245269775390625,0.08417892456054688],[-0.2249524434407552,0.08712270100911458],[-0.2278962198893229,0.08962244669596355],[-0.23084004720052084,0.0921221923828125],[-0.23350433349609376,0.09345433553059895],[-0.23750076293945313,0.09611859639485677],[-0.24016504923502605,0.09789477030436199],[-0.24282933553059896,0.09922688802083333],[-0.24416147867838542,0.10011500040690104],[-0.24689809163411458,0.10240753173828125],[-0.24795145670572916,0.10381200154622396],[-0.24900482177734376,0.10521647135416666],[-0.24970703125,0.10662094116210938],[-0.24996546427408853,0.10758163452148438],[-0.25022389729817707,0.10854227701822916],[-0.25022389729817707,0.10950297037760416],[-0.25048233032226563,0.11001983642578125],[-0.25048233032226563,0.11049270629882812],[-0.25048233032226563,0.11070658365885416],[-0.25048233032226563,0.11070658365885416],[-0.25048233032226563,0.11143686930338542],[-0.25048233032226563,0.1119537353515625],[-0.25048233032226563,0.11221216837565104],[-0.2489361572265625,0.11287022908528646],[-0.2441230265299479,0.11375831604003907],[-0.24197413126627604,0.114832763671875],[-0.2384930928548177,0.11536997477213541],[-0.236458740234375,0.11581400553385417],[-0.23460968017578124,0.11625803629557292],[-0.23409988403320312,0.11650945027669271],[-0.23358301798502604,0.11650945027669271],[-0.23358301798502604,0.11650945027669271],[-0.23336883544921874,0.11672358194986979],[-0.2326373291015625,0.11698201497395834],[-0.23237889607747395,0.11698201497395834],[-0.2321649169921875,0.11698201497395834],[-0.2319511922200521,0.11698201497395834],[-0.2319511922200521,0.11698201497395834]]]",1,[104],,,,,,,,,,,,,,sandDunes_desert_outdoor9.jpg,space,4.1135,0,26,26,82,1,publicrestroom2.jpg,promenadeDeck3.jpg,readingroom4.jpg,postoffice4.jpg,,
Image_List_2,,,,,,,,,,,,,,,,46617,2022-03-01_15h52.24.293,analogCatScenes,2020.1.3,MacIntel,60,"[1920,1200]","[[[0.00592559814453125,-0.200711669921875],[0.00592559814453125,-0.200711669921875],[0.00592559814453125,-0.200711669921875],[0.00592559814453125,-0.200711669921875],[0.00592559814453125,-0.19987228393554687],[0.00592559814453125,-0.18646525065104166],[0.00592559814453125,-0.16575917561848957],[0.00592559814453125,-0.14763687133789063],[0.00592559814453125,-0.13303868611653646],[0.00592559814453125,-0.12296524047851562],[0.00592559814453125,-0.10973856608072917],[0.00592559814453125,-0.10525319417317708],[0.00592559814453125,-0.100767822265625],[0.00592559814453125,-0.09728683471679687],[0.00592559814453125,-0.0878271484375],[0.00592559814453125,-0.08032806396484375],[0.006462809244791667,-0.070880126953125],[0.008823598225911458,-0.060806681315104166],[0.0114398193359375,-0.05015436808268229],[0.012421061197916666,-0.04667332967122396],[0.012772165934244791,-0.04526885986328125],[0.013123270670572916,-0.04323450724283854],[0.014455413818359375,-0.03923807779947917],[0.014992624918619791,-0.03708918253580729],[0.01660430908203125,-0.03279144287109375],[0.0182159423828125,-0.02849365234375],[0.021252899169921874,-0.02286376953125],[0.022585042317708335,-0.020199483235677083],[0.02312225341796875,-0.01805058797200521],[0.02489837646484375,-0.015386301676432292],[0.028752848307291665,-0.009382680257161458],[0.03253672281901042,-0.0037069193522135417],[0.0352227783203125,0.00005360921223958333],[0.03772252400716146,0.0029974365234375],[0.039829254150390625,0.005104166666666667],[0.04116139729817708,0.005992228190104166],[0.043381601969401044,0.008212483723958334],[0.04767939249674479,0.010361328125],[0.057139078776041664,0.015406443277994791],[0.0634454345703125,0.017298380533854168],[0.06975189208984375,0.01982091267903646],[0.07505401611328125,0.021525980631510417],[0.08035603841145833,0.022693837483723958],[0.08565816243489584,0.0238616943359375],[0.09096028645833333,0.025029500325520832],[0.09740692138671875,0.02556671142578125],[0.09873911539713541,0.02556671142578125],[0.10077341715494792,0.02556671142578125],[0.10173411051432292,0.02556671142578125],[0.10250946044921876,0.02556671142578125]],[[-0.0054142252604166665,-0.20126261393229167],[-0.0054142252604166665,-0.20126261393229167],[-0.0054142252604166665,-0.20126261393229167],[-0.0054142252604166665,-0.20126261393229167],[-0.0054142252604166665,-0.20126261393229167],[-0.0054142252604166665,-0.20126261393229167],[-0.0054142252604166665,-0.20126261393229167],[-0.0054142252604166665,-0.20126261393229167],[-0.0054142252604166665,-0.20109115600585936],[-0.0054142252604166665,-0.19622843424479167],[-0.0054142252604166665,-0.1940795389811198],[-0.0054142252604166665,-0.19059855143229168],[-0.0054142252604166665,-0.18711751302083332],[-0.0054142252604166665,-0.17929061889648437],[-0.0054142252604166665,-0.16706827799479165],[-0.0054142252604166665,-0.15976918538411458],[-0.0054142252604166665,-0.1408251444498698],[-0.0054142252604166665,-0.12918019612630208],[-0.006862843831380208,-0.116142578125],[-0.00835662841796875,-0.10636128743489583],[-0.009080963134765625,-0.09766957600911458],[-0.010811564127604166,-0.08464289347330729],[-0.012542165120442709,-0.06846298217773437],[-0.013360392252604167,-0.057007853190104166],[-0.015185394287109376,-0.042219136555989585],[-0.016003621419270832,-0.03649154663085938],[-0.017828369140625,-0.014594268798828126],[-0.01883514404296875,-0.0023798624674479167],[-0.02056574503580729,0.010646769205729167],[-0.021920674641927082,0.018145853678385417],[-0.0224578857421875,0.023775787353515626],[-0.022995096842447917,0.0259246826171875],[-0.023883209228515626,0.028588968912760415],[-0.02486445109049479,0.03206995646158854],[-0.026640879313151043,0.036253255208333335],[-0.027436014811197916,0.03828760782877604],[-0.028396708170572917,0.03924825032552083],[-0.02874781290690104,0.03995051066080729],[-0.03041071573893229,0.041262308756510414],[-0.03200129191080729,0.04240880330403646],[-0.03403569539388021,0.043648020426432295],[-0.03751668294270833,0.04516652425130208],[-0.041513163248697915,0.046942647298177084],[-0.04417744954427083,0.04783075968424479],[-0.04487965901692708,0.04853302001953125],[-0.0469140625,0.049328155517578125],[-0.050280558268229164,0.05091847737630208],[-0.052944844563802086,0.05180653889973958],[-0.057242635091145834,0.05234375],[-0.06354904174804688,0.05360504150390625],[-0.07677571614583334,0.05360504150390625],[-0.08465215047200521,0.05360504150390625],[-0.09629709879557291,0.05143208821614583],[-0.10851943969726563,0.04573008219401042],[-0.117774658203125,0.04028427124023438],[-0.12345046997070312,0.03650039672851563],[-0.12826365152994793,0.034093831380208335],[-0.12922429402669272,0.03348429361979167],[-0.1297411600748698,0.03348429361979167],[-0.12999959309895834,0.03348429361979167],[-0.12999959309895834,0.03348429361979167],[-0.12999959309895834,0.03348429361979167],[-0.12999959309895834,0.03348429361979167],[-0.12999959309895834,0.03348429361979167],[-0.12999959309895834,0.03348429361979167],[-0.12999959309895834,0.03348429361979167],[-0.12999959309895834,0.03348429361979167],[-0.12999959309895834,0.03348429361979167],[-0.12999959309895834,0.03348429361979167]]]",2,"[50,69]",,,,,,,,,,,,,,lightingstore3.jpg,space,3.5436,0,27,27,60,1,hometheater2.jpg,homegarage.jpg,kindergarten_classroom6.jpg,hallway.jpg,,
Image_List_2,,,,,,,,,,,,,,,,46617,2022-03-01_15h52.24.293,analogCatScenes,2020.1.3,MacIntel,60,"[1920,1200]","[[[0.012108713785807291,-0.2029560343424479],[0.012108713785807291,-0.2029560343424479],[0.012108713785807291,-0.2029560343424479],[0.012108713785807291,-0.2029560343424479],[0.012108713785807291,-0.2029560343424479],[0.012108713785807291,-0.2029560343424479],[0.012108713785807291,-0.2029560343424479],[0.012108713785807291,-0.2029560343424479],[0.012108713785807291,-0.20004557291666666],[0.005438791910807292,-0.183685302734375],[-0.006759236653645834,-0.14977015177408853],[-0.011832275390625,-0.1244415283203125],[-0.020968831380208334,-0.09325220743815105],[-0.026898905436197915,-0.06934361775716145],[-0.030737508138020835,-0.054554901123046874],[-0.03429290771484375,-0.04152821858723958],[-0.04335398356119791,-0.01434478759765625],[-0.05078018188476562,0.0057308451334635415],[-0.05506184895833333,0.01794525146484375],[-0.05956319173177083,0.03217076619466146],[-0.06117482503255208,0.036468505859375],[-0.062342681884765626,0.0417706298828125],[-0.0636981201171875,0.05179595947265625],[-0.06495941162109375,0.0581024169921875],[-0.06559000651041667,0.06440882364908854],[-0.06738850911458333,0.07286412556966146],[-0.06855631510416667,0.07816624959309895],[-0.07000498453776041,0.0856653340657552],[-0.07082316080729166,0.09454610188802083],[-0.07173553466796875,0.10184519449869792],[-0.07309051513671876,0.1136901601155599],[-0.07309051513671876,0.11999659220377604],[-0.07309051513671876,0.12429435729980469],[-0.07309051513671876,0.12910751342773438],[-0.07309051513671876,0.13043965657552084],[-0.07309051513671876,0.13392069498697917],[-0.07255330403645834,0.13873387654622396],[-0.07122116088867188,0.14139816284179688],[-0.06963083902994792,0.1434325154622396],[-0.0664075215657552,0.14665583292643228],[-0.06507537841796875,0.1475439453125],[-0.059049224853515624,0.15357009887695314],[-0.05491500854492187,0.15707366943359374],[-0.05078074137369792,0.1612078857421875],[-0.046646525065104166,0.16534212748209634],[-0.04036341349283854,0.16992014567057293],[-0.039031270345052084,0.17080823262532552],[-0.035176595052083336,0.17314420064290365],[-0.03243998209635417,0.1747345225016276],[-0.03192311604817708,0.17499295552571614],[-0.03140625,0.17499295552571614],[-0.03114776611328125,0.17499295552571614]]]",1,[52],,,,,,,,,,,,,,volleyballcourt.jpg,space,9.6193,0,28,28,92,1,staircase.jpg,skatepark7.jpg,tvstudio2.jpg,soccerfield2.jpg,,
