image_list,key_resp_intructions.keys,key_resp_intructions.rt,key_resp_intructions_3.keys,key_resp_intructions_3.rt,PracticeComplete_2.keys,PracticeComplete_2.rt,PracticeComplete_3.keys,PracticeComplete_3.rt,demo_trials.thisRepN,demo_trials.thisTrialN,demo_trials.thisN,demo_trials.thisIndex,demo_trials.ran,demo_images,path_images,participant,date,expName,psychopyVersion,OS,frameRate,windowSize,drawing,numDrawings,drawingSizes,practice_complete.keys,practice_complete.rt,PracticeComplete.keys,PracticeComplete.rt,practice_trials.thisRepN,practice_trials.thisTrialN,practice_trials.thisN,practice_trials.thisIndex,practice_trials.ran,practice_images,feedback_images,key_resp_intructions_2.keys,key_resp_intructions_2.rt,Image_List_2,trial_complete.keys,trial_complete.rt,trials.thisRepN,trials.thisTrialN,trials.thisN,trials.thisIndex,trials.ran,Image_List_1,Image_List_3,Image_List_4,Image_List_5,key_resp.keys,key_resp.rt
Image_List_2,space,0.978,space,0.6242,space,2.9791,space,0.6031,0,0,0,4,1,left.jpg,left_path.jpg,46622,2022-02-06_16h21.19.999,analogCatScenes,2020.1.3,Win32,60,,,,,,,,,,,,,,,,,,,,,,,,,,,,,,,
Image_List_2,,,,,space,0.3348,space,0.1721,0,1,1,0,1,ahead.jpg,ahead_path.jpg,46622,2022-02-06_16h21.19.999,analogCatScenes,2020.1.3,Win32,60,,,,,,,,,,,,,,,,,,,,,,,,,,,,,,,
Image_List_2,,,,,space,0.1842,space,0.1903,0,2,2,5,1,right.jpg,right_path.jpg,46622,2022-02-06_16h21.19.999,analogCatScenes,2020.1.3,Win32,60,,,,,,,,,,,,,,,,,,,,,,,,,,,,,,,
Image_List_2,,,,,space,0.1409,space,0.1907,0,3,3,2,1,ahead_right.jpg,ahead_right_path.jpg,46622,2022-02-06_16h21.19.999,analogCatScenes,2020.1.3,Win32,60,,,,,,,,,,,,,,,,,,,,,,,,,,,,,,,
Image_List_2,,,,,space,0.1735,space,0.1982,0,4,4,3,1,ahead_right_left.jpg,ahead_right_left_path.jpg,46622,2022-02-06_16h21.19.999,analogCatScenes,2020.1.3,Win32,60,,,,,,,,,,,,,,,,,,,,,,,,,,,,,,,
Image_List_2,,,,,space,0.0012,space,0.1506,0,5,5,1,1,ahead_left.jpg,ahead_left_path.jpg,46622,2022-02-06_16h21.19.999,analogCatScenes,2020.1.3,Win32,60,,,,,,,,,,,,,,,,,,,,,,,,,,,,,,,
Image_List_2,,,,,space,1.0133,space,0.3272,0,6,6,6,1,right_left.jpg,right_left_path.jpg,46622,2022-02-06_16h21.19.999,analogCatScenes,2020.1.3,Win32,60,,,,,,,,,,,,,,,,,,,,,,,,,,,,,,,
Image_List_2,,,,,,,,,,,,,,,,46622,2022-02-06_16h21.19.999,analogCatScenes,2020.1.3,Win32,60,"[1536,864]",[],0,[],space,0.4019,space,0.2955,0,0,0,3,1,ahead_right_left_2.jpg,ahead_right_left_2_path.jpg,,,,,,,,,,,,,,,,
Image_List_2,,,,,,,,,,,,,,,,46622,2022-02-06_16h21.19.999,analogCatScenes,2020.1.3,Win32,60,"[1536,864]",[],0,[],space,0.3108,space,0.2835,0,1,1,1,1,ahead_left_2.jpg,ahead_left_2_path.jpg,,,,,,,,,,,,,,,,
Image_List_2,,,,,,,,,,,,,,,,46622,2022-02-06_16h21.19.999,analogCatScenes,2020.1.3,Win32,60,"[1536,864]",[],0,[],space,0.4984,space,0.3546,0,2,2,4,1,left_2.jpg,left_2_path.jpg,,,,,,,,,,,,,,,,
Image_List_2,,,,,,,,,,,,,,,,46622,2022-02-06_16h21.19.999,analogCatScenes,2020.1.3,Win32,60,"[1536,864]",[],0,[],space,0.4392,space,0.3324,0,3,3,0,1,ahead_2.jpg,ahead_2_path.jpg,,,,,,,,,,,,,,,,
Image_List_2,,,,,,,,,,,,,,,,46622,2022-02-06_16h21.19.999,analogCatScenes,2020.1.3,Win32,60,"[1536,864]",[],0,[],space,0.2723,space,0.3441,0,4,4,2,1,ahead_right_2.jpg,ahead_right_2_path.jpg,,,,,,,,,,,,,,,,
Image_List_2,,,,,,,,,,,,,,,,46622,2022-02-06_16h21.19.999,analogCatScenes,2020.1.3,Win32,60,"[1536,864]",[],0,[],space,0.3328,space,0.2717,0,5,5,5,1,right_2.jpg,right_2_path.jpg,,,,,,,,,,,,,,,,
Image_List_2,,,,,,,,,,,,,,,,46622,2022-02-06_16h21.19.999,analogCatScenes,2020.1.3,Win32,60,"[1536,864]",[],0,[],space,0.2554,space,0.1991,0,6,6,6,1,right_left_2.jpg,right_left_2_path.jpg,,,,,,,,,,,,,,,,
Image_List_2,,,,,,,,,,,,,,,,46622,2022-02-06_16h21.19.999,analogCatScenes,2020.1.3,Win32,60,"[1536,864]","[[[0.006481551337574105,-0.18888889915413326],[0.006481551337574105,-0.18888889915413326],[0.006481551337574105,-0.18888889915413326],[0.006481551337574105,-0.18888889915413326],[0.006481551337574105,-0.18888889915413326],[0.006481551337574105,-0.18888889915413326],[0.006481551337574105,-0.18888889915413326],[0.009259272642709591,-0.1814814916363469],[0.014814828281049375,-0.16944445441994402],[0.02314816173855905,-0.14907408374603148],[0.03148149519606873,-0.1342592687104587],[0.0407407545933017,-0.11666667585571606],[0.06203705120693754,-0.07962963826678417],[0.07500001436306371,-0.062037045412041525],[0.08981482939863647,-0.04444445255729887],[0.10925927413282571,-0.021296304064216436],[0.12314816322867517,-0.012037044666983463],[0.14074075608341782,-0.0018518593300271917],[0.1462963117217576,0.001851844428865998],[0.1490740895409275,0.0037036963083125927],[0.15370371923954398,0.006481474127482485],[0.15555557111899057,0.007407400067205782],[0.15648149705871386,0.007407400067205782],[0.15740742299843719,0.007407400067205782],[0.15925927487788377,0.007407400067205782],[0.16018520081760707,0.007407400067205782],[0.16111112675733036,0.008333326006929079],[0.16296297863677697,0.008333326006929079],[0.16388890457650027,0.008333326006929079],[0.16388890457650027,0.008333326006929079],[0.16481483051622356,0.008333326006929079],[0.16481483051622356,0.008333326006929079]],[[0.0055555688838164015,-0.19444445479247305],[0.0055555688838164015,-0.19444445479247305],[0.0055555688838164015,-0.19444445479247305],[0.0055555688838164015,-0.19444445479247305],[0.0055555688838164015,-0.19444445479247305],[0.0055555688838164015,-0.19444445479247305],[0.0055555688838164015,-0.19444445479247305],[0.0055555688838164015,-0.19444445479247305],[0.0009259391851999142,-0.18611112133496338],[-0.007407337758275356,-0.17222223223911393],[-0.017592579609266034,-0.16111112096243435],[-0.04351850592151836,-0.1425926021679684],[-0.05648146907764452,-0.13055556495156553],[-0.06759252384028969,-0.11666667585571606],[-0.07777776569128036,-0.10370376921362431],[-0.08333332132962015,-0.09907413951500782],[-0.08796295102823663,-0.09444450981639134],[-0.09537030203198861,-0.08055556420650747],[-0.09907406230491621,-0.0712963048092745],[-0.09907406230491621,-0.06388889729148811],[-0.09907406230491621,-0.055555563833978444],[-0.09722221042546961,-0.05092593413536196],[-0.09259258072685313,-0.04074074879840568],[-0.07962961757072697,-0.019444452184769843],[-0.07129628411321728,-0.007407414968366976],[-0.0657407284748775,-7.450580596923828e-9],[-0.053703634744440225,0.010185177886375674],[-0.04814813562013485,0.014814807584992162],[-0.04351850592151836,0.017592585404162055],[-0.03888887622290187,0.021296289163055242],[-0.035185115949974276,0.02314814104250184],[-0.03333332058456209,0.02314814104250184],[-0.03240739464483879,0.02314814104250184],[-0.03148146870511549,0.02314814104250184],[-0.030555486251357792,0.02314814104250184],[-0.030555486251357792,0.02314814104250184],[-0.0296296168256689,0.024074066982225136],[-0.027777764946222305,0.02592591886167173]]]",2,"[32,38]",,,,,,,,,,,,space,0.2578,cave.jpg,space,5.1349,0,0,0,20,1,boardwalk6.jpg,campsite3.jpg,cave4.jpg,basketballcourt7.jpg,,
Image_List_2,,,,,,,,,,,,,,,,46622,2022-02-06_16h21.19.999,analogCatScenes,2020.1.3,Win32,60,"[1536,864]","[[[-0.0037036905134165726,-0.20370371418970604],[-0.0037036905134165726,-0.20370371418970604],[-0.0037036905134165726,-0.20370371418970604],[-0.0037036905134165726,-0.20370371418970604],[-0.0037036905134165726,-0.20370371418970604],[-0.0009259126942466806,-0.19166673348733756],[0.0018519216389576184,-0.1768518619377304],[0.003703717004369806,-0.16018519502271106],[0.008333346702986293,-0.12962963901184224],[0.009259272642709591,-0.1083333989122408],[0.010185198582432888,-0.09259260142291034],[0.010185198582432888,-0.0703703788695512],[0.010185198582432888,-0.05648148977370174],[0.009259272642709591,-0.04444445255729887],[0.007407420763262996,-0.03796297097923579],[0.0055555688838164015,-0.03148148940117271],[0.003703717004369806,-0.02407408188338633],[0.002777791064646509,-0.02037037812449314],[0.002777791064646509,-0.018518526245046546],[0.002777791064646509,-0.018518526245046546],[0.002777791064646509,-0.018518526245046546],[0.002777791064646509,-0.018518526245046546]]]",1,[22],,,,,,,,,,,,,,lightingstore3.jpg,space,1.8463,0,1,1,60,1,hometheater2.jpg,homegarage.jpg,kindergarten_classroom6.jpg,hallway.jpg,,
Image_List_2,,,,,,,,,,,,,,,,46622,2022-02-06_16h21.19.999,analogCatScenes,2020.1.3,Win32,60,"[1536,864]","[[[0.0009259391851999142,-0.20277778824998272],[0.0009259391851999142,-0.20277778824998272],[0.0009259391851999142,-0.20277778824998272],[0.0009259391851999142,-0.20277778824998272],[0.0009259391851999142,-0.20277778824998272],[0.004629642944093104,-0.20185186231025942],[0.007407420763262996,-0.20185186231025942],[0.008333346702986293,-0.20185186231025942],[0.009259272642709591,-0.20185186231025942],[0.010185198582432888,-0.20000001043081284],[0.010185198582432888,-0.19722223261164296],[0.010185198582432888,-0.19629636318595406],[0.010185198582432888,-0.19444445479247305],[0.010185198582432888,-0.19351852885274975],[0.009259272642709591,-0.19166673348733756],[0.008333346702986293,-0.19166673348733756],[0.007407420763262996,-0.19074075103357988],[0.0055555688838164015,-0.18981482509385655],[0.004629642944093104,-0.18981482509385655],[0.003703717004369806,-0.18796297321440997],[0.002777791064646509,-0.18796297321440997],[0.0018519216389576184,-0.18703710378872107],[1.3245476616753471e-8,-0.1851851953952401],[-0.001851838633969978,-0.18425926945551677],[-0.00462961645313987,-0.18333334351579347],[-0.011111098031202951,-0.1805555656966236],[-0.02685183900649901,-0.1759259359980071],[-0.0296296168256689,-0.1750000100582838],[-0.03796295028317858,-0.1712963062993906],[-0.04722220968041155,-0.16944445441994402],[-0.05648146907764452,-0.16759260254049743],[-0.07685178323752266,-0.16203704690215764],[-0.09351850666657642,-0.16018519502271106],[-0.10462956142922158,-0.15925932559702216],[-0.12777770992230403,-0.15185186156520136],[-0.14166659901815348,-0.14907408374603148],[-0.15740739650748395,-0.1453704365011727],[-0.16574072996499362,-0.1435185281076917],[-0.1749999893622266,-0.1416666762282451],[-0.19074073033752265,-0.1388888984090752],[-0.19814813785530902,-0.1379629724693519],[-0.20277776755392551,-0.1379629724693519],[-0.2083333231922653,-0.1379629724693519],[-0.2129629528908818,-0.13518519465018203],[-0.21574067419601728,-0.1333333427707354],[-0.22314813822783805,-0.12592593525294904],[-0.22870369386617784,-0.12037037961460927],[-0.23333332356479433,-0.11481482397626948],[-0.2370370273236875,-0.1083333989122408],[-0.2388888226890997,-0.10092593488042001],[-0.241666657022304,-0.09166667548318704],[-0.2425925829620273,-0.07777778638733758],[-0.2425925829620273,-0.0703703788695512],[-0.2425925829620273,-0.06388889729148811],[-0.2425925829620273,-0.05185186007508525],[-0.241666657022304,-0.04537037849702217],[-0.2398148051428574,-0.03981482285868238],[-0.23796295326341083,-0.0333333412806193],[-0.2361111013839642,-0.025925933762832924],[-0.22777776792645454,-0.013888896546430059],[-0.21944443446894488,0.001851844428865998],[-0.18611110063890615,0.04074070564022728],[-0.16018511781261943,0.06759258614922012],[-0.1351851739541248,0.08981480870257925],[-0.11944443297882874,0.09722221622036563],[-0.10555554388297929,0.10092589172224162],[-0.09444443260629971,0.10277777185870542],[-0.08888887696795994,0.10277777185870542],[-0.08148141293613914,0.10277777185870542],[-0.07407406193238718,0.104629623738152],[-0.06944443223377068,0.104629623738152],[-0.0648148025351542,0.104629623738152],[-0.059259246896814416,0.10370369779842871],[-0.05648146907764452,0.10370369779842871],[-0.051851839379028035,0.10277777185870542],[-0.04907400504582374,0.10092589172224162],[-0.046296283740688254,0.09999999403953552],[-0.04351850592151836,0.09907406809981223],[-0.03888887622290187,0.09814814216008892],[-0.03240739464483879,0.09722221622036563],[-0.02499998712705241,0.09722221622036563],[-0.019444431488712628,0.09814814216008892],[-0.01666659715550833,0.09907406809981223],[-0.014814801790096142,0.09907406809981223],[-0.013888875850372844,0.09907406809981223],[-0.012962949910649547,0.09907406809981223],[-0.012962949910649547,0.09907406809981223],[-0.012036967456891843,0.09907406809981223],[-0.012036967456891843,0.09907406809981223],[-0.012036967456891843,0.09907406809981223],[-0.012036967456891843,0.09907406809981223]]]",1,[91],,,,,,,,,,,,,,casino3.jpg,space,3.7433,0,2,2,19,1,boardwalk2.jpg,cafeteria1.jpg,castle4.jpg,basketballcourt.jpg,,
Image_List_2,,,,,,,,,,,,,,,,46622,2022-02-06_16h21.19.999,analogCatScenes,2020.1.3,Win32,60,"[1536,864]","[[[-0.007407337758275356,-0.2092592698280458],[-0.007407337758275356,-0.2092592698280458],[-0.007407337758275356,-0.2092592698280458],[-0.007407337758275356,-0.2092592698280458],[-0.007407337758275356,-0.2092592698280458],[-0.007407337758275356,-0.2092592698280458],[-0.007407337758275356,-0.2092592698280458],[-0.007407337758275356,-0.2092592698280458],[-0.009259246151756358,-0.2092592698280458],[-0.020370357428435928,-0.2083333438883225],[-0.03333332058456209,-0.20462964012942933],[-0.05462961719819793,-0.19814815855136625],[-0.07685178323752266,-0.19444445479247305],[-0.09722221042546961,-0.18888889915413326],[-0.12685184049661513,-0.1759259359980071],[-0.1444444333513578,-0.16203704690215764],[-0.16203702620610042,-0.1425926021679684],[-0.18425924875945957,-0.09907413951500782],[-0.19259252570293484,-0.066666675110658],[-0.19537036003613914,-0.037037045039512495],[-0.19629628597586243,-0.002777785269750489],[-0.19537036003613914,0.020370363223331946],[-0.19351850815669255,0.03425925231918141],[-0.18981480439779935,0.04999996503746026],[-0.18796289600431834,0.05925922443469323],[-0.18703702657862945,0.06481480833005022],[-0.18611110063890615,0.06851848383192621],[-0.18611110063890615,0.0694444380286667],[-0.18611110063890615,0.0694444380286667],[-0.18611110063890615,0.07037036396839001],[-0.18611110063890615,0.07037036396839001],[-0.18611110063890615,0.07037036396839001],[-0.18611110063890615,0.07037036396839001],[-0.18611110063890615,0.07037036396839001],[-0.18703702657862945,0.0712962899081133]]]",1,[35],,,,,,,,,,,,,,banquetHall4.jpg,space,3.5917,0,3,3,7,1,attic2.jpg,backstage1.jpg,baggageClaim3.jpg,applestore2.jpg,,
Image_List_2,,,,,,,,,,,,,,,,46622,2022-02-06_16h21.19.999,analogCatScenes,2020.1.3,Win32,60,"[1536,864]","[[[0.0018519216389576184,-0.20370371418970604],[0.0018519216389576184,-0.20370371418970604],[0.0018519216389576184,-0.20370371418970604],[0.0018519216389576184,-0.20370371418970604],[0.0018519216389576184,-0.20370371418970604],[0.0018519216389576184,-0.20370371418970604],[0.0018519216389576184,-0.20370371418970604],[0.011111181036190592,-0.20000001043081284],[0.036111124894685216,-0.1824074740901046],[0.054629643689151165,-0.1712963062993906],[0.06574075496583073,-0.16388895529563866],[0.0805555700014035,-0.15925932559702216],[0.09074075533835976,-0.15555556532409456],[0.09814816285614614,-0.15370371344464798],[0.10648149631365582,-0.15277778750492466],[0.10833334819310242,-0.15277778750492466],[0.1111111260122723,-0.15185186156520136],[0.1148148297711655,-0.15185186156520136],[0.11666668165061209,-0.15185186156520136],[0.1175926075903354,-0.15185186156520136],[0.12222223728895187,-0.15185186156520136],[0.12407408916839847,-0.15185186156520136],[0.12592594104784507,-0.15185186156520136],[0.12870371886701495,-0.15185186156520136],[0.13148149668618483,-0.15185186156520136],[0.13333334856563145,-0.15185186156520136],[0.13611112638480133,-0.15092593562547807],[0.13703705232452462,-0.15092593562547807],[0.13703705232452462,-0.15092593562547807],[0.13796297826424794,-0.15092593562547807],[0.13981483014369453,-0.15092593562547807],[0.13981483014369453,-0.15092593562547807],[0.14074075608341782,-0.15092593562547807],[0.14166668202314112,-0.15092593562547807],[0.14074075608341782,-0.15092593562547807],[0.14074075608341782,-0.15092593562547807],[0.14074075608341782,-0.15092593562547807],[0.14074075608341782,-0.15092593562547807],[0.14074075608341782,-0.15092593562547807],[0.14074075608341782,-0.15092593562547807],[0.14074075608341782,-0.15092593562547807],[0.14074075608341782,-0.15092593562547807],[0.13981483014369453,-0.15092593562547807],[0.13888890420397124,-0.15092593562547807],[0.13796297826424794,-0.15092593562547807],[0.13611112638480133,-0.15092593562547807],[0.13425927450535474,-0.15092593562547807],[0.13333334856563145,-0.15092593562547807],[0.13333334856563145,-0.15092593562547807],[0.13333334856563145,-0.15092593562547807],[0.13425927450535474,-0.15092593562547807],[0.15648149705871386,-0.144444454047415],[0.16759260833539344,-0.1407408068025562],[0.1796296455517963,-0.1388888984090752],[0.1861111271298594,-0.13703704652962861],[0.1898148308887526,-0.13703704652962861],[0.19444446058736908,-0.13518519465018203],[0.19814816434626226,-0.1342592687104587],[0.20000001622570884,-0.1342592687104587],[0.20092594216543216,-0.1333333427707354],[0.20185186810515546,-0.1333333427707354],[0.20277779404487875,-0.1333333427707354],[0.20370371998460204,-0.13148154740532322],[0.20462964592432534,-0.12962963901184224],[0.20462964592432534,-0.12685191770670676],[0.20462964592432534,-0.12685191770670676],[0.20370371998460204,-0.12685191770670676]]]",1,[67],,,,,,,,,,,,,,newsstand7.jpg,space,3.4587,0,4,4,65,1,igloo5.jpg,laundromat2.jpeg,labClass7.jpg,homeoffice8.jpg,,
Image_List_2,,,,,,,,,,,,,,,,46622,2022-02-06_16h21.19.999,analogCatScenes,2020.1.3,Win32,60,"[1536,864]","[[[-0.0037036905134165726,-0.20000001043081284],[-0.0037036905134165726,-0.20000001043081284],[-0.0037036905134165726,-0.20000001043081284],[-0.0037036905134165726,-0.20000001043081284],[-0.001851838633969978,-0.19814815855136625],[0.012037050461879483,-0.18796297321440997],[0.024074087678282348,-0.178703713817177],[0.038888959227889514,-0.16666667660077414],[0.05833334744804435,-0.1472222318665849],[0.07407408842334041,-0.1342592687104587],[0.08611112563974327,-0.12222228800809026],[0.09722223691642284,-0.11018519427765298],[0.1111111260122723,-0.09351852736263364],[0.11388890383144219,-0.08796297172429385],[0.1148148297711655,-0.08240741608595406],[0.11574075571088879,-0.06574074917093471],[0.11574075571088879,-0.05000000819563866],[0.1148148297711655,-0.042592600677852276],[0.110185200072549,-0.03796297097923579],[0.10925927413282571,-0.0342592672203426],[0.10740742225337911,-0.03148148940117271],[0.10648149631365582,-0.02407408188338633],[0.10555557037393253,-0.02037037812449314],[0.10370371849448592,-0.01759260030532325],[0.10277779255476263,-0.01296297060670676],[0.10092594067531603,-0.011111118727260165]]]",1,[26],,,,,,,,,,,,,,hut3.jpg,space,1.6724,0,5,5,56,1,grocerystore5.jpg,golfcourse10.jpg,hut1.jpg,gasstation2.jpg,,
Image_List_2,,,,,,,,,,,,,,,,46622,2022-02-06_16h21.19.999,analogCatScenes,2020.1.3,Win32,60,"[1536,864]","[[[1.3245476616753471e-8,-0.20370371418970604],[1.3245476616753471e-8,-0.20370371418970604],[1.3245476616753471e-8,-0.20370371418970604],[1.3245476616753471e-8,-0.20370371418970604],[1.3245476616753471e-8,-0.20370371418970604],[1.3245476616753471e-8,-0.20370371418970604],[1.3245476616753471e-8,-0.20370371418970604],[0.02314816173855905,-0.20185186231025942],[0.0425926064727483,-0.19814815855136625],[0.060185199327490946,-0.19351852885274975],[0.08888890345891316,-0.18888889915413326],[0.10277779255476263,-0.18796297321440997],[0.1129629778917189,-0.18796297321440997],[0.12777779292729166,-0.18888889915413326],[0.13703705232452462,-0.18888889915413326],[0.1435185339025877,-0.18888889915413326],[0.1518518673600974,-0.18888889915413326],[0.15555557111899057,-0.18611112133496338],[0.15925927487788377,-0.18333334351579347],[0.16388890457650027,-0.1750000100582838],[0.16388890457650027,-0.16851858499425512],[0.16018520081760707,-0.16018519502271106],[0.15740742299843719,-0.15555556532409456],[0.15740742299843719,-0.15462969589840567],[0.15740742299843719,-0.15462969589840567],[0.15740742299843719,-0.15462969589840567],[0.15740742299843719,-0.15462969589840567],[0.15740742299843719,-0.15462969589840567],[0.15740742299843719,-0.15462969589840567],[0.15740742299843719,-0.15462969589840567],[0.15740742299843719,-0.15462969589840567],[0.15740742299843719,-0.15462969589840567],[0.15740742299843719,-0.15462969589840567],[0.15740742299843719,-0.15462969589840567],[0.15740742299843719,-0.15462969589840567],[0.15740742299843719,-0.15462969589840567],[0.15740742299843719,-0.15462969589840567],[0.15740742299843719,-0.15462969589840567],[0.15740742299843719,-0.15462969589840567],[0.17777779367234972,-0.1398148243487985],[0.21018520156266512,-0.11111112021737629],[0.23888890569408736,-0.08240741608595406],[0.2694444617049562,-0.061111119472318225],[0.2777777951624658,-0.054629637894255144],[0.2842592767405289,-0.04629630443674547],[0.2888889064391454,-0.04074074879840568],[0.2898148323788687,-0.03981482285868238],[0.2898148323788687,-0.03796297097923579],[0.2898148323788687,-0.0342592672203426],[0.2898148323788687,-0.03240741534089601],[0.2898148323788687,-0.03148148940117271],[0.2898148323788687,-0.028703711582002817],[0.2888889064391454,-0.02777778564227952],[0.2888889064391454,-0.02777778564227952],[0.2888889064391454,-0.02777778564227952]],[[1.3245476616753471e-8,-0.19074075103357988],[1.3245476616753471e-8,-0.19074075103357988],[1.3245476616753471e-8,-0.19074075103357988],[1.3245476616753471e-8,-0.19074075103357988],[1.3245476616753471e-8,-0.19074075103357988],[1.3245476616753471e-8,-0.19074075103357988],[1.3245476616753471e-8,-0.19074075103357988],[1.3245476616753471e-8,-0.19074075103357988],[1.3245476616753471e-8,-0.19074075103357988],[1.3245476616753471e-8,-0.19166673348733756],[1.3245476616753471e-8,-0.19351852885274975],[-0.009259246151756358,-0.19444445479247305],[-0.03888887622290187,-0.19444445479247305],[-0.0657407284748775,-0.19166673348733756],[-0.09259258072685313,-0.18703710378872107],[-0.12777770992230403,-0.1768518619377304],[-0.14722221117052767,-0.17222223223911393],[-0.16481474751123593,-0.16944445441994402],[-0.18611110063890615,-0.16481482472132752],[-0.19537036003613914,-0.16296297284188094],[-0.19999998973475563,-0.16203704690215764],[-0.207407397252542,-0.15833334314326444],[-0.2129629528908818,-0.15092593562547807],[-0.21666665664977497,-0.1425926021679684],[-0.21944443446894488,-0.13148154740532322],[-0.21944443446894488,-0.12500000931322575],[-0.21666665664977497,-0.11111112021737629],[-0.207407397252542,-0.08055556420650747],[-0.19999998973475563,-0.066666675110658],[-0.18981480439779935,-0.05000000819563866],[-0.18425924875945957,-0.04166667473812898],[-0.17870363660708538,-0.0351851931600659],[-0.1749999893622266,-0.029629637521726114],[-0.1740740069084689,-0.02685185970255622],[-0.1722222115430567,-0.025925933762832924],[-0.1722222115430567,-0.025000007823109627],[-0.1712962856033334,-0.02407408188338633],[-0.1712962856033334,-0.02407408188338633],[-0.16851850778416352,-0.023148155943663033]]]",2,"[55,39]",,,,,,,,,,,,,,trainStation5.jpg,space,4.5671,0,6,6,91,1,shoestore2.jpg,skatepark5.jpg,ticket_counter6.jpg,sidewalk3.jpg,,
Image_List_2,,,,,,,,,,,,,,,,46622,2022-02-06_16h21.19.999,analogCatScenes,2020.1.3,Win32,60,"[1536,864]","[[[-0.00462961645313987,-0.20092599288457055],[-0.00462961645313987,-0.20092599288457055],[-0.00462961645313987,-0.20092599288457055],[-0.00462961645313987,-0.20092599288457055],[-0.00462961645313987,-0.20092599288457055],[-0.00462961645313987,-0.20092599288457055],[-0.00462961645313987,-0.20092599288457055],[0.036111124894685216,-0.15092593562547807],[0.06203705120693754,-0.11759265830947377],[0.09444445909725295,-0.07314815668872109],[0.11851853353005869,-0.04722223037646876],[0.1435185339025877,-0.02407408188338633],[0.16296297863677697,-0.0037037112094737866],[0.1842592752504128,0.014814807584992162],[0.19166668276819918,0.021296289163055242],[0.19629631246681567,0.024074066982225136],[0.19907409028598555,0.028703696680841623],[0.20092594216543216,0.03148144624299431],[0.20092594216543216,0.03333332637945811],[0.20185186810515546,0.03518517825890471],[0.20185186810515546,0.036111075941610796],[0.20277779404487875,0.036111075941610796],[0.20277779404487875,0.036111075941610796],[0.20277779404487875,0.036111075941610796],[0.20277779404487875,0.036111075941610796],[0.20277779404487875,0.0370370301383513]],[[1.3245476616753471e-8,-0.20185186231025942],[1.3245476616753471e-8,-0.20185186231025942],[1.3245476616753471e-8,-0.20185186231025942],[1.3245476616753471e-8,-0.20185186231025942],[1.3245476616753471e-8,-0.20185186231025942],[1.3245476616753471e-8,-0.20185186231025942],[1.3245476616753471e-8,-0.20185186231025942],[1.3245476616753471e-8,-0.20185186231025942],[1.3245476616753471e-8,-0.20185186231025942],[1.3245476616753471e-8,-0.20185186231025942],[1.3245476616753471e-8,-0.20185186231025942],[-0.017592579609266034,-0.19259260291302646],[-0.04166665404207177,-0.1814814916363469],[-0.06851850629404739,-0.16666667660077414],[-0.10833332170214918,-0.1416666762282451],[-0.12870369237606172,-0.13240741683101212],[-0.15648147056776066,-0.12685191770670676],[-0.1675925818444402,-0.12592593525294904],[-0.1759259153019499,-0.12592593525294904],[-0.18425924875945957,-0.12592593525294904],[-0.1990740637950323,-0.12592593525294904],[-0.207407397252542,-0.12592593525294904],[-0.2129629528908818,-0.12592593525294904],[-0.21574067419601728,-0.12592593525294904],[-0.21759258258949826,-0.12592593525294904],[-0.21851850852922158,-0.12592593525294904],[-0.21944443446894488,-0.12592593525294904],[-0.22129628634839146,-0.12592593525294904],[-0.22222221228811476,-0.12592593525294904],[-0.22222221228811476,-0.12592593525294904],[-0.22314813822783805,-0.12592593525294904]],[[-0.001851838633969978,-0.19629636318595406],[-0.001851838633969978,-0.19629636318595406],[-0.001851838633969978,-0.19629636318595406],[-0.001851838633969978,-0.19629636318595406],[-0.001851838633969978,-0.19629636318595406],[-0.001851838633969978,-0.19629636318595406],[0.003703717004369806,-0.1851851953952401],[0.01296297640160278,-0.1703703803596673],[0.024074087678282348,-0.15185186156520136],[0.03703705083440851,-0.13240741683101212],[0.047222236171364784,-0.11666667585571606],[0.05740747802235546,-0.10370376921362431],[0.06851853278500063,-0.08796297172429385],[0.07314816248361711,-0.08240741608595406],[0.075925940302787,-0.07685186044761429],[0.0805555700014035,-0.06759260105038131],[0.08240742188085008,-0.061111119472318225],[0.08333334782057339,-0.053703711954531844],[0.08425927376029668,-0.042592600677852276],[0.08425927376029668,-0.03981482285868238],[0.08425927376029668,-0.036111119099789195],[0.08333334782057339,-0.03148148940117271],[0.08148149594112679,-0.025925933762832924],[0.0777777921822336,-0.019444452184769843],[0.07500001436306371,-0.014814822486153355],[0.07222223654389381,-0.011111118727260165],[0.06944445872472392,-0.005555563088920381],[0.06666668090555403,-0.0018518593300271917],[0.06388890308638413,-7.450580596923828e-9],[0.05925927338776765,0.002777770368589295],[0.05740747802235546,0.00462962224803589],[0.054629643689151165,0.005555548187759187],[0.05000001399053468,0.007407400067205782],[0.047222236171364784,0.009259251946652378],[0.04537038429191819,0.011111103826098971],[0.041666680533025,0.01203702976582227],[0.0407407545933017,0.012962955705545566],[0.0398148286535784,0.013888881645268865],[0.03796297677413181,0.014814807584992162],[0.03703705083440851,0.014814807584992162],[0.035185198954961916,0.014814807584992162],[0.034259329529273026,0.014814807584992162],[0.034259329529273026,0.014814807584992162]]]",3,"[26,31,43]",,,,,,,,,,,,,,gasstation8.jpg,space,5.4505,0,7,7,47,1,frontDoor.jpg,firestation4.jpg,fountain7.jpg,elevatorOutside2.jpg,,
Image_List_2,,,,,,,,,,,,,,,,46622,2022-02-06_16h21.19.999,analogCatScenes,2020.1.3,Win32,60,"[1536,864]","[[[0.0055555688838164015,-0.2074074179485992],[0.0055555688838164015,-0.2074074179485992],[0.0055555688838164015,-0.2074074179485992],[0.0055555688838164015,-0.2074074179485992],[0.0055555688838164015,-0.2074074179485992],[0.0055555688838164015,-0.2074074179485992],[0.0055555688838164015,-0.2074074179485992],[0.0055555688838164015,-0.2074074179485992],[0.0055555688838164015,-0.2074074179485992],[0.0055555688838164015,-0.19814815855136625],[0.006481551337574105,-0.18796297321440997],[0.006481551337574105,-0.1805555656966236],[0.0055555688838164015,-0.16111112096243435],[0.0009259391851999142,-0.1425926021679684],[-0.00833332021203306,-0.12314815743377915],[-0.025925856552741305,-0.08888889766401714],[-0.03611109840373198,-0.0685185269901046],[-0.046296283740688254,-0.049074082255915356],[-0.05648146907764452,-0.02777778564227952],[-0.06111109877626101,-0.02037037812449314],[-0.06388887659543091,-0.01759260030532325],[-0.06759252384028969,-0.013888896546430059],[-0.06944443223377068,-0.01296297060670676],[-0.07037035817349399,-0.012037044666983463],[-0.07222215353890617,-0.012037044666983463],[-0.07222215353890617,-0.011111118727260165],[-0.07222215353890617,-0.011111118727260165],[-0.07407406193238718,-0.005555563088920381]],[[0.008333346702986293,-0.19722223261164296],[0.008333346702986293,-0.19722223261164296],[0.008333346702986293,-0.19722223261164296],[0.008333346702986293,-0.19722223261164296],[0.02777779143717554,-0.18611112133496338],[0.04814821862512249,-0.1703703803596673],[0.08148149594112679,-0.1388888984090752],[0.13888890420397124,-0.10185186082014332],[0.16388890457650027,-0.08425926796540066],[0.18240742337096622,-0.0740740826284444],[0.19722223840653896,-0.06296297135176482],[0.19907409028598555,-0.061111119472318225],[0.20092594216543216,-0.061111119472318225],[0.20185186810515546,-0.061111119472318225],[0.20185186810515546,-0.05925926759287163],[0.20092594216543216,-0.05833334165314833]],[[0.007407420763262996,-0.19074075103357988],[0.007407420763262996,-0.19074075103357988],[0.007407420763262996,-0.19074075103357988],[0.007407420763262996,-0.19074075103357988],[0.007407420763262996,-0.19074075103357988],[0.007407420763262996,-0.19074075103357988],[0.007407420763262996,-0.19074075103357988],[-0.006481468332586465,-0.18981482509385655],[-0.03888887622290187,-0.18425926945551677],[-0.08888887696795994,-0.17222223223911393],[-0.11574072921993556,-0.16203704690215764],[-0.1398148036527413,-0.15370371344464798],[-0.1740740069084689,-0.1388888984090752],[-0.19074073033752265,-0.12870371307211895],[-0.2037036934936488,-0.11388889803654617],[-0.21574067419601728,-0.10092593488042001],[-0.22222221228811476,-0.09259260142291034],[-0.22685184198673125,-0.08796297172429385]]]",3,"[28,16,18]",,,,,,,,,,,,,,farm1.jpg,space,17.8335,0,8,8,40,1,drycleaners4.jpg,drymountains.jpg,dugout1.jpg,clothingstore3.jpg,,
Image_List_2,,,,,,,,,,,,,,,,46622,2022-02-06_16h21.19.999,analogCatScenes,2020.1.3,Win32,60,"[1536,864]","[[[0.003703717004369806,-0.20000001043081284],[0.003703717004369806,-0.20000001043081284],[0.003703717004369806,-0.20000001043081284],[0.003703717004369806,-0.20000001043081284],[0.006481551337574105,-0.19444445479247305],[0.030555569256345432,-0.16481482472132752],[0.05185186586998127,-0.1388888984090752],[0.07407408842334041,-0.11759265830947377],[0.110185200072549,-0.08425926796540066],[0.13055557074646154,-0.06759260105038131],[0.1472222376614809,-0.05277778601480855],[0.16666668239567015,-0.03240741534089601],[0.17870371961207301,-0.01296297060670676],[0.1898148308887526,0.002777770368589295],[0.20555557186404863,0.027777770741118327],[0.21481483126128162,0.04722221547530757],[0.2194444609598981,0.057407400812263844],[0.222222238779068,0.06574073426977352],[0.222222238779068,0.0740740677272832],[0.22407409065851458,0.08611110494368607],[0.2259259425379612,0.10185184591898212],[0.22500001659823787,0.10370369779842871],[0.222222238779068,0.11018515111947459],[0.2203703868996214,0.11759258689427818],[0.2175926090804515,0.12314814253261795],[0.21481483126128162,0.13055555005040434],[0.21111112750238842,0.13518517974902083],[0.20648149780377192,0.14074073538736062],[0.20000001622570884,0.14722218870840648],[0.19814816434626226,0.15092592072431688],[0.19629631246681567,0.15370369854348678],[0.19259260870792247,0.15740740230237996],[0.1898148308887526,0.15925925418182654],[0.187962979009306,0.16296295794071974],[0.1851852011901361,0.16666666169961294],[0.1833333493106895,0.16944443951878282],[0.1814814974312429,0.1712962913982294],[0.1805555714915196,0.1749999669001054],[0.1805555714915196,0.1759259210968459],[0.1796296455517963,0.1768518470365692],[0.17870371961207301,0.1768518470365692],[0.17685186773262643,0.1787036989160158],[0.17592594179290313,0.1805555507954624],[0.16666668239567015,0.18425922629733837],[0.15925927487788377,0.1851851804940789]]]",1,[45],,,,,,,,,,,,,,driveway4.jpg,space,2.4172,0,9,9,37,1,dining_car.jpg,dinosaur4.jpg,driveway7.jpg,citystreet9.jpg,,
Image_List_2,,,,,,,,,,,,,,,,46622,2022-02-06_16h21.19.999,analogCatScenes,2020.1.3,Win32,60,"[1536,864]","[[[-0.007407337758275356,-0.20462964012942933],[-0.007407337758275356,-0.20462964012942933],[-0.007407337758275356,-0.20462964012942933],[-0.007407337758275356,-0.20462964012942933],[-0.007407337758275356,-0.20462964012942933],[-0.00462961645313987,-0.18611112133496338],[0.0018519216389576184,-0.16018519502271106],[0.003703717004369806,-0.1435185281076917],[0.0055555688838164015,-0.12407408337350245],[0.006481551337574105,-0.10092593488042001],[0.006481551337574105,-0.09074074954346374],[0.006481551337574105,-0.08148149014623077],[0.006481551337574105,-0.0703703788695512],[0.006481551337574105,-0.06481482323121142],[0.006481551337574105,-0.062037045412041525],[0.006481551337574105,-0.05648148977370174],[0.006481551337574105,-0.055555563833978444],[0.006481551337574105,-0.05185186007508525],[0.006481551337574105,-0.05000000819563866],[0.006481551337574105,-0.04814815631619206],[0.006481551337574105,-0.04629630443674547],[0.006481551337574105,-0.043518526617575576],[0.006481551337574105,-0.042592600677852276],[0.006481551337574105,-0.04074074879840568],[0.006481551337574105,-0.04074074879840568]]]",1,[25],,,,,,,,,,,,,,pharmacy4.jpg,space,1.934,0,10,10,72,1,museum5.jpg,musicStore1.jpg,museum4.jpg,kindergarten_classroom.jpg,,
Image_List_2,,,,,,,,,,,,,,,,46622,2022-02-06_16h21.19.999,analogCatScenes,2020.1.3,Win32,60,"[1536,864]","[[[0.002777791064646509,-0.20555562258318702],[0.002777791064646509,-0.20555562258318702],[0.002777791064646509,-0.20555562258318702],[0.002777791064646509,-0.20555562258318702],[0.014814828281049375,-0.20555562258318702],[0.0407407545933017,-0.20370371418970604],[0.06666668090555403,-0.19537038073219634],[0.10277779255476263,-0.1759259359980071],[0.1472222376614809,-0.15555556532409456],[0.16481483051622356,-0.15185186156520136],[0.17407408991345652,-0.15000006619978917],[0.1851852011901361,-0.1472222318665849],[0.1888889049490293,-0.1453704365011727],[0.19351853464764576,-0.1425926021679684],[0.20462964592432534,-0.12500000931322575],[0.20833334968321854,-0.11481482397626948],[0.21018520156266512,-0.1064814905187598],[0.21296297938183503,-0.09537037924208024],[0.21296297938183503,-0.08796297172429385],[0.21296297938183503,-0.08055556420650747],[0.21296297938183503,-0.07500000856816769],[0.21296297938183503,-0.0740740826284444],[0.21296297938183503,-0.0740740826284444],[0.21296297938183503,-0.0740740826284444],[0.21296297938183503,-0.0740740826284444],[0.21296297938183503,-0.0740740826284444],[0.21296297938183503,-0.0740740826284444],[0.21296297938183503,-0.0740740826284444]],[[-0.007407337758275356,-0.19259260291302646],[-0.007407337758275356,-0.19259260291302646],[-0.007407337758275356,-0.19259260291302646],[-0.007407337758275356,-0.19259260291302646],[-0.007407337758275356,-0.19259260291302646],[-0.007407337758275356,-0.19259260291302646],[-0.00833332021203306,-0.19351852885274975],[-0.012036967456891843,-0.19722223261164296],[-0.04351850592151836,-0.2111111217074924],[-0.07222215353890617,-0.21481488198042],[-0.09537030203198861,-0.2166666773458322],[-0.15092585841538644,-0.212962973586939],[-0.16296295214582374,-0.2083333438883225],[-0.18148147094028969,-0.20370371418970604],[-0.2046296194333721,-0.19537038073219634],[-0.2101851750717119,-0.19351852885274975],[-0.21481480477032838,-0.19259260291302646],[-0.21574067419601728,-0.19166673348733756],[-0.21759258258949826,-0.19074075103357988],[-0.21851850852922158,-0.19074075103357988],[-0.21851850852922158,-0.19074075103357988]]]",2,"[28,21]",,,,,,,,,,,,,,homeoffice.jpg,space,5.1797,0,11,11,53,1,gazebo3.jpg,frontLawn3.jpg,homegarage3.jpg,fountain.jpg,,
Image_List_2,,,,,,,,,,,,,,,,46622,2022-02-06_16h21.19.999,analogCatScenes,2020.1.3,Win32,60,"[1536,864]","[[[0.008333346702986293,-0.19907408449108954],[0.008333346702986293,-0.19907408449108954],[0.008333346702986293,-0.19907408449108954],[0.008333346702986293,-0.19907408449108954],[0.008333346702986293,-0.19907408449108954],[0.008333346702986293,-0.19907408449108954],[0.008333346702986293,-0.19907408449108954],[0.008333346702986293,-0.19907408449108954],[0.017592606100219267,-0.178703713817177],[0.020370440433423568,-0.16018519502271106],[0.01944445797966586,-0.1388888984090752],[0.012037050461879483,-0.10277778675986661],[0.008333346702986293,-0.07870371232706087],[0.006481551337574105,-0.055555563833978444],[0.004629642944093104,-0.03796297097923579],[0.004629642944093104,-0.02777778564227952],[0.003703717004369806,-0.01759260030532325],[0.002777791064646509,-0.007407414968366976],[0.0018519216389576184,-0.0037037112094737866],[0.0009259391851999142,-0.0009259333903038943],[0.0009259391851999142,0.002777770368589295],[0.0009259391851999142,0.00462962224803589],[0.0009259391851999142,0.005555548187759187],[0.0009259391851999142,0.006481474127482485],[-0.0009259126942466806,0.01203702976582227]]]",1,[25],,,,,,,,,,,,,,bambooforest.jpg,space,2.3184,0,12,12,5,1,artStudio3.jpg,auto_showroom4.jpg,attic4.jpg,amusement3.jpg,,
Image_List_2,,,,,,,,,,,,,,,,46622,2022-02-06_16h21.19.999,analogCatScenes,2020.1.3,Win32,60,"[1536,864]","[[[0.0018519216389576184,-0.20462964012942933],[0.0018519216389576184,-0.20462964012942933],[0.0018519216389576184,-0.20462964012942933],[0.0018519216389576184,-0.20462964012942933],[0.0018519216389576184,-0.20462964012942933],[0.0018519216389576184,-0.20462964012942933],[0.0018519216389576184,-0.20462964012942933],[0.0018519216389576184,-0.20462964012942933],[0.0018519216389576184,-0.20462964012942933],[0.0018519216389576184,-0.20462964012942933],[0.003703717004369806,-0.19537038073219634],[0.007407420763262996,-0.18796297321440997],[0.014814828281049375,-0.1759259359980071],[0.04537038429191819,-0.1416666762282451],[0.07037038466444721,-0.11851852773516267],[0.10648149631365582,-0.09351852736263364],[0.13333334856563145,-0.07222223074899779],[0.1490740895409275,-0.06296297135176482],[0.16111112675733036,-0.055555563833978444],[0.17037038615456335,-0.05185186007508525],[0.17314816397373323,-0.05185186007508525],[0.17407408991345652,-0.05185186007508525],[0.1750000158531798,-0.05185186007508525],[0.17592594179290313,-0.05185186007508525],[0.17685186773262643,-0.05277778601480855],[0.17685186773262643,-0.05277778601480855]]]",1,[26],,,,,,,,,,,,,,lab1.jpg,space,2.1733,0,13,13,58,1,highway7.jpg,hedgemaze1.jpg,igloo4.jpg,grocerystore2.jpg,,
Image_List_2,,,,,,,,,,,,,,,,46622,2022-02-06_16h21.19.999,analogCatScenes,2020.1.3,Win32,60,"[1536,864]","[[[1.3245476616753471e-8,-0.19166673348733756],[1.3245476616753471e-8,-0.19166673348733756],[1.3245476616753471e-8,-0.19166673348733756],[1.3245476616753471e-8,-0.19166673348733756],[1.3245476616753471e-8,-0.19166673348733756],[1.3245476616753471e-8,-0.19166673348733756],[1.3245476616753471e-8,-0.19166673348733756],[1.3245476616753471e-8,-0.19166673348733756],[1.3245476616753471e-8,-0.19166673348733756],[1.3245476616753471e-8,-0.19166673348733756],[1.3245476616753471e-8,-0.19166673348733756],[1.3245476616753471e-8,-0.19166673348733756],[1.3245476616753471e-8,-0.19166673348733756],[-0.001851838633969978,-0.19166673348733756],[-0.011111098031202951,-0.19074075103357988],[-0.02685183900649901,-0.1851851953952401],[-0.05462961719819793,-0.1759259359980071],[-0.12499998861716853,-0.1472222318665849],[-0.15925924838693054,-0.12592593525294904],[-0.18981480439779935,-0.1055555645790365],[-0.22499993359325024,-0.07777778638733758],[-0.241666657022304,-0.05648148977370174],[-0.25370369423870687,-0.04166667473812898],[-0.2694444352140029,-0.015740748425876652],[-0.2777777686715126,0.0037036963083125927],[-0.2814814724304058,0.012962955705545566],[-0.2842592502495757,0.02314814104250184],[-0.2842592502495757,0.028703696680841623],[-0.2842592502495757,0.03518517825890471],[-0.2842592502495757,0.037962956078074594],[-0.2842592502495757,0.03981480795752119],[-0.2842592502495757,0.04166665983696779],[-0.2842592502495757,0.04259258577669108]]]",1,[33],,,,,,,,,,,,,,wineVineyard2.jpg,space,2.4658,0,14,14,97,1,warehouseoutside4.jpg,waitingroom4.jpg,winebarrel3.jpg,warehouseoutside3.jpg,,
Image_List_2,,,,,,,,,,,,,,,,46622,2022-02-06_16h21.19.999,analogCatScenes,2020.1.3,Win32,60,"[1536,864]","[[[-0.006481468332586465,-0.19722223261164296],[-0.006481468332586465,-0.19722223261164296],[-0.006481468332586465,-0.19722223261164296],[-0.006481468332586465,-0.19722223261164296],[-0.006481468332586465,-0.19722223261164296],[-0.006481468332586465,-0.19722223261164296],[-0.006481468332586465,-0.19722223261164296],[-0.006481468332586465,-0.19722223261164296],[-0.006481468332586465,-0.19722223261164296],[-0.006481468332586465,-0.19722223261164296],[-0.006481468332586465,-0.19722223261164296],[-0.006481468332586465,-0.19722223261164296],[-0.007407337758275356,-0.19722223261164296],[-0.017592579609266034,-0.19907408449108954],[-0.03888887622290187,-0.20000001043081284],[-0.08981480290768323,-0.18796297321440997],[-0.1333333220746782,-0.16574075066105085],[-0.1712962856033334,-0.1472222318665849],[-0.2055555453730954,-0.1342592687104587],[-0.22037030389463375,-0.12962963901184224],[-0.23240739762507104,-0.12592593525294904],[-0.23796295326341083,-0.12500000931322575],[-0.2407407310825807,-0.12222228800809026],[-0.2444444348414739,-0.12129630555433256],[-0.2462962867209205,-0.12037037961460927],[-0.2472222126606438,-0.12037037961460927],[-0.24814808208633268,-0.12037037961460927]],[[0.003703717004369806,-0.20092599288457055],[0.003703717004369806,-0.20092599288457055],[0.003703717004369806,-0.20092599288457055],[0.008333346702986293,-0.19814815855136625],[0.02685186549745224,-0.18888889915413326],[0.06666668090555403,-0.17314821469287162],[0.10277779255476263,-0.15555556532409456],[0.13888890420397124,-0.1416666762282451],[0.17407408991345652,-0.1342592687104587],[0.19351853464764576,-0.13055556495156553],[0.20648149780377192,-0.13055556495156553],[0.2212963128393447,-0.12962963901184224],[0.2259259425379612,-0.12870371307211895],[0.22777779441740778,-0.12870371307211895],[0.22870372035713107,-0.12870371307211895],[0.22962964629685437,-0.12870371307211895],[0.23055557223657766,-0.12870371307211895],[0.23055557223657766,-0.12870371307211895],[0.23055557223657766,-0.12870371307211895],[0.23055557223657766,-0.12777778713239563]]]",2,"[27,20]",,,,,,,,,,,,,,newsstand5.jpg,space,5.1979,0,15,15,64,1,igloo2.jpg,jewelrystore8.jpg,lab5.jpg,homegarage2.jpg,,
Image_List_2,,,,,,,,,,,,,,,,46622,2022-02-06_16h21.19.999,analogCatScenes,2020.1.3,Win32,60,"[1536,864]","[[[-0.009259246151756358,-0.20092599288457055],[-0.009259246151756358,-0.20092599288457055],[-0.009259246151756358,-0.20092599288457055],[-0.009259246151756358,-0.20092599288457055],[-0.009259246151756358,-0.20092599288457055],[-0.009259246151756358,-0.20092599288457055],[-0.009259246151756358,-0.20092599288457055],[-0.009259246151756358,-0.20092599288457055],[-0.006481468332586465,-0.19629636318595406],[-0.00462961645313987,-0.18333334351579347],[-0.006481468332586465,-0.16666667660077414],[-0.012962949910649547,-0.1481481578063082],[-0.02685183900649901,-0.11666667585571606],[-0.04259257998179506,-0.08611111984484726],[-0.059259246896814416,-0.06018519353259493],[-0.08240739538989685,-0.01759260030532325],[-0.09074067233337212,-0.004629637149197084],[-0.09351850666657642,0.00462962224803589],[-0.09907406230491621,0.018518511343885352],[-0.1018518401240861,0.024999992921948433],[-0.10555554388297929,0.028703696680841623],[-0.10925919112783807,0.03333332637945811],[-0.11203702546104237,0.036111075941610796],[-0.11481480328021226,0.0370370301383513],[-0.11574072921993556,0.0370370301383513],[-0.11666665515965885,0.0370370301383513],[-0.11851845052507104,0.038888882017797895],[-0.11944443297882874,0.04166665983696779]]]",1,[28],,,,,,,,,,,,,,library_aisle8.jpg,space,2.4062,0,16,16,59,1,homegarden7.jpg,highway4.jpg,kindergarten_classroom5.jpg,grocerystore3.jpg,,
Image_List_2,,,,,,,,,,,,,,,,46622,2022-02-06_16h21.19.999,analogCatScenes,2020.1.3,Win32,60,"[1536,864]","[[[0.008333346702986293,-0.19074075103357988],[0.008333346702986293,-0.19074075103357988],[0.008333346702986293,-0.19074075103357988],[0.008333346702986293,-0.19074075103357988],[0.008333346702986293,-0.19074075103357988],[0.008333346702986293,-0.19074075103357988],[0.008333346702986293,-0.19074075103357988],[0.009259272642709591,-0.19074075103357988],[0.012037050461879483,-0.19259260291302646],[0.013888902341326078,-0.19259260291302646],[0.017592606100219267,-0.1759259359980071],[0.014814828281049375,-0.10277778675986661],[0.006481551337574105,-0.0351851931600659],[0.002777791064646509,0.03333332637945811],[-0.0037036905134165726,0.104629623738152],[-0.00833332021203306,0.12962962411068105],[-0.011111098031202951,0.14999999478459358],[-0.01574072772981944,0.16296295794071974],[-0.01851850554898933,0.1712962913982294],[-0.02222220930788252,0.1796295965987219],[-0.024074061187329115,0.18333332861463228],[-0.02499998712705241,0.1861111064338022],[-0.02685183900649901,0.18796295831324877],[-0.027777764946222305,0.18888885599595487],[-0.027777764946222305,0.18888885599595487],[-0.028703690885945602,0.18981481019269536],[-0.028703690885945602,0.18981481019269536],[-0.028703690885945602,0.18981481019269536],[-0.0296296168256689,0.19166666207214197]]]",1,[29],,,,,,,,,,,,,,parkinglot2.jpg,space,4.401,0,17,17,69,1,liquorstore8.jpg,livingroom.jpg,metroInside1.jpg,icecream2.jpg,,
Image_List_2,,,,,,,,,,,,,,,,46622,2022-02-06_16h21.19.999,analogCatScenes,2020.1.3,Win32,60,"[1536,864]","[[[0.004629642944093104,-0.20648149200887592],[0.004629642944093104,-0.20648149200887592],[0.004629642944093104,-0.20648149200887592],[0.004629642944093104,-0.20648149200887592],[0.004629642944093104,-0.20648149200887592],[0.004629642944093104,-0.20648149200887592],[0.004629642944093104,-0.20648149200887592],[0.004629642944093104,-0.20648149200887592],[0.003703717004369806,-0.19814815855136625],[0.002777791064646509,-0.19074075103357988],[-0.0009259126942466806,-0.1768518619377304],[-0.006481468332586465,-0.16018519502271106],[-0.011111098031202951,-0.1435185281076917],[-0.019444431488712628,-0.12129630555433256],[-0.02685183900649901,-0.10185186082014332],[-0.035185115949974276,-0.07500000856816769],[-0.03888887622290187,-0.061111119472318225],[-0.045370357800964954,-0.04814815631619206],[-0.04814813562013485,-0.0342592672203426],[-0.04999998749958144,-0.03148148940117271],[-0.051851839379028035,-0.028703711582002817],[-0.051851839379028035,-0.02685185970255622],[-0.051851839379028035,-0.02685185970255622],[-0.051851839379028035,-0.025925933762832924],[-0.051851839379028035,-0.025925933762832924],[-0.051851839379028035,-0.025000007823109627],[-0.051851839379028035,-0.02407408188338633]]]",1,[27],,,,,,,,,,,,,,photographer_studio2.jpg,space,5.7839,0,18,18,73,1,musicStore3.jpg,nursery.jpg,nursery4.jpg,library_aisle9.jpg,,
Image_List_2,,,,,,,,,,,,,,,,46622,2022-02-06_16h21.19.999,analogCatScenes,2020.1.3,Win32,60,"[1536,864]","[[[-0.0055555423928631675,-0.19537038073219634],[-0.0055555423928631675,-0.19537038073219634],[-0.0055555423928631675,-0.19537038073219634],[-0.0055555423928631675,-0.19537038073219634],[-0.0055555423928631675,-0.19537038073219634],[-0.0055555423928631675,-0.19537038073219634],[-0.0055555423928631675,-0.19537038073219634],[-0.0055555423928631675,-0.19537038073219634],[-0.0055555423928631675,-0.19537038073219634],[-0.01574072772981944,-0.19074075103357988],[-0.04259257998179506,-0.17314821469287162],[-0.059259246896814416,-0.16203704690215764],[-0.07685178323752266,-0.15000006619978917],[-0.09907406230491621,-0.13148154740532322],[-0.1379629517732947,-0.09722223112152682],[-0.15833332244720724,-0.07962963826678417],[-0.17870363660708538,-0.05833334165314833],[-0.1990740637950323,-0.04074074879840568],[-0.2046296194333721,-0.037037045039512495],[-0.2092592491319886,-0.0333333412806193],[-0.21574067419601728,-0.028703711582002817],[-0.21851850852922158,-0.02685185970255622],[-0.22037030389463375,-0.025000007823109627],[-0.22222221228811476,-0.02407408188338633],[-0.22314813822783805,-0.02407408188338633],[-0.22499993359325024,-0.02407408188338633],[-0.22499993359325024,-0.02407408188338633],[-0.22499993359325024,-0.02407408188338633],[-0.22499993359325024,-0.02407408188338633]]]",1,[29],,,,,,,,,,,,,,horsebarn11.jpg,space,2.234,0,19,19,54,1,greenhouse2.jpg,gazebo2.jpg,homegarage4.jpg,frontFoyer.jpg,,
Image_List_2,,,,,,,,,,,,,,,,46622,2022-02-06_16h21.19.999,analogCatScenes,2020.1.3,Win32,60,"[1536,864]","[[[0.0009259391851999142,-0.20555562258318702],[0.0009259391851999142,-0.20555562258318702],[0.0009259391851999142,-0.20555562258318702],[0.0009259391851999142,-0.20555562258318702],[0.0009259391851999142,-0.20555562258318702],[-0.0009259126942466806,-0.19166673348733756],[-0.0027777080596588684,-0.16481482472132752],[-0.0037036905134165726,-0.1472222318665849],[-0.0055555423928631675,-0.11296302861085729],[-0.009259246151756358,-0.08796297172429385],[-0.011111098031202951,-0.05925926759287163],[-0.01574072772981944,-0.019444452184769843],[-0.019444431488712628,0.002777770368589295],[-0.021296226854124817,0.026851816544377825],[-0.02222220930788252,0.06111110457115703],[-0.02222220930788252,0.08055554930534628],[-0.02222220930788252,0.10092589172224162],[-0.02222220930788252,0.12314814253261795],[-0.023148135247605818,0.13333329961255702],[-0.023148135247605818,0.148148142905147],[-0.02222220930788252,0.17037033720148892],[-0.021296226854124817,0.1787036989160158],[-0.020370357428435928,0.18240740267490899],[-0.01851850554898933,0.1861111064338022],[-0.01851850554898933,0.18796295831324877],[-0.01851850554898933,0.18888885599595487],[-0.01851850554898933,0.18981481019269536],[-0.01851850554898933,0.19074073613241868],[-0.01851850554898933,0.19074073613241868],[-0.01851850554898933,0.19074073613241868]]]",1,[30],,,,,,,,,,,,,,track5.jpg,space,2.8672,0,20,20,89,1,ruralroad7.jpg,ShowJumping7.jpg,staircase7.jpg,sculpturegarden3.jpg,,
Image_List_2,,,,,,,,,,,,,,,,46622,2022-02-06_16h21.19.999,analogCatScenes,2020.1.3,Win32,60,"[1536,864]","[[[0.0055555688838164015,-0.19444445479247305],[0.0055555688838164015,-0.19444445479247305],[0.0055555688838164015,-0.19444445479247305],[0.0055555688838164015,-0.19444445479247305],[0.0055555688838164015,-0.19444445479247305],[0.0055555688838164015,-0.19444445479247305],[0.0055555688838164015,-0.19444445479247305],[0.008333346702986293,-0.18611112133496338],[0.011111181036190592,-0.17314821469287162],[0.014814828281049375,-0.15555556532409456],[0.01296297640160278,-0.12870371307211895],[0.010185198582432888,-0.10740741645848309],[0.0055555688838164015,-0.07870371232706087],[-0.001851838633969978,-0.019444452184769843],[-0.0055555423928631675,0.013888881645268865],[-0.00833332021203306,0.038888882017797895],[-0.011111098031202951,0.05925922443469323],[-0.012036967456891843,0.06666666020949681],[-0.012036967456891843,0.0722222158478366],[-0.012036967456891843,0.07777774322915919],[-0.012036967456891843,0.08055554930534628],[-0.012036967456891843,0.08148147524506957],[-0.012036967456891843,0.08240737292777567],[-0.012036967456891843,0.08333332712451617],[-0.012036967456891843,0.08611110494368607],[-0.012962949910649547,0.08888888276285595]]]",1,[26],,,,,,,,,,,,,,dock3.jpg,space,1.9841,0,21,21,35,1,deck5.jpg,cubicle7.jpg,dining_car6.jpg,carmechanic2.jpg,,
Image_List_2,,,,,,,,,,,,,,,,46622,2022-02-06_16h21.19.999,analogCatScenes,2020.1.3,Win32,60,"[1536,864]","[[[1.3245476616753471e-8,-0.20462964012942933],[1.3245476616753471e-8,-0.20462964012942933],[1.3245476616753471e-8,-0.20462964012942933],[1.3245476616753471e-8,-0.20462964012942933],[1.3245476616753471e-8,-0.20462964012942933],[1.3245476616753471e-8,-0.20462964012942933],[1.3245476616753471e-8,-0.20462964012942933],[1.3245476616753471e-8,-0.20462964012942933],[1.3245476616753471e-8,-0.20462964012942933],[1.3245476616753471e-8,-0.20462964012942933],[1.3245476616753471e-8,-0.20462964012942933],[1.3245476616753471e-8,-0.20462964012942933],[-0.007407337758275356,-0.20462964012942933],[-0.01851850554898933,-0.20185186231025942],[-0.034259246524285386,-0.19444445479247305],[-0.046296283740688254,-0.18703710378872107],[-0.06111109877626101,-0.1824074740901046],[-0.07962961757072697,-0.1750000100582838],[-0.09629628448574631,-0.1703703803596673],[-0.11203702546104237,-0.16388895529563866],[-0.12685184049661513,-0.15462969589840567],[-0.1361110998938481,-0.1453704365011727],[-0.14537035929108108,-0.13703704652962861],[-0.15833332244720724,-0.12685191770670676],[-0.16574072996499362,-0.12222228800809026],[-0.1712962856033334,-0.11944445367488596],[-0.17777776718139648,-0.11666667585571606],[-0.18055554500056636,-0.11481482397626948],[-0.18333326630570188,-0.11481482397626948],[-0.18611110063890615,-0.11296302861085729],[-0.18703702657862945,-0.11296302861085729],[-0.18796289600431834,-0.11296302861085729],[-0.18981480439779935,-0.11296302861085729],[-0.18981480439779935,-0.11296302861085729],[-0.19166665627724594,-0.11296302861085729]]]",1,[35],,,,,,,,,,,,,,breakroom5.jpg,space,2.3171,0,22,22,14,1,ballroom1.jpg,bistrooutdoor5.jpg,botanicalGarden5.jpg,ballroom3.jpg,,
Image_List_2,,,,,,,,,,,,,,,,46622,2022-02-06_16h21.19.999,analogCatScenes,2020.1.3,Win32,60,"[1536,864]","[[[1.3245476616753471e-8,-0.19537038073219634],[1.3245476616753471e-8,-0.19537038073219634],[1.3245476616753471e-8,-0.19537038073219634],[1.3245476616753471e-8,-0.19537038073219634],[1.3245476616753471e-8,-0.19537038073219634],[1.3245476616753471e-8,-0.19537038073219634],[1.3245476616753471e-8,-0.19537038073219634],[1.3245476616753471e-8,-0.19537038073219634],[1.3245476616753471e-8,-0.19537038073219634],[1.3245476616753471e-8,-0.19537038073219634],[-0.0009259126942466806,-0.19537038073219634],[-0.009259246151756358,-0.18611112133496338],[-0.01666659715550833,-0.178703713817177],[-0.025925856552741305,-0.1703703803596673],[-0.03981474564859076,-0.15092593562547807],[-0.04814813562013485,-0.1388888984090752],[-0.05648146907764452,-0.12592593525294904],[-0.06203702471598431,-0.11666667585571606],[-0.06759252384028969,-0.10740741645848309],[-0.07499998787211047,-0.09166667548318704],[-0.07685178323752266,-0.08425926796540066],[-0.07685178323752266,-0.07962963826678417],[-0.07685178323752266,-0.07592593450789098],[-0.07685178323752266,-0.07314815668872109],[-0.07685178323752266,-0.0712963048092745],[-0.07777776569128036,-0.0685185269901046],[-0.07777776569128036,-0.066666675110658],[-0.07777776569128036,-0.06388889729148811],[-0.07592591381183376,-0.05925926759287163],[-0.07592591381183376,-0.05833334165314833],[-0.07592591381183376,-0.05740741571342504],[-0.07499998787211047,-0.054629637894255144]],[[0.002777791064646509,-0.20185186231025942],[0.002777791064646509,-0.20185186231025942],[0.002777791064646509,-0.20185186231025942],[0.002777791064646509,-0.20185186231025942],[0.002777791064646509,-0.20185186231025942],[0.002777791064646509,-0.20185186231025942],[0.002777791064646509,-0.20185186231025942],[0.002777791064646509,-0.20185186231025942],[0.013888902341326078,-0.19537038073219634],[0.02685186549745224,-0.18611112133496338],[0.03703705083440851,-0.1777778443914881],[0.053703717749427865,-0.16388895529563866],[0.06481482902610744,-0.15740741720354115],[0.07314816248361711,-0.15185186156520136],[0.07962964406168019,-0.1472222318665849],[0.08518519970001998,-0.1388888984090752],[0.08888890345891316,-0.13055556495156553],[0.09259260721780636,-0.11944445367488596],[0.09259260721780636,-0.11203704615709958],[0.09259260721780636,-0.10277778675986661],[0.08981482939863647,-0.08703704578457055],[0.08888890345891316,-0.07962963826678417],[0.08611112563974327,-0.07314815668872109],[0.08611112563974327,-0.0703703788695512],[0.08425927376029668,-0.066666675110658],[0.0805555700014035,-0.06296297135176482],[0.07500001436306371,-0.055555563833978444],[0.07407408842334041,-0.05000000819563866],[0.07222223654389381,-0.04722223037646876],[0.07037038466444721,-0.04166667473812898],[0.06851853278500063,-0.03888889691895909],[0.06759260684527733,-0.037037045039512495],[0.06666668090555403,-0.036111119099789195],[0.06574075496583073,-0.0351851931600659],[0.061111125267214246,-0.03240741534089601],[0.05925927338776765,-0.03240741534089601],[0.05648149556859776,-0.03148148940117271],[0.05555556962887446,-0.03055556346144941],[0.054629643689151165,-0.029629637521726114],[0.052777848323738975,-0.029629637521726114],[0.05092593993025797,-0.02777778564227952]]]",2,"[32,41]",,,,,,,,,,,,,,trainStation1.jpg,space,3.7006,0,23,23,90,1,savanna5.jpg,sidewalk1.jpg,stripmall3.jpg,shoestore4.jpg,,
Image_List_2,,,,,,,,,,,,,,,,46622,2022-02-06_16h21.19.999,analogCatScenes,2020.1.3,Win32,60,"[1536,864]","[[[-0.0009259126942466806,-0.19074075103357988],[-0.0009259126942466806,-0.19074075103357988],[-0.0009259126942466806,-0.19074075103357988],[-0.0009259126942466806,-0.19074075103357988],[-0.0009259126942466806,-0.19074075103357988],[-0.0009259126942466806,-0.19074075103357988],[-0.0009259126942466806,-0.19074075103357988],[-0.0009259126942466806,-0.19074075103357988],[-0.0009259126942466806,-0.19074075103357988],[-0.0009259126942466806,-0.19074075103357988],[-0.0009259126942466806,-0.19074075103357988],[-0.0027777080596588684,-0.1851851953952401],[-0.00833332021203306,-0.15648149126381786],[-0.01666659715550833,-0.11018519427765298],[-0.017592579609266034,-0.0685185269901046],[-0.017592579609266034,-0.03055556346144941],[-0.017592579609266034,-0.0018518593300271917],[-0.017592579609266034,0.03333332637945811],[-0.014814801790096142,0.054629594736076745],[-0.011111098031202951,0.0712962899081133],[-0.0055555423928631675,0.09074073464230255],[-0.0037036905134165726,0.09907406809981223],[-0.0027777080596588684,0.10370369779842871],[-0.0027777080596588684,0.1064814756175986],[-0.0027777080596588684,0.1083333274970452],[-0.0027777080596588684,0.1092592534367685],[-0.0027777080596588684,0.11018515111947459],[-0.0027777080596588684,0.11018515111947459],[-0.0027777080596588684,0.11018515111947459],[-0.0037036905134165726,0.11018515111947459],[-0.0037036905134165726,0.11018515111947459]],[[0.0055555688838164015,-0.18981482509385655],[0.0055555688838164015,-0.18981482509385655],[0.0055555688838164015,-0.18981482509385655],[0.0055555688838164015,-0.18981482509385655],[0.0055555688838164015,-0.18981482509385655],[0.008333346702986293,-0.18888889915413326],[0.020370440433423568,-0.1814814916363469],[0.038888959227889514,-0.17222223223911393],[0.05925927338776765,-0.16574075066105085],[0.08796297751918987,-0.15648149126381786],[0.10925927413282571,-0.15000006619978917],[0.13981483014369453,-0.1407408068025562],[0.15555557111899057,-0.13703704652962861],[0.16574075645594685,-0.13240741683101212],[0.17777779367234972,-0.12777778713239563],[0.18240742337096622,-0.12314815743377915],[0.1842592752504128,-0.12037037961460927],[0.18703705306958268,-0.11666667585571606],[0.18703705306958268,-0.11666667585571606],[0.18703705306958268,-0.11666667585571606],[0.18703705306958268,-0.11666667585571606],[0.18703705306958268,-0.11666667585571606],[0.18703705306958268,-0.11666667585571606],[0.18703705306958268,-0.11666667585571606],[0.18703705306958268,-0.11666667585571606],[0.18703705306958268,-0.11666667585571606],[0.1851852011901361,-0.11666667585571606],[0.1842592752504128,-0.11666667585571606],[0.1842592752504128,-0.11666667585571606],[0.18240742337096622,-0.11666667585571606],[0.1814814974312429,-0.11666667585571606],[0.1814814974312429,-0.11666667585571606],[0.1833333493106895,-0.11296302861085729],[0.20925927562294183,-0.07314815668872109],[0.23611112787491745,-0.04074074879840568],[0.2694444617049562,-7.450580596923828e-9],[0.28148149892135904,0.014814807584992162],[0.2935185361377619,0.024999992921948433],[0.31203705493222783,0.04074070564022728],[0.315740758691121,0.04537033533884377],[0.31851864953835973,0.04814814141503087],[0.31944446245001423,0.04999996503746026],[0.31944446245001423,0.04999996503746026],[0.31944446245001423,0.05092591923420076],[0.31944446245001423,0.052777771113647357],[0.31944446245001423,0.05370369705337065],[0.31944446245001423,0.05370369705337065]],[[0.006481551337574105,-0.20648149200887592],[0.006481551337574105,-0.20648149200887592],[0.006481551337574105,-0.20648149200887592],[0.006481551337574105,-0.20648149200887592],[0.006481551337574105,-0.20648149200887592],[0.006481551337574105,-0.20648149200887592],[0.006481551337574105,-0.20648149200887592],[0.006481551337574105,-0.20648149200887592],[0.006481551337574105,-0.20648149200887592],[-0.00462961645313987,-0.20555562258318702],[-0.01574072772981944,-0.20277778824998272],[-0.03611109840373198,-0.19907408449108954],[-0.06759252384028969,-0.19074075103357988],[-0.09444443260629971,-0.1805555656966236],[-0.11666665515965885,-0.16759260254049743],[-0.14722221117052767,-0.14629630592686158],[-0.16296295214582374,-0.13518519465018203],[-0.1740740069084689,-0.12962963901184224],[-0.18425924875945957,-0.12037037961460927],[-0.18888887845807606,-0.11481482397626948],[-0.19259252570293484,-0.11018519427765298],[-0.19629628597586243,-0.1055555645790365],[-0.19722215540155133,-0.10370376921362431],[-0.19814813785530902,-0.10185186082014332],[-0.1990740637950323,-0.10092593488042001],[-0.1990740637950323,-0.10000000894069672],[-0.19999998973475563,-0.10000000894069672],[-0.19999998973475563,-0.09907413951500782],[-0.19999998973475563,-0.09537037924208024],[-0.19814813785530902,-0.08148149014623077],[-0.18981480439779935,-0.05277778601480855],[-0.18796289600431834,-0.043518526617575576],[-0.17870363660708538,-0.025925933762832924],[-0.1694443772098524,-0.01296297060670676],[-0.16111110026637712,-0.002777785269750489],[-0.14999998898969757,0.009259251946652378],[-0.1435185074116345,0.013888881645268865],[-0.138888877713018,0.017592585404162055],[-0.129629618315785,0.02222221510277854],[-0.12592591455689184,0.024074066982225136],[-0.12314808022368753,0.024999992921948433],[-0.11944443297882874,0.026851816544377825],[-0.11851845052507104,0.026851816544377825],[-0.11851845052507104,0.026851816544377825],[-0.11666665515965885,0.026851816544377825],[-0.11574072921993556,0.026851816544377825],[-0.11574072921993556,0.027777770741118327],[-0.11296295140076566,0.02962962262056492]]]",3,"[31,47,48]",,,,,,,,,,,,,,yogastudio4.jpg,space,7.5002,0,24,24,99,1,wineVineyard9.jpg,windmill2.jpg,wrestlingring7.jpg,yogastudio1.jpg,,
Image_List_2,,,,,,,,,,,,,,,,46622,2022-02-06_16h21.19.999,analogCatScenes,2020.1.3,Win32,60,"[1536,864]","[[[-0.006481468332586465,-0.20370371418970604],[-0.006481468332586465,-0.20370371418970604],[-0.0037036905134165726,-0.19722223261164296],[0.0055555688838164015,-0.1740740841185605],[0.01296297640160278,-0.15740741720354115],[0.020370440433423568,-0.12777778713239563],[0.025925939557728945,-0.10740741645848309],[0.03240742113579203,-0.07870371232706087],[0.036111124894685216,-0.049074082255915356],[0.041666680533025,-0.0037037112094737866],[0.046296310231641484,0.02592591886167173],[0.05000001399053468,0.06018517863143374],[0.05092593993025797,0.0768518455464531],[0.05092593993025797,0.08425925306423947],[0.05092593993025797,0.08703700262639215],[0.05092593993025797,0.09074073464230255],[0.05092593993025797,0.09629626202362512],[0.05092593993025797,0.09907406809981223],[0.05092593993025797,0.10092589172224162],[0.05092593993025797,0.10370369779842871],[0.05092593993025797,0.104629623738152],[0.05092593993025797,0.1055555214208581],[0.05092593993025797,0.1074074015573219],[0.05092593993025797,0.1074074015573219],[0.05092593993025797,0.1083333274970452],[0.05000001399053468,0.1092592534367685]]]",1,[26],,,,,,,,,,,,,,barbershop3.jpg,space,2.351,0,25,25,10,1,backstage2.jpg,ballroom4.jpg,basketballcourt3.jpg,ATM4.jpg,,
Image_List_2,,,,,,,,,,,,,,,,46622,2022-02-06_16h21.19.999,analogCatScenes,2020.1.3,Win32,60,"[1536,864]","[[[0.0009259391851999142,-0.19907408449108954],[0.0009259391851999142,-0.19907408449108954],[0.0009259391851999142,-0.19907408449108954],[0.0009259391851999142,-0.19907408449108954],[0.0009259391851999142,-0.19907408449108954],[0.0009259391851999142,-0.19907408449108954],[0.0009259391851999142,-0.19907408449108954],[0.0009259391851999142,-0.19907408449108954],[0.0009259391851999142,-0.19907408449108954],[0.0009259391851999142,-0.19907408449108954],[0.0009259391851999142,-0.19907408449108954],[1.3245476616753471e-8,-0.18888889915413326],[-0.001851838633969978,-0.17314821469287162],[-0.0027777080596588684,-0.16944445441994402],[-0.009259246151756358,-0.15092593562547807],[-0.013888875850372844,-0.13055556495156553],[-0.01666659715550833,-0.10740741645848309],[-0.023148135247605818,-0.08055556420650747],[-0.02685183900649901,-0.0685185269901046],[-0.0296296168256689,-0.055555563833978444],[-0.03148146870511549,-0.04537037849702217],[-0.03333332058456209,-0.04074074879840568],[-0.035185115949974276,-0.037037045039512495],[-0.03703702434345528,-0.029629637521726114],[-0.03888887622290187,-0.025000007823109627],[-0.03888887622290187,-0.021296304064216436],[-0.04074072810234847,-0.01759260030532325],[-0.04074072810234847,-0.015740748425876652],[-0.04074072810234847,-0.01296297060670676],[-0.04074072810234847,-0.012037044666983463],[-0.04074072810234847,-0.012037044666983463],[-0.04074072810234847,-0.011111118727260165],[-0.04074072810234847,-0.011111118727260165],[-0.04074072810234847,-0.009259266847813571]],[[0.0055555688838164015,-0.20648149200887592],[0.0055555688838164015,-0.20648149200887592],[0.0055555688838164015,-0.20277778824998272],[0.018518532039942564,-0.17314821469287162],[0.02962969983065654,-0.15370371344464798],[0.04814821862512249,-0.12407408337350245],[0.07222223654389381,-0.08055556420650747],[0.08888890345891316,-0.05185186007508525],[0.10277779255476263,-0.03055556346144941],[0.12129631134922858,-0.007407414968366976],[0.12962964480673825,0.007407400067205782],[0.13425927450535474,0.017592585404162055],[0.13981483014369453,0.028703696680841623],[0.1462963117217576,0.037962956078074594],[0.1490740895409275,0.04166665983696779],[0.15000001548065078,0.044444437656137675],[0.1509259414203741,0.04537033533884377],[0.1509259414203741,0.046296289535584276],[0.1509259414203741,0.04722221547530757],[0.1509259414203741,0.04722221547530757],[0.1509259414203741,0.04814814141503087],[0.1509259414203741,0.04814814141503087],[0.1509259414203741,0.04814814141503087],[0.1509259414203741,0.04907406735475416]],[[-0.0009259126942466806,-0.19444445479247305],[-0.0009259126942466806,-0.19444445479247305],[-0.0009259126942466806,-0.19444445479247305],[-0.0009259126942466806,-0.19444445479247305],[-0.0009259126942466806,-0.19444445479247305],[-0.0009259126942466806,-0.19444445479247305],[-0.001851838633969978,-0.19444445479247305],[-0.011111098031202951,-0.19444445479247305],[-0.025925856552741305,-0.19351852885274975],[-0.04259257998179506,-0.18888889915413326],[-0.07314813599266388,-0.178703713817177],[-0.09814813636519291,-0.1703703803596673],[-0.129629618315785,-0.15740741720354115],[-0.14999998898969757,-0.14907408374603148],[-0.1712962856033334,-0.1425926021679684],[-0.19444443409641585,-0.1398148243487985],[-0.2055555453730954,-0.1398148243487985],[-0.21759258258949826,-0.1407408068025562],[-0.22129628634839146,-0.1416666762282451],[-0.22314813822783805,-0.1425926021679684],[-0.22407406416756134,-0.1435185281076917]]]",3,"[34,24,21]",,,,,,,,,,,,,,playground10.jpg,space,6.3672,0,26,26,74,1,newsstand2.jpg,observatory4.jpeg,operatingroom1.jpg,lightingstore2.jpg,,
Image_List_2,,,,,,,,,,,,,,,,46622,2022-02-06_16h21.19.999,analogCatScenes,2020.1.3,Win32,60,"[1536,864]","[[[-0.00462961645313987,-0.20092599288457055],[-0.00462961645313987,-0.20092599288457055],[-0.00462961645313987,-0.20092599288457055],[-0.00462961645313987,-0.20092599288457055],[-0.00462961645313987,-0.20092599288457055],[1.3245476616753471e-8,-0.18703710378872107],[0.0009259391851999142,-0.15092593562547807],[-0.0037036905134165726,-0.12314815743377915],[-0.02499998712705241,-0.04537037849702217],[-0.035185115949974276,0.008333326006929079],[-0.03888887622290187,0.04537033533884377],[-0.04259257998179506,0.0740740677272832],[-0.045370357800964954,0.08333332712451617],[-0.045370357800964954,0.08796295682313265],[-0.045370357800964954,0.09166663232500864],[-0.046296283740688254,0.09166663232500864],[-0.046296283740688254,0.09166663232500864],[-0.046296283740688254,0.09259258652174915],[-0.04722220968041155,0.09259258652174915],[-0.04722220968041155,0.09259258652174915],[-0.04722220968041155,0.09351851246147244],[-0.04722220968041155,0.09351851246147244],[-0.04722220968041155,0.09351851246147244]]]",1,[23],,,,,,,,,,,,,,cornfield4.jpg,space,2.0172,0,27,27,26,1,campusquad2.jpg,church4.jpg,churchInside3.jpg,botanicalGarden7.jpg,,
Image_List_2,,,,,,,,,,,,,,,,46622,2022-02-06_16h21.19.999,analogCatScenes,2020.1.3,Win32,60,"[1536,864]","[[[-0.007407337758275356,-0.2074074179485992],[-0.007407337758275356,-0.2074074179485992],[-0.007407337758275356,-0.2074074179485992],[-0.006481468332586465,-0.20370371418970604],[-0.0055555423928631675,-0.1851851953952401],[-0.0055555423928631675,-0.1796296397569003],[-0.006481468332586465,-0.17314821469287162],[-0.007407337758275356,-0.16388895529563866],[-0.009259246151756358,-0.15462969589840567],[-0.011111098031202951,-0.144444454047415],[-0.012036967456891843,-0.1333333427707354],[-0.012036967456891843,-0.12685191770670676],[-0.013888875850372844,-0.12129630555433256],[-0.014814801790096142,-0.11018519427765298],[-0.01574072772981944,-0.1064814905187598],[-0.01574072772981944,-0.10370376921362431],[-0.01574072772981944,-0.10185186082014332],[-0.01574072772981944,-0.10092593488042001],[-0.01574072772981944,-0.10092593488042001],[-0.01574072772981944,-0.10092593488042001]]]",1,[20],,,,,,,,,,,,,,diningroom1.jpg,space,3.5839,0,28,28,33,1,deck1.jpg,courthouse2.jpg,diner10.jpg,cabinIndoors5.jpg,,
Image_List_2,,,,,,,,,,,,,,,,46622,2022-02-06_16h21.19.999,analogCatScenes,2020.1.3,Win32,60,"[1536,864]","[[[-0.0009259126942466806,-0.20370371418970604],[-0.0009259126942466806,-0.20370371418970604],[-0.0009259126942466806,-0.20370371418970604],[-0.0009259126942466806,-0.20370371418970604],[-0.0009259126942466806,-0.20370371418970604],[-0.0009259126942466806,-0.20370371418970604],[-0.0009259126942466806,-0.20370371418970604],[-0.0009259126942466806,-0.20370371418970604],[-0.0009259126942466806,-0.20370371418970604],[-0.0009259126942466806,-0.20370371418970604],[-0.0009259126942466806,-0.20370371418970604],[-0.0009259126942466806,-0.20370371418970604],[-0.0009259126942466806,-0.20370371418970604],[0.0009259391851999142,-0.19444445479247305],[0.0018519216389576184,-0.1759259359980071],[0.0009259391851999142,-0.15185186156520136],[-0.00462961645313987,-0.10370376921362431],[-0.009259246151756358,-0.07314815668872109],[-0.01574072772981944,-0.04537037849702217],[-0.02222220930788252,-0.009259266847813571],[-0.024074061187329115,0.00462962224803589],[-0.025925856552741305,0.012962955705545566],[-0.02685183900649901,0.024999992921948433],[-0.02685183900649901,0.03425925231918141],[-0.02685183900649901,0.04166665983696779],[-0.02685183900649901,0.051851845173924056],[-0.02685183900649901,0.054629594736076745],[-0.02685183900649901,0.054629594736076745],[-0.02685183900649901,0.054629594736076745],[-0.02685183900649901,0.054629594736076745],[-0.02685183900649901,0.054629594736076745],[-0.02685183900649901,0.054629594736076745]]]",1,[32],,,,,,,,,,,,,,sandDunes_desert_outdoor9.jpg,space,1.6504,0,29,29,82,1,publicrestroom2.jpg,promenadeDeck3.jpg,readingroom4.jpg,postoffice4.jpg,,
Image_List_2,,,,,,,,,,,,,,,,46622,2022-02-06_16h21.19.999,analogCatScenes,2020.1.3,Win32,60,"[1536,864]","[[[0.007407420763262996,-0.19629636318595406],[0.007407420763262996,-0.19629636318595406],[0.007407420763262996,-0.19629636318595406],[0.007407420763262996,-0.19629636318595406],[0.007407420763262996,-0.19629636318595406],[0.007407420763262996,-0.19629636318595406],[0.008333346702986293,-0.19351852885274975],[0.021296309859112458,-0.1805555656966236],[0.04537038429191819,-0.16111112096243435],[0.060185199327490946,-0.1435185281076917],[0.07314816248361711,-0.12870371307211895],[0.09537038503697624,-0.11018519427765298],[0.10555557037393253,-0.10092593488042001],[0.11388890383144219,-0.08981482360374045],[0.12129631134922858,-0.0740740826284444],[0.12592594104784507,-0.06481482323121142],[0.12685186698756837,-0.05925926759287163],[0.13055557074646154,-0.049074082255915356],[0.13425927450535474,-0.0351851931600659],[0.13518520044507804,-0.0333333412806193],[0.13703705232452462,-0.028703711582002817],[0.13796297826424794,-0.025925933762832924],[0.13888890420397124,-0.02407408188338633],[0.13981483014369453,-0.022222230003939733],[0.13981483014369453,-0.021296304064216436],[0.14074075608341782,-0.02037037812449314],[0.14074075608341782,-0.02037037812449314],[0.14074075608341782,-0.019444452184769843],[0.14166668202314112,-0.018518526245046546],[0.14166668202314112,-0.018518526245046546],[0.14166668202314112,-0.01759260030532325],[0.14166668202314112,-0.01666667436559995],[0.14166668202314112,-0.01666667436559995],[0.14166668202314112,-0.01666667436559995],[0.14166668202314112,-0.015740748425876652],[0.14166668202314112,-0.014814822486153355],[0.14074075608341782,-0.013888896546430059],[0.13703705232452462,-0.009259266847813571]]]",1,[38],,,,,,,,,,,,,,hotelRoom3.jpg,space,2.017,0,30,30,55,1,greenmountains.jpg,gazebo5.jpg,hotelRoom7.jpg,frontLawn2.jpg,,
Image_List_2,,,,,,,,,,,,,,,,46622,2022-02-06_16h21.19.999,analogCatScenes,2020.1.3,Win32,60,"[1536,864]","[[[0.004629642944093104,-0.19629636318595406],[0.004629642944093104,-0.19629636318595406],[0.004629642944093104,-0.19629636318595406],[0.007407420763262996,-0.1824074740901046],[0.008333346702986293,-0.16296297284188094],[0.008333346702986293,-0.13055556495156553],[0.006481551337574105,-0.11018519427765298],[0.004629642944093104,-0.08703704578457055],[0.0009259391851999142,-0.05925926759287163],[0.0009259391851999142,-0.03055556346144941],[0.0018519216389576184,0.006481474127482485],[0.002777791064646509,0.027777770741118327],[0.003703717004369806,0.044444437656137675],[0.004629642944093104,0.056481474872540544],[0.0055555688838164015,0.06111110457115703],[0.0055555688838164015,0.06481480833005022],[0.006481551337574105,0.0694444380286667],[0.006481551337574105,0.07037036396839001],[0.006481551337574105,0.0712962899081133],[0.006481551337574105,0.0712962899081133],[0.006481551337574105,0.0722222158478366],[0.006481551337574105,0.0731481135305427],[0.006481551337574105,0.07592591960672979],[0.006481551337574105,0.07777774322915919],[0.006481551337574105,0.07777774322915919],[0.006481551337574105,0.07777774322915919],[0.006481551337574105,0.07777774322915919],[0.006481551337574105,0.07777774322915919],[0.006481551337574105,0.07777774322915919],[0.006481551337574105,0.07777774322915919],[0.0055555688838164015,0.07870369742589968],[0.0055555688838164015,0.08055554930534628],[0.0055555688838164015,0.08240737292777567],[0.0055555688838164015,0.08240737292777567]]]",1,[34],,,,,,,,,,,,,,frontLawn5.jpg,space,2.6141,0,31,31,46,1,flowershop.jpg,farmersmarket4.jpg,fountain4.jpg,dormroom6.jpg,,
Image_List_2,,,,,,,,,,,,,,,,46622,2022-02-06_16h21.19.999,analogCatScenes,2020.1.3,Win32,60,"[1536,864]","[[[-0.0009259126942466806,-0.19537038073219634],[-0.0009259126942466806,-0.19537038073219634],[-0.0009259126942466806,-0.19537038073219634],[-0.0009259126942466806,-0.19537038073219634],[-0.0009259126942466806,-0.19537038073219634],[-0.0009259126942466806,-0.19537038073219634],[-0.0009259126942466806,-0.19537038073219634],[-0.0009259126942466806,-0.19537038073219634],[-0.0009259126942466806,-0.19537038073219634],[-0.0009259126942466806,-0.19537038073219634],[-0.009259246151756358,-0.19537038073219634],[-0.025925856552741305,-0.19351852885274975],[-0.03796295028317858,-0.1851851953952401],[-0.05555554313792123,-0.1777778443914881],[-0.07685178323752266,-0.16481482472132752],[-0.08888887696795994,-0.15555556532409456],[-0.1018518401240861,-0.1425926021679684],[-0.11574072921993556,-0.12129630555433256],[-0.11944443297882874,-0.1083333989122408],[-0.12037035891855205,-0.09259260142291034],[-0.11481480328021226,-0.066666675110658],[-0.1018518401240861,-0.04537037849702217],[-0.08796295102823663,-0.025925933762832924],[-0.07037035817349399,-0.006481489028643679],[-0.05555554313792123,0.0037036963083125927],[-0.03703702434345528,0.011111103826098971],[-0.0296296168256689,0.013888881645268865],[-0.023148135247605818,0.018518511343885352],[-0.013888875850372844,0.026851816544377825],[-0.010185172091479655,0.02962962262056492],[-0.009259246151756358,0.030555548560288217],[-0.007407337758275356,0.030555548560288217],[-0.007407337758275356,0.03148144624299431],[-0.006481468332586465,0.03148144624299431],[-0.006481468332586465,0.03148144624299431],[-0.0055555423928631675,0.032407400439734814],[-0.0055555423928631675,0.032407400439734814],[-0.0055555423928631675,0.03333332637945811],[-0.0055555423928631675,0.03425925231918141]],[[0.0009259391851999142,-0.19814815855136625],[0.0009259391851999142,-0.19814815855136625],[0.0009259391851999142,-0.19814815855136625],[0.0009259391851999142,-0.19814815855136625],[0.012037050461879483,-0.19722223261164296],[0.035185198954961916,-0.19074075103357988],[0.047222236171364784,-0.18333334351579347],[0.05833334744804435,-0.1759259359980071],[0.07129631060417052,-0.1703703803596673],[0.07962964406168019,-0.16574075066105085],[0.08888890345891316,-0.15462969589840567],[0.10185186661503932,-0.13055556495156553],[0.10648149631365582,-0.11851852773516267],[0.1129629778917189,-0.1055555645790365],[0.12129631134922858,-0.08425926796540066],[0.12500001510812175,-0.07592593450789098],[0.12592594104784507,-0.07222223074899779],[0.12870371886701495,-0.066666675110658],[0.13240742262590816,-0.05833334165314833],[0.13703705232452462,-0.04629630443674547],[0.1425926079628644,-0.02777778564227952],[0.1435185339025877,-0.023148155943663033],[0.14537038578203432,-0.02037037812449314],[0.1472222376614809,-0.01759260030532325],[0.1472222376614809,-0.015740748425876652],[0.1472222376614809,-0.014814822486153355],[0.1472222376614809,-0.01296297060670676],[0.1472222376614809,-0.012037044666983463],[0.1472222376614809,-0.009259266847813571],[0.1472222376614809,-0.006481489028643679],[0.1472222376614809,-0.004629637149197084],[0.1472222376614809,-0.0037037112094737866],[0.14537038578203432,-0.0018518593300271917],[0.14537038578203432,-0.0009259333903038943],[0.14444445984231102,0.001851844428865998],[0.1435185339025877,0.0037036963083125927],[0.1435185339025877,0.005555548187759187],[0.1425926079628644,0.007407400067205782],[0.1425926079628644,0.009259251946652378],[0.1425926079628644,0.010185177886375674],[0.1425926079628644,0.011111103826098971],[0.1425926079628644,0.011111103826098971],[0.14166668202314112,0.011111103826098971]]]",2,"[39,43]",,,,,,,,,,,,,,attic1.jpg,space,4.468,0,32,32,3,1,apartmentBuilding2.jpg,aquarium1.jpg,appleorchard2.jpg,alley3.jpg,,
Image_List_2,,,,,,,,,,,,,,,,46622,2022-02-06_16h21.19.999,analogCatScenes,2020.1.3,Win32,60,"[1536,864]","[[[-0.001851838633969978,-0.20555562258318702],[-0.001851838633969978,-0.20555562258318702],[-0.001851838633969978,-0.20555562258318702],[0.0018519216389576184,-0.20555562258318702],[0.020370440433423568,-0.20370371418970604],[0.038888959227889514,-0.20000001043081284],[0.08148149594112679,-0.18703710378872107],[0.09629631097669955,-0.1814814916363469],[0.11851853353005869,-0.16759260254049743],[0.13055557074646154,-0.16203704690215764],[0.13981483014369453,-0.15740741720354115],[0.1462963117217576,-0.15370371344464798],[0.1490740895409275,-0.15092593562547807],[0.1509259414203741,-0.15092593562547807],[0.1518518673600974,-0.15000006619978917],[0.1518518673600974,-0.15000006619978917],[0.15370371923954398,-0.144444454047415],[0.15370371923954398,-0.13518519465018203],[0.1518518673600974,-0.12592593525294904],[0.1509259414203741,-0.11759265830947377],[0.15000001548065078,-0.1083333989122408],[0.1481481636012042,-0.10277778675986661],[0.1435185339025877,-0.09537037924208024],[0.13888890420397124,-0.08981482360374045],[0.13333334856563145,-0.08425926796540066],[0.12685186698756837,-0.07592593450789098],[0.12407408916839847,-0.0712963048092745],[0.11851853353005869,-0.062037045412041525],[0.11574075571088879,-0.053703711954531844],[0.1120370519519956,-0.04814815631619206],[0.110185200072549,-0.042592600677852276],[0.10925927413282571,-0.03981482285868238],[0.10740742225337911,-0.03888889691895909],[0.10740742225337911,-0.037037045039512495],[0.10555557037393253,-0.036111119099789195],[0.10555557037393253,-0.036111119099789195],[0.10555557037393253,-0.0351851931600659],[0.10555557037393253,-0.0351851931600659],[0.10555557037393253,-0.0342592672203426],[0.10555557037393253,-0.0342592672203426],[0.10462964443420922,-0.0333333412806193]]]",1,[41],,,,,,,,,,,,,,cafeteria5.jpg,space,2.1508,0,33,33,15,1,bambooforest4.jpg,bleachers8.jpg,cabinIndoors.jpg,bar8.jpg,,
Image_List_2,,,,,,,,,,,,,,,,46622,2022-02-06_16h21.19.999,analogCatScenes,2020.1.3,Win32,60,"[1536,864]","[[[-0.001851838633969978,-0.20185186231025942],[-0.001851838633969978,-0.20185186231025942],[-0.001851838633969978,-0.20185186231025942],[-0.001851838633969978,-0.20185186231025942],[-0.001851838633969978,-0.20185186231025942],[-0.001851838633969978,-0.20185186231025942],[-0.001851838633969978,-0.20185186231025942],[-0.001851838633969978,-0.20185186231025942],[-0.0027777080596588684,-0.20462964012942933],[-0.01851850554898933,-0.2083333438883225],[-0.034259246524285386,-0.20648149200887592],[-0.05462961719819793,-0.20185186231025942],[-0.08148141293613914,-0.19351852885274975],[-0.09907406230491621,-0.18611112133496338],[-0.12037035891855205,-0.1814814916363469],[-0.15185184086914416,-0.1750000100582838],[-0.1712962856033334,-0.17314821469287162],[-0.18981480439779935,-0.17314821469287162],[-0.2064814147987843,-0.17314821469287162],[-0.21481480477032838,-0.1750000100582838],[-0.22129628634839146,-0.1759259359980071],[-0.23148147168534774,-0.1796296397569003],[-0.2370370273236875,-0.1805555656966236],[-0.2407407310825807,-0.1824074740901046],[-0.2453703607811972,-0.18425926945551677],[-0.2462962867209205,-0.1851851953952401],[-0.24814808208633268,-0.18611112133496338],[-0.2499999904798137,-0.18703710378872107],[-0.250925916419537,-0.18703710378872107],[-0.2518518423592603,-0.18703710378872107],[-0.2527777117849492,-0.18703710378872107],[-0.25462962017843016,-0.18703710378872107],[-0.25555554611815345,-0.1814814916363469],[-0.25740734148356564,-0.16574075066105085],[-0.25740734148356564,-0.15462969589840567],[-0.25740734148356564,-0.13518519465018203],[-0.25462962017843016,-0.09907413951500782],[-0.250925916419537,-0.07777778638733758],[-0.250925916419537,-0.055555563833978444],[-0.250925916419537,-0.043518526617575576],[-0.2527777117849492,-0.036111119099789195],[-0.25370369423870687,-0.029629637521726114],[-0.25462962017843016,-0.025925933762832924],[-0.25555554611815345,-0.02407408188338633],[-0.25555554611815345,-0.023148155943663033],[-0.25555554611815345,-0.022222230003939733],[-0.25648147205787675,-0.022222230003939733],[-0.25648147205787675,-0.019444452184769843]]]",1,[48],,,,,,,,,,,,,,diner12.jpg,space,2.4967,0,34,34,32,1,dancestudio6.jpg,constructionSite2.jpg,dentist4.jpg,cabin4.jpg,,
Image_List_2,,,,,,,,,,,,,,,,46622,2022-02-06_16h21.19.999,analogCatScenes,2020.1.3,Win32,60,"[1536,864]","[[[-0.007407337758275356,-0.20185186231025942],[-0.007407337758275356,-0.20185186231025942],[-0.007407337758275356,-0.20185186231025942],[-0.007407337758275356,-0.20185186231025942],[-0.007407337758275356,-0.20185186231025942],[-0.007407337758275356,-0.20185186231025942],[-0.007407337758275356,-0.20185186231025942],[-0.007407337758275356,-0.20185186231025942],[-0.007407337758275356,-0.20185186231025942],[-0.007407337758275356,-0.20185186231025942],[-0.007407337758275356,-0.20185186231025942],[-0.025925856552741305,-0.20092599288457055],[-0.046296283740688254,-0.19907408449108954],[-0.07407406193238718,-0.19166673348733756],[-0.1351851739541248,-0.17222223223911393],[-0.16574072996499362,-0.16574075066105085],[-0.19259252570293484,-0.16203704690215764],[-0.21203702695115847,-0.16203704690215764],[-0.22129628634839146,-0.16203704690215764],[-0.22870369386617784,-0.16203704690215764],[-0.23240739762507104,-0.16296297284188094],[-0.23425919299048323,-0.16296297284188094],[-0.23518517544424092,-0.16296297284188094],[-0.2361111013839642,-0.16296297284188094],[-0.2361111013839642,-0.16296297284188094],[-0.23796295326341083,-0.16296297284188094]],[[-0.007407337758275356,-0.20000001043081284],[-0.007407337758275356,-0.20000001043081284],[-0.007407337758275356,-0.20000001043081284],[-0.007407337758275356,-0.20000001043081284],[-0.007407337758275356,-0.20000001043081284],[-0.007407337758275356,-0.20000001043081284],[0.012037050461879483,-0.19907408449108954],[0.035185198954961916,-0.19722223261164296],[0.060185199327490946,-0.19537038073219634],[0.09259260721780636,-0.19537038073219634],[0.110185200072549,-0.19537038073219634],[0.11851853353005869,-0.19537038073219634],[0.12685186698756837,-0.19629636318595406],[0.12962964480673825,-0.19629636318595406],[0.13240742262590816,-0.19722223261164296],[0.13240742262590816,-0.19722223261164296],[0.13333334856563145,-0.19722223261164296],[0.13333334856563145,-0.19722223261164296],[0.13425927450535474,-0.19722223261164296],[0.13425927450535474,-0.19722223261164296],[0.13425927450535474,-0.19722223261164296],[0.13425927450535474,-0.19722223261164296],[0.13518520044507804,-0.19722223261164296],[0.13703705232452462,-0.19351852885274975],[0.14074075608341782,-0.178703713817177],[0.1472222376614809,-0.16944445441994402],[0.16851853427511673,-0.1425926021679684],[0.1805555714915196,-0.12407408337350245],[0.19259260870792247,-0.11296302861085729],[0.20925927562294183,-0.09814815706125012],[0.2194444609598981,-0.08796297172429385],[0.22962964629685437,-0.07592593450789098],[0.23796297975436406,-0.062037045412041525],[0.24166668351325724,-0.05648148977370174],[0.24444446133242714,-0.05277778601480855],[0.24629631321187373,-0.04722223037646876],[0.24629631321187373,-0.04444445255729887],[0.24629631321187373,-0.04166667473812898],[0.24629631321187373,-0.03981482285868238],[0.24629631321187373,-0.03796297097923579],[0.24629631321187373,-0.036111119099789195],[0.24629631321187373,-0.036111119099789195],[0.24629631321187373,-0.036111119099789195],[0.24629631321187373,-0.036111119099789195],[0.24629631321187373,-0.036111119099789195],[0.24629631321187373,-0.036111119099789195],[0.24629631321187373,-0.036111119099789195],[0.24629631321187373,-0.036111119099789195],[0.24629631321187373,-0.036111119099789195],[0.24629631321187373,-0.036111119099789195],[0.24629631321187373,-0.036111119099789195],[0.24629631321187373,-0.036111119099789195],[0.24629631321187373,-0.036111119099789195],[0.24629631321187373,-0.036111119099789195],[0.24629631321187373,-0.036111119099789195],[0.24629631321187373,-0.036111119099789195],[0.24629631321187373,-0.0351851931600659],[0.24629631321187373,-0.0351851931600659],[0.24629631321187373,-0.0351851931600659],[0.24629631321187373,-0.0351851931600659],[0.24537038727215044,-0.0351851931600659],[0.24537038727215044,-0.0351851931600659],[0.24444446133242714,-0.0351851931600659],[0.24444446133242714,-0.0351851931600659],[0.24444446133242714,-0.0351851931600659],[0.24351853539270382,-0.0351851931600659],[0.24074075757353394,-0.03240741534089601],[0.2166666831407282,-0.013888896546430059],[0.20185186810515546,-0.002777785269750489],[0.1898148308887526,0.007407400067205782],[0.17407408991345652,0.028703696680841623],[0.16666668239567015,0.037962956078074594],[0.16388890457650027,0.044444437656137675],[0.16018520081760707,0.04999996503746026],[0.15925927487788377,0.052777771113647357],[0.15925927487788377,0.05370369705337065]]]",2,"[26,76]",,,,,,,,,,,,,,bedroom6.jpg,space,4.2832,0,35,35,12,1,baggageClaim4.jpg,bambooforest5.jpg,bleachers7.jpg,backyard5.jpg,,
Image_List_2,,,,,,,,,,,,,,,,46622,2022-02-06_16h21.19.999,analogCatScenes,2020.1.3,Win32,60,"[1536,864]","[[[-0.0055555423928631675,-0.20370371418970604],[-0.0055555423928631675,-0.20370371418970604],[-0.0055555423928631675,-0.20370371418970604],[-0.0055555423928631675,-0.20370371418970604],[-0.0055555423928631675,-0.20370371418970604],[-0.0055555423928631675,-0.20370371418970604],[-0.0055555423928631675,-0.20370371418970604],[-0.0055555423928631675,-0.20370371418970604],[-0.0055555423928631675,-0.20370371418970604],[-0.012962949910649547,-0.20370371418970604],[-0.0296296168256689,-0.20277778824998272],[-0.05740739501736782,-0.19722223261164296],[-0.08055554351045026,-0.18611112133496338],[-0.11018517358159577,-0.16944445441994402],[-0.14907406304997425,-0.14629630592686158],[-0.1722222115430567,-0.13055556495156553],[-0.19999998973475563,-0.09907413951500782],[-0.21111104449740078,-0.08055556420650747],[-0.22037030389463375,-0.06018519353259493],[-0.22685184198673125,-0.036111119099789195],[-0.22962956329186673,-0.02407408188338633],[-0.23148147168534774,-0.010185192787536868],[-0.23240739762507104,0.00462962224803589],[-0.23333332356479433,0.008333326006929079],[-0.23333332356479433,0.011111103826098971],[-0.23425919299048323,0.012962955705545566],[-0.2361111013839642,0.014814807584992162],[-0.2361111013839642,0.016666659464438755],[-0.2361111013839642,0.017592585404162055],[-0.2361111013839642,0.018518511343885352],[-0.2361111013839642,0.018518511343885352],[-0.2361111013839642,0.018518511343885352]]]",1,[32],,,,,,,,,,,,,,cafeteria6.jpg,space,2.4675,0,36,36,16,1,basement.jpg,breakroom2.jpg,campusquad4.jpg,barbershop2.jpg,,
Image_List_2,,,,,,,,,,,,,,,,46622,2022-02-06_16h21.19.999,analogCatScenes,2020.1.3,Win32,60,"[1536,864]","[[[-0.0009259126942466806,-0.19907408449108954],[-0.0009259126942466806,-0.19907408449108954],[-0.0009259126942466806,-0.19907408449108954],[-0.0009259126942466806,-0.19907408449108954],[-0.0009259126942466806,-0.19907408449108954],[-0.0009259126942466806,-0.19907408449108954],[-0.0009259126942466806,-0.19907408449108954],[-0.0055555423928631675,-0.19907408449108954],[-0.017592579609266034,-0.19537038073219634],[-0.03888887622290187,-0.1824074740901046],[-0.053703634744440225,-0.1740740841185605],[-0.07314813599266388,-0.16203704690215764],[-0.10740739576242588,-0.1407408068025562],[-0.12499998861716853,-0.13240741683101212],[-0.14537035929108108,-0.12592593525294904],[-0.15740739650748395,-0.12407408337350245],[-0.16296295214582374,-0.12314815743377915],[-0.1675925818444402,-0.12314815743377915],[-0.1703703596636101,-0.12222228800809026],[-0.1722222115430567,-0.12222228800809026],[-0.17314813748278,-0.12129630555433256],[-0.1740740069084689,-0.11944445367488596],[-0.1749999893622266,-0.11944445367488596],[-0.1759259153019499,-0.11666667585571606],[-0.1759259153019499,-0.11111112021737629],[-0.1712962856033334,-0.10092593488042001],[-0.14814813711025096,-0.08518519390512395],[-0.1333333220746782,-0.07592593450789098],[-0.11296295140076566,-0.06296297135176482],[-0.08703702508851334,-0.04814815631619206],[-0.04259257998179506,-0.025000007823109627],[-0.014814801790096142,-0.01666667436559995],[0.011111181036190592,-0.010185192787536868],[0.030555569256345432,-0.008333340908090273],[0.046296310231641484,-0.007407414968366976],[0.06388890308638413,-0.005555563088920381],[0.07407408842334041,-0.005555563088920381],[0.08425927376029668,-0.004629637149197084],[0.09351853315752966,-0.0037037112094737866],[0.09722223691642284,-0.002777785269750489],[0.10092594067531603,-0.002777785269750489],[0.10185186661503932,-0.002777785269750489],[0.10277779255476263,-0.002777785269750489],[0.10462964443420922,-0.002777785269750489],[0.10555557037393253,-0.002777785269750489],[0.10555557037393253,-0.002777785269750489],[0.10648149631365582,-0.002777785269750489],[0.10648149631365582,-0.002777785269750489],[0.10648149631365582,-0.002777785269750489],[0.10648149631365582,-0.002777785269750489]],[[0.007407420763262996,-0.20462964012942933],[0.007407420763262996,-0.20462964012942933],[0.007407420763262996,-0.20462964012942933],[0.007407420763262996,-0.20462964012942933],[0.007407420763262996,-0.20462964012942933],[0.007407420763262996,-0.20462964012942933],[0.007407420763262996,-0.20462964012942933],[0.007407420763262996,-0.20462964012942933],[0.007407420763262996,-0.20462964012942933],[0.007407420763262996,-0.20462964012942933],[0.007407420763262996,-0.20462964012942933],[0.007407420763262996,-0.20462964012942933],[0.007407420763262996,-0.20462964012942933],[0.007407420763262996,-0.20462964012942933],[0.007407420763262996,-0.20462964012942933],[0.007407420763262996,-0.20462964012942933],[0.007407420763262996,-0.20462964012942933],[0.007407420763262996,-0.20462964012942933],[0.007407420763262996,-0.20462964012942933],[0.007407420763262996,-0.20462964012942933],[0.007407420763262996,-0.20462964012942933],[0.007407420763262996,-0.20462964012942933],[0.007407420763262996,-0.20462964012942933],[0.007407420763262996,-0.20462964012942933],[0.007407420763262996,-0.20462964012942933],[0.007407420763262996,-0.20462964012942933],[0.007407420763262996,-0.20462964012942933],[0.007407420763262996,-0.20462964012942933],[0.007407420763262996,-0.20462964012942933],[0.007407420763262996,-0.20462964012942933],[0.007407420763262996,-0.20462964012942933]]]",2,"[50,31]",,,,,,,,,,,,,,pavilion5.jpg,space,5.5336,0,37,37,71,1,metroInside2.jpg,metroInside3.jpg,museum3.jpg,jewelrystore.jpg,,
Image_List_2,,,,,,,,,,,,,,,,46622,2022-02-06_16h21.19.999,analogCatScenes,2020.1.3,Win32,60,"[1536,864]","[[[-0.00462961645313987,-0.19629636318595406],[-0.00462961645313987,-0.19629636318595406],[-0.00462961645313987,-0.19629636318595406],[-0.00462961645313987,-0.19629636318595406],[-0.00462961645313987,-0.19629636318595406],[-0.00462961645313987,-0.19629636318595406],[-0.00462961645313987,-0.19629636318595406],[-0.00462961645313987,-0.19629636318595406],[-0.00462961645313987,-0.19629636318595406],[-0.00462961645313987,-0.19629636318595406],[-0.00462961645313987,-0.19629636318595406],[-0.00462961645313987,-0.19629636318595406],[-0.00462961645313987,-0.19629636318595406],[-0.00833332021203306,-0.19259260291302646],[-0.03611109840373198,-0.16666667660077414],[-0.0629628941416732,-0.1398148243487985],[-0.09166665478712982,-0.1055555645790365],[-0.12870369237606172,-0.055555563833978444],[-0.14629622871676998,-0.0342592672203426],[-0.16574072996499362,-0.007407414968366976],[-0.17870363660708538,0.02222221510277854],[-0.18333326630570188,0.030555548560288217],[-0.18611110063890615,0.0370370301383513],[-0.19166665627724594,0.04537033533884377],[-0.19444443409641585,0.04907406735475416],[-0.19629628597586243,0.05370369705337065],[-0.19814813785530902,0.05833332675198714],[-0.1990740637950323,0.05925922443469323],[-0.19999998973475563,0.06111110457115703],[-0.19999998973475563,0.06111110457115703],[-0.19999998973475563,0.06111110457115703],[-0.20092591567447893,0.06111110457115703],[-0.2018517851001678,0.06203703051088033],[-0.2018517851001678,0.06203703051088033],[-0.20277776755392551,0.06296295645060362],[-0.20277776755392551,0.06296295645060362],[-0.2037036934936488,0.06296295645060362],[-0.2046296194333721,0.06296295645060362],[-0.2055555453730954,0.06388885413330972]]]",1,[39],,,,,,,,,,,,,,jail1.jpg,space,2.1169,0,38,38,57,1,hayfield5.jpg,hallway4.jpg,hut5.jpg,gazebo.jpg,,
