image_list,key_resp_intructions.keys,key_resp_intructions.rt,key_resp_intructions_3.keys,key_resp_intructions_3.rt,PracticeComplete_2.keys,PracticeComplete_2.rt,PracticeComplete_3.keys,PracticeComplete_3.rt,demo_trials.thisRepN,demo_trials.thisTrialN,demo_trials.thisN,demo_trials.thisIndex,demo_trials.ran,demo_images,path_images,participant,date,expName,psychopyVersion,OS,frameRate,windowSize,drawing,numDrawings,drawingSizes,practice_complete.keys,practice_complete.rt,PracticeComplete.keys,PracticeComplete.rt,practice_trials.thisRepN,practice_trials.thisTrialN,practice_trials.thisN,practice_trials.thisIndex,practice_trials.ran,practice_images,feedback_images,key_resp_intructions_2.keys,key_resp_intructions_2.rt,Image_List_1,trial_complete.keys,trial_complete.rt,trials.thisRepN,trials.thisTrialN,trials.thisN,trials.thisIndex,trials.ran,Image_List_2,Image_List_3,Image_List_4,Image_List_5,key_resp.keys,key_resp.rt
Image_List_1,space,10.498,space,4.713,space,5.15,space,0.793,0,0,0,6,1,right_left.jpg,right_left_path.jpg,46690,2022-03-11_17h01.06.078,analogCatScenes,2020.1.3,MacIntel,60,,,,,,,,,,,,,,,,,,,,,,,,,,,,,,,
Image_List_1,,,,,space,0.869,space,2.333,0,1,1,3,1,ahead_right_left.jpg,ahead_right_left_path.jpg,46690,2022-03-11_17h01.06.078,analogCatScenes,2020.1.3,MacIntel,60,,,,,,,,,,,,,,,,,,,,,,,,,,,,,,,
Image_List_1,,,,,space,0.547,space,0.479,0,2,2,4,1,left.jpg,left_path.jpg,46690,2022-03-11_17h01.06.078,analogCatScenes,2020.1.3,MacIntel,60,,,,,,,,,,,,,,,,,,,,,,,,,,,,,,,
Image_List_1,,,,,space,0.563,space,0.55,0,3,3,1,1,ahead_left.jpg,ahead_left_path.jpg,46690,2022-03-11_17h01.06.078,analogCatScenes,2020.1.3,MacIntel,60,,,,,,,,,,,,,,,,,,,,,,,,,,,,,,,
Image_List_1,,,,,space,0.7,space,0.411,0,4,4,5,1,right.jpg,right_path.jpg,46690,2022-03-11_17h01.06.078,analogCatScenes,2020.1.3,MacIntel,60,,,,,,,,,,,,,,,,,,,,,,,,,,,,,,,
Image_List_1,,,,,space,0.455,space,0.349,0,5,5,0,1,ahead.jpg,ahead_path.jpg,46690,2022-03-11_17h01.06.078,analogCatScenes,2020.1.3,MacIntel,60,,,,,,,,,,,,,,,,,,,,,,,,,,,,,,,
Image_List_1,,,,,space,0.476,space,0.772,0,6,6,2,1,ahead_right.jpg,ahead_right_path.jpg,46690,2022-03-11_17h01.06.078,analogCatScenes,2020.1.3,MacIntel,60,,,,,,,,,,,,,,,,,,,,,,,,,,,,,,,
Image_List_1,,,,,,,,,,,,,,,,46690,2022-03-11_17h01.06.078,analogCatScenes,2020.1.3,MacIntel,60,"[1440,900]",[],0,[],space,0.551,space,0.413,0,0,0,1,1,ahead_left_2.jpg,ahead_left_2_path.jpg,,,,,,,,,,,,,,,,
Image_List_1,,,,,,,,,,,,,,,,46690,2022-03-11_17h01.06.078,analogCatScenes,2020.1.3,MacIntel,60,"[1440,900]",[],0,[],space,0.395,space,0.293,0,1,1,2,1,ahead_right_2.jpg,ahead_right_2_path.jpg,,,,,,,,,,,,,,,,
Image_List_1,,,,,,,,,,,,,,,,46690,2022-03-11_17h01.06.078,analogCatScenes,2020.1.3,MacIntel,60,"[1440,900]",[],0,[],space,0.353,space,0.295,0,2,2,4,1,left_2.jpg,left_2_path.jpg,,,,,,,,,,,,,,,,
Image_List_1,,,,,,,,,,,,,,,,46690,2022-03-11_17h01.06.078,analogCatScenes,2020.1.3,MacIntel,60,"[1440,900]",[],0,[],space,0.997,space,0.367,0,3,3,6,1,right_left_2.jpg,right_left_2_path.jpg,,,,,,,,,,,,,,,,
Image_List_1,,,,,,,,,,,,,,,,46690,2022-03-11_17h01.06.078,analogCatScenes,2020.1.3,MacIntel,60,"[1440,900]",[],0,[],space,2.464,space,1.19,0,4,4,0,1,ahead_2.jpg,ahead_2_path.jpg,,,,,,,,,,,,,,,,
Image_List_1,,,,,,,,,,,,,,,,46690,2022-03-11_17h01.06.078,analogCatScenes,2020.1.3,MacIntel,60,"[1440,900]","[[[-0.005555555555555556,-0.2011111111111111],[-0.005555555555555556,-0.2011111111111111],[-0.005555555555555556,-0.2011111111111111],[-0.005555555555555556,-0.2011111111111111],[-0.005555555555555556,-0.2011111111111111],[-0.005555555555555556,-0.2011111111111111],[-0.005555555555555556,-0.2011111111111111],[-0.005555555555555556,-0.2011111111111111],[-0.005555555555555556,-0.2011111111111111],[-0.005555555555555556,-0.2011111111111111],[-0.005555555555555556,-0.2011111111111111],[-0.005555555555555556,-0.2011111111111111],[-0.005555555555555556,-0.2011111111111111],[-0.005555555555555556,-0.2011111111111111],[-0.0044444444444444444,-0.1988888888888889],[-0.0022222222222222222,-0.19444444444444445],[0.0022222222222222222,-0.18666666666666668],[0.006666666666666667,-0.17333333333333334],[0.012222222222222223,-0.15333333333333332],[0.017777777777777778,-0.12777777777777777],[0.025555555555555557,-0.09333333333333334],[0.034444444444444444,-0.057777777777777775],[0.042222222222222223,-0.03111111111111111],[0.04666666666666667,-0.016666666666666666],[0.04888888888888889,-0.0077777777777777776],[0.05,-0.0033333333333333335],[0.051111111111111114,-0.0022222222222222222],[0.051111111111111114,-0.0022222222222222222],[0.051111111111111114,-0.0011111111111111111],[0.051111111111111114,-0.0011111111111111111],[0.051111111111111114,-0.0011111111111111111],[0.051111111111111114,-0.0011111111111111111],[0.051111111111111114,-0.0011111111111111111],[0.051111111111111114,-0.0011111111111111111],[0.051111111111111114,-0.0011111111111111111],[0.051111111111111114,-0.0011111111111111111],[0.051111111111111114,-0.0011111111111111111],[0.051111111111111114,-0.0011111111111111111],[0.051111111111111114,-0.0011111111111111111],[0.051111111111111114,-0.0011111111111111111],[0.051111111111111114,0],[0.05333333333333334,0.0022222222222222222],[0.05333333333333334,0.0022222222222222222],[0.06333333333333334,0.022222222222222223],[0.07,0.035555555555555556],[0.07444444444444444,0.04555555555555556],[0.07777777777777778,0.051111111111111114],[0.07888888888888888,0.05555555555555555],[0.08,0.056666666666666664],[0.0811111111111111,0.057777777777777775],[0.0811111111111111,0.057777777777777775],[0.0811111111111111,0.057777777777777775],[0.0811111111111111,0.057777777777777775],[0.0811111111111111,0.057777777777777775],[0.0811111111111111,0.057777777777777775],[0.0811111111111111,0.057777777777777775],[0.0811111111111111,0.057777777777777775],[0.0811111111111111,0.057777777777777775],[0.0811111111111111,0.057777777777777775],[0.0811111111111111,0.057777777777777775],[0.0811111111111111,0.057777777777777775],[0.08,0.057777777777777775],[0.07888888888888888,0.057777777777777775],[0.07777777777777778,0.057777777777777775],[0.07555555555555556,0.056666666666666664],[0.07333333333333333,0.05555555555555555],[0.07111111111111111,0.05333333333333334],[0.07111111111111111,0.05333333333333334],[0.06888888888888889,0.052222222222222225],[0.06888888888888889,0.052222222222222225],[0.06555555555555556,0.04888888888888889],[0.06555555555555556,0.04888888888888889],[0.06555555555555556,0.04888888888888889],[0.06555555555555556,0.04777777777777778],[0.06555555555555556,0.04777777777777778],[0.06555555555555556,0.04777777777777778],[0.06555555555555556,0.04666666666666667],[0.06555555555555556,0.04666666666666667],[0.06,0.03777777777777778],[0.056666666666666664,0.03],[0.05333333333333334,0.025555555555555557],[0.052222222222222225,0.021111111111111112],[0.052222222222222225,0.021111111111111112],[0.04888888888888889,0.013333333333333334],[0.043333333333333335,0.0022222222222222222],[0.035555555555555556,-0.016666666666666666],[0.028888888888888888,-0.03333333333333333],[0.025555555555555557,-0.044444444444444446],[0.022222222222222223,-0.052222222222222225],[0.022222222222222223,-0.052222222222222225],[0.02,-0.056666666666666664],[0.02,-0.057777777777777775],[0.02,-0.057777777777777775],[0.02,-0.057777777777777775],[0.02,-0.057777777777777775],[0.01888888888888889,-0.057777777777777775],[0.01888888888888889,-0.057777777777777775],[0.01888888888888889,-0.057777777777777775],[0.01888888888888889,-0.057777777777777775],[0.01888888888888889,-0.056666666666666664],[0.01888888888888889,-0.056666666666666664],[0.01888888888888889,-0.05555555555555555],[0.01888888888888889,-0.05555555555555555],[0.01888888888888889,-0.05444444444444444],[0.01888888888888889,-0.05444444444444444],[0.01888888888888889,-0.05444444444444444],[0.01888888888888889,-0.05444444444444444],[0.01888888888888889,-0.05444444444444444],[0.01888888888888889,-0.05444444444444444],[0.01888888888888889,-0.05444444444444444],[0.01888888888888889,-0.05444444444444444],[0.01888888888888889,-0.05444444444444444],[0.01888888888888889,-0.05444444444444444],[0.01888888888888889,-0.05444444444444444],[0.01888888888888889,-0.05444444444444444],[0.01888888888888889,-0.05444444444444444],[0.01888888888888889,-0.05444444444444444],[0.02,-0.05333333333333334],[0.02,-0.05333333333333334],[0.02,-0.05333333333333334],[0.02,-0.052222222222222225],[0.02,-0.052222222222222225],[0.021111111111111112,-0.052222222222222225],[0.021111111111111112,-0.051111111111111114],[0.021111111111111112,-0.051111111111111114],[0.021111111111111112,-0.051111111111111114],[0.021111111111111112,-0.051111111111111114],[0.021111111111111112,-0.051111111111111114]]]",1,[128],space,3.157,space,0.394,0,5,5,3,1,ahead_right_left_2.jpg,ahead_right_left_2_path.jpg,,,,,,,,,,,,,,,,
Image_List_1,,,,,,,,,,,,,,,,46690,2022-03-11_17h01.06.078,analogCatScenes,2020.1.3,MacIntel,60,"[1440,900]","[[[0.006666666666666667,-0.20555555555555555],[0.006666666666666667,-0.20555555555555555],[0.006666666666666667,-0.20555555555555555],[0.006666666666666667,-0.20555555555555555],[0.006666666666666667,-0.20555555555555555],[0.006666666666666667,-0.20555555555555555],[0.006666666666666667,-0.20555555555555555],[0.006666666666666667,-0.20555555555555555],[0.006666666666666667,-0.20555555555555555],[0.006666666666666667,-0.20555555555555555],[0.006666666666666667,-0.20555555555555555],[0.006666666666666667,-0.20444444444444446],[0.0077777777777777776,-0.1988888888888889],[0.015555555555555555,-0.18],[0.03333333333333333,-0.15],[0.057777777777777775,-0.11888888888888889],[0.08444444444444445,-0.08777777777777777],[0.11,-0.06],[0.13555555555555557,-0.035555555555555556],[0.15555555555555556,-0.017777777777777778],[0.1711111111111111,-0.0077777777777777776],[0.1811111111111111,-0.0011111111111111111],[0.18777777777777777,0.0022222222222222222],[0.19111111111111112,0.0033333333333333335],[0.1922222222222222,0.0044444444444444444],[0.19333333333333333,0.0044444444444444444],[0.19444444444444445,0.005555555555555556],[0.19555555555555557,0.005555555555555556],[0.19777777777777777,0.006666666666666667],[0.1988888888888889,0.006666666666666667],[0.2,0.006666666666666667],[0.2,0.006666666666666667],[0.2011111111111111,0.006666666666666667],[0.20333333333333334,0.0077777777777777776],[0.20666666666666667,0.0077777777777777776],[0.21,0.0077777777777777776],[0.2111111111111111,0.008888888888888889],[0.21222222222222223,0.008888888888888889],[0.21333333333333335,0.008888888888888889],[0.21333333333333335,0.008888888888888889],[0.21333333333333335,0.008888888888888889],[0.21333333333333335,0.008888888888888889],[0.21333333333333335,0.008888888888888889],[0.21333333333333335,0.008888888888888889],[0.2111111111111111,0.0077777777777777776],[0.1988888888888889,-0.0022222222222222222]],[[-0.0033333333333333335,-0.21],[-0.0033333333333333335,-0.21],[-0.0033333333333333335,-0.21],[-0.0033333333333333335,-0.21],[-0.0033333333333333335,-0.21],[-0.0033333333333333335,-0.21],[-0.0033333333333333335,-0.21],[-0.0033333333333333335,-0.21],[-0.0033333333333333335,-0.21],[-0.0033333333333333335,-0.21],[0.0022222222222222222,-0.20777777777777778],[0.012222222222222223,-0.20222222222222222],[0.021111111111111112,-0.19777777777777777],[0.02666666666666667,-0.19555555555555557],[0.03111111111111111,-0.19333333333333333],[0.03222222222222222,-0.1922222222222222],[0.03333333333333333,-0.1922222222222222],[0.03333333333333333,-0.1922222222222222],[0.04555555555555556,-0.18444444444444444],[0.04555555555555556,-0.18444444444444444],[0.06555555555555556,-0.17],[0.07,-0.16555555555555557],[0.07333333333333333,-0.16333333333333333],[0.07444444444444444,-0.1622222222222222],[0.07555555555555556,-0.16111111111111112],[0.07777777777777778,-0.16],[0.08,-0.15888888888888889],[0.08222222222222222,-0.15777777777777777],[0.08333333333333333,-0.15666666666666668],[0.08444444444444445,-0.15555555555555556],[0.08555555555555555,-0.15444444444444444],[0.08555555555555555,-0.15444444444444444],[0.08555555555555555,-0.15444444444444444],[0.08555555555555555,-0.15444444444444444],[0.08555555555555555,-0.15444444444444444],[0.08555555555555555,-0.15444444444444444],[0.08555555555555555,-0.15444444444444444],[0.08555555555555555,-0.15444444444444444],[0.08555555555555555,-0.15444444444444444],[0.08555555555555555,-0.15444444444444444],[0.08555555555555555,-0.15444444444444444],[0.08555555555555555,-0.15444444444444444],[0.08555555555555555,-0.15444444444444444]]]",2,"[46,43]",space,5.711,space,0.372,0,6,6,5,1,right_2.jpg,right_2_path.jpg,,,,,,,,,,,,,,,,
Image_List_1,,,,,,,,,,,,,,,,46690,2022-03-11_17h01.06.078,analogCatScenes,2020.1.3,MacIntel,60,"[1440,900]","[[[-0.008888888888888889,-0.1922222222222222],[-0.008888888888888889,-0.1922222222222222],[-0.008888888888888889,-0.1922222222222222],[-0.008888888888888889,-0.1922222222222222],[-0.008888888888888889,-0.1922222222222222],[-0.008888888888888889,-0.1922222222222222],[-0.008888888888888889,-0.1922222222222222],[-0.008888888888888889,-0.19111111111111112],[-0.008888888888888889,-0.18444444444444444],[-0.008888888888888889,-0.1711111111111111],[-0.0077777777777777776,-0.15],[-0.0044444444444444444,-0.12555555555555556],[-0.0033333333333333335,-0.10888888888888888],[-0.0033333333333333335,-0.1],[-0.0033333333333333335,-0.09444444444444444],[-0.0033333333333333335,-0.09],[-0.0033333333333333335,-0.09],[-0.0033333333333333335,-0.09],[-0.0033333333333333335,-0.08333333333333333],[0,-0.06444444444444444],[0.006666666666666667,-0.03666666666666667],[0.012222222222222223,-0.011111111111111112],[0.016666666666666666,0.0044444444444444444],[0.02,0.014444444444444444],[0.021111111111111112,0.01888888888888889],[0.022222222222222223,0.021111111111111112],[0.022222222222222223,0.021111111111111112],[0.022222222222222223,0.021111111111111112],[0.022222222222222223,0.021111111111111112],[0.022222222222222223,0.021111111111111112],[0.022222222222222223,0.021111111111111112],[0.022222222222222223,0.021111111111111112],[0.022222222222222223,0.021111111111111112],[0.022222222222222223,0.021111111111111112],[0.022222222222222223,0.021111111111111112],[0.022222222222222223,0.021111111111111112],[0.022222222222222223,0.021111111111111112],[0.022222222222222223,0.021111111111111112],[0.022222222222222223,0.021111111111111112],[0.022222222222222223,0.021111111111111112],[0.021111111111111112,0.021111111111111112],[0.021111111111111112,0.022222222222222223],[0.02,0.022222222222222223],[0.01888888888888889,0.02]]]",1,[44],,,,,,,,,,,,space,2.535,bambooforest4.jpg,space,2.285,0,0,0,15,1,cafeteria5.jpg,bleachers8.jpg,cabinIndoors.jpg,bar8.jpg,,
Image_List_1,,,,,,,,,,,,,,,,46690,2022-03-11_17h01.06.078,analogCatScenes,2020.1.3,MacIntel,60,"[1440,900]","[[[-0.0011111111111111111,-0.19666666666666666],[-0.0011111111111111111,-0.19666666666666666],[-0.0011111111111111111,-0.19666666666666666],[-0.0011111111111111111,-0.19666666666666666],[-0.0011111111111111111,-0.19666666666666666],[-0.0011111111111111111,-0.19666666666666666],[-0.0011111111111111111,-0.19666666666666666],[-0.0011111111111111111,-0.19666666666666666],[-0.0011111111111111111,-0.19666666666666666],[0.0044444444444444444,-0.19666666666666666],[0.017777777777777778,-0.19444444444444445],[0.03666666666666667,-0.1922222222222222],[0.056666666666666664,-0.19],[0.07555555555555556,-0.18777777777777777],[0.09111111111111111,-0.18555555555555556],[0.10555555555555556,-0.18444444444444444],[0.11888888888888889,-0.18333333333333332],[0.13111111111111112,-0.1811111111111111],[0.14222222222222222,-0.17888888888888888],[0.15333333333333332,-0.17666666666666667],[0.16444444444444445,-0.17333333333333334],[0.17666666666666667,-0.1688888888888889],[0.18777777777777777,-0.16666666666666666],[0.1988888888888889,-0.16444444444444445],[0.2088888888888889,-0.1622222222222222],[0.21555555555555556,-0.1622222222222222],[0.21888888888888888,-0.1622222222222222],[0.22555555555555556,-0.1622222222222222],[0.23333333333333334,-0.16111111111111112],[0.24222222222222223,-0.16],[0.25,-0.15777777777777777],[0.25555555555555554,-0.15666666666666668],[0.2611111111111111,-0.15555555555555556],[0.2644444444444444,-0.15555555555555556],[0.2677777777777778,-0.15555555555555556],[0.27111111111111114,-0.15444444444444444],[0.27444444444444444,-0.15333333333333332],[0.2777777777777778,-0.15333333333333332],[0.2788888888888889,-0.15222222222222223],[0.2788888888888889,-0.1511111111111111],[0.2788888888888889,-0.14888888888888888],[0.2777777777777778,-0.14777777777777779]],[[0.0011111111111111111,-0.1922222222222222],[0.0011111111111111111,-0.1922222222222222],[0.0011111111111111111,-0.1922222222222222],[0.0011111111111111111,-0.1922222222222222],[0.0011111111111111111,-0.1922222222222222],[0.0011111111111111111,-0.1922222222222222],[0.0011111111111111111,-0.1922222222222222],[0.0011111111111111111,-0.1922222222222222],[0,-0.1922222222222222],[-0.0077777777777777776,-0.1922222222222222],[-0.023333333333333334,-0.1922222222222222],[-0.04555555555555556,-0.1922222222222222],[-0.06666666666666667,-0.1922222222222222],[-0.08333333333333333,-0.1922222222222222],[-0.09666666666666666,-0.1922222222222222],[-0.10555555555555556,-0.1922222222222222],[-0.1111111111111111,-0.19111111111111112],[-0.11666666666666667,-0.18888888888888888],[-0.12111111111111111,-0.18777777777777777],[-0.12555555555555556,-0.18555555555555556],[-0.13,-0.18333333333333332],[-0.13333333333333333,-0.18222222222222223],[-0.13777777777777778,-0.18222222222222223],[-0.1411111111111111,-0.18222222222222223],[-0.14444444444444443,-0.18222222222222223],[-0.14666666666666667,-0.18222222222222223],[-0.15,-0.18222222222222223],[-0.15333333333333332,-0.18222222222222223],[-0.15777777777777777,-0.18222222222222223],[-0.16333333333333333,-0.18222222222222223],[-0.1711111111111111,-0.1811111111111111],[-0.17888888888888888,-0.1811111111111111],[-0.18555555555555556,-0.18],[-0.1922222222222222,-0.18],[-0.19777777777777777,-0.18],[-0.2011111111111111,-0.18],[-0.20333333333333334,-0.18],[-0.20555555555555555,-0.18],[-0.20666666666666667,-0.18],[-0.2088888888888889,-0.18],[-0.2111111111111111,-0.17888888888888888],[-0.21444444444444444,-0.17888888888888888],[-0.21777777777777776,-0.17888888888888888],[-0.2222222222222222,-0.17888888888888888],[-0.22555555555555556,-0.17888888888888888],[-0.22777777777777777,-0.17888888888888888],[-0.23,-0.17888888888888888],[-0.23222222222222222,-0.17888888888888888],[-0.23444444444444446,-0.17888888888888888],[-0.23555555555555555,-0.17888888888888888],[-0.23777777777777778,-0.17888888888888888],[-0.2388888888888889,-0.17888888888888888],[-0.2411111111111111,-0.17888888888888888],[-0.24333333333333335,-0.17888888888888888],[-0.24444444444444444,-0.17888888888888888],[-0.2477777777777778,-0.17888888888888888],[-0.2511111111111111,-0.17888888888888888],[-0.2544444444444444,-0.18],[-0.2588888888888889,-0.1811111111111111],[-0.2611111111111111,-0.1811111111111111],[-0.2633333333333333,-0.18222222222222223],[-0.26555555555555554,-0.18222222222222223],[-0.26555555555555554,-0.18333333333333332],[-0.26666666666666666,-0.18333333333333332],[-0.26666666666666666,-0.18333333333333332],[-0.26555555555555554,-0.18333333333333332],[-0.26555555555555554,-0.18333333333333332],[-0.2644444444444444,-0.18333333333333332]]]",2,"[42,68]",,,,,,,,,,,,,,artStudio1.jpg,space,4.299,0,1,1,4,1,baggageClaim2.jpg,auto_showroom1.jpg,appleorchard3.jpg,alley4.jpg,,
Image_List_1,,,,,,,,,,,,,,,,46690,2022-03-11_17h01.06.078,analogCatScenes,2020.1.3,MacIntel,60,"[1440,900]","[[[-0.01,-0.20666666666666667],[-0.01,-0.20666666666666667],[-0.01,-0.20666666666666667],[-0.01,-0.20666666666666667],[-0.01,-0.20666666666666667],[-0.01,-0.20666666666666667],[-0.01,-0.20666666666666667],[-0.01,-0.20666666666666667],[-0.01,-0.20666666666666667],[-0.01,-0.20666666666666667],[-0.01,-0.20555555555555555],[-0.013333333333333334,-0.19777777777777777],[-0.03,-0.16555555555555557],[-0.07111111111111111,-0.1],[-0.12555555555555556,-0.022222222222222223],[-0.17,0.03111111111111111],[-0.20666666666666667,0.06888888888888889],[-0.23666666666666666,0.09666666666666666],[-0.2577777777777778,0.11222222222222222],[-0.2722222222222222,0.12111111111111111],[-0.2811111111111111,0.12666666666666668],[-0.2866666666666667,0.13],[-0.28888888888888886,0.13111111111111112],[-0.29,0.1322222222222222],[-0.29,0.13333333333333333],[-0.2911111111111111,0.13333333333333333],[-0.2922222222222222,0.13333333333333333],[-0.29333333333333333,0.13333333333333333],[-0.2966666666666667,0.13333333333333333],[-0.3011111111111111,0.1288888888888889],[-0.3055555555555556,0.12333333333333334],[-0.31,0.11888888888888889],[-0.31333333333333335,0.11666666666666667],[-0.31444444444444447,0.11555555555555555],[-0.31444444444444447,0.11555555555555555],[-0.31444444444444447,0.11666666666666667],[-0.31555555555555553,0.11777777777777777],[-0.31555555555555553,0.12],[-0.31666666666666665,0.12111111111111111],[-0.31666666666666665,0.12222222222222222],[-0.31666666666666665,0.12333333333333334],[-0.31666666666666665,0.12333333333333334],[-0.31666666666666665,0.12333333333333334],[-0.31555555555555553,0.12444444444444444]]]",1,[44],,,,,,,,,,,,,,liquorstore8.jpg,space,2.23,0,2,2,69,1,parkinglot2.jpg,livingroom.jpg,metroInside1.jpg,icecream2.jpg,,
Image_List_1,,,,,,,,,,,,,,,,46690,2022-03-11_17h01.06.078,analogCatScenes,2020.1.3,MacIntel,60,"[1440,900]","[[[0.0033333333333333335,-0.19333333333333333],[0.0033333333333333335,-0.19333333333333333],[0.0033333333333333335,-0.19333333333333333],[0.0033333333333333335,-0.19333333333333333],[0.0033333333333333335,-0.19333333333333333],[0.0033333333333333335,-0.19333333333333333],[0.0033333333333333335,-0.19333333333333333],[0.0033333333333333335,-0.19333333333333333],[0.0033333333333333335,-0.19333333333333333],[0.01,-0.19333333333333333],[0.01,-0.19333333333333333],[0.023333333333333334,-0.19333333333333333],[0.07666666666666666,-0.19333333333333333],[0.07666666666666666,-0.19333333333333333],[0.13777777777777778,-0.19333333333333333],[0.16555555555555557,-0.19333333333333333],[0.19333333333333333,-0.19333333333333333],[0.21333333333333335,-0.19333333333333333],[0.2288888888888889,-0.19333333333333333],[0.2288888888888889,-0.19333333333333333],[0.2477777777777778,-0.19444444444444445],[0.2477777777777778,-0.19444444444444445],[0.2788888888888889,-0.19777777777777777],[0.2911111111111111,-0.1988888888888889],[0.3,-0.1988888888888889],[0.30777777777777776,-0.2],[0.31666666666666665,-0.2],[0.3411111111111111,-0.2]],[[-0.0044444444444444444,-0.19555555555555557],[-0.0044444444444444444,-0.19555555555555557],[-0.0044444444444444444,-0.19555555555555557],[-0.0044444444444444444,-0.19555555555555557],[-0.0044444444444444444,-0.19555555555555557],[-0.0044444444444444444,-0.19555555555555557],[-0.0044444444444444444,-0.19555555555555557],[-0.0044444444444444444,-0.19555555555555557],[-0.0044444444444444444,-0.19555555555555557],[-0.005555555555555556,-0.19555555555555557],[-0.014444444444444444,-0.19333333333333333],[-0.03888888888888889,-0.18444444444444444],[-0.07888888888888888,-0.17],[-0.12444444444444444,-0.15444444444444444],[-0.16777777777777778,-0.14],[-0.20333333333333334,-0.1288888888888889],[-0.23,-0.12],[-0.2477777777777778,-0.11555555555555555],[-0.25666666666666665,-0.11222222222222222],[-0.2644444444444444,-0.1111111111111111],[-0.27,-0.11],[-0.27444444444444444,-0.11],[-0.28,-0.11],[-0.2866666666666667,-0.1111111111111111],[-0.29333333333333333,-0.11222222222222222],[-0.29888888888888887,-0.11333333333333333],[-0.30333333333333334,-0.11222222222222222],[-0.30666666666666664,-0.1111111111111111],[-0.3088888888888889,-0.11],[-0.31,-0.11],[-0.3111111111111111,-0.11],[-0.31333333333333335,-0.11],[-0.31555555555555553,-0.11],[-0.31777777777777777,-0.11],[-0.32,-0.1111111111111111],[-0.32222222222222224,-0.1111111111111111],[-0.3244444444444444,-0.11222222222222222],[-0.32555555555555554,-0.11222222222222222],[-0.32666666666666666,-0.11222222222222222],[-0.3277777777777778,-0.1111111111111111],[-0.3277777777777778,-0.1111111111111111],[-0.3288888888888889,-0.11],[-0.3288888888888889,-0.10888888888888888],[-0.3288888888888889,-0.10888888888888888],[-0.3288888888888889,-0.10888888888888888],[-0.3288888888888889,-0.10888888888888888]]]",2,"[28,46]",,,,,,,,,,,,,,bus_shelter.jpg,space,4.298,0,3,3,23,1,church8.jpg,carmechanic4.jpeg,cemetery3.jpg,bleachers6.jpg,,
Image_List_1,,,,,,,,,,,,,,,,46690,2022-03-11_17h01.06.078,analogCatScenes,2020.1.3,MacIntel,60,"[1440,900]","[[[-0.01,-0.1922222222222222],[-0.01,-0.1922222222222222],[-0.01,-0.1922222222222222],[-0.01,-0.1922222222222222],[-0.01,-0.1922222222222222],[-0.01,-0.1922222222222222],[-0.01,-0.1922222222222222],[-0.01,-0.1922222222222222],[-0.01,-0.1922222222222222],[-0.01,-0.1922222222222222],[-0.008888888888888889,-0.1922222222222222],[-0.0077777777777777776,-0.19111111111111112],[-0.0033333333333333335,-0.18888888888888888],[-0.0033333333333333335,-0.18888888888888888],[0.011111111111111112,-0.17333333333333334],[0.01888888888888889,-0.16555555555555557],[0.02666666666666667,-0.15666666666666668],[0.02666666666666667,-0.15666666666666668],[0.042222222222222223,-0.1388888888888889],[0.051111111111111114,-0.1288888888888889],[0.057777777777777775,-0.12],[0.057777777777777775,-0.12],[0.06555555555555556,-0.10777777777777778],[0.06777777777777778,-0.10222222222222223],[0.07111111111111111,-0.09222222222222222],[0.07555555555555556,-0.07777777777777778],[0.0811111111111111,-0.06222222222222222],[0.08555555555555555,-0.05],[0.08666666666666667,-0.043333333333333335],[0.08888888888888889,-0.03888888888888889],[0.08888888888888889,-0.03777777777777778],[0.08888888888888889,-0.03777777777777778],[0.08888888888888889,-0.03777777777777778],[0.08888888888888889,-0.03777777777777778],[0.08888888888888889,-0.03777777777777778],[0.08888888888888889,-0.03777777777777778],[0.08888888888888889,-0.03777777777777778],[0.08888888888888889,-0.03777777777777778],[0.08888888888888889,-0.03777777777777778],[0.08888888888888889,-0.03777777777777778],[0.08888888888888889,-0.03777777777777778],[0.08888888888888889,-0.03777777777777778],[0.08888888888888889,-0.03777777777777778],[0.08888888888888889,-0.03777777777777778],[0.08888888888888889,-0.03777777777777778],[0.08888888888888889,-0.03777777777777778],[0.08888888888888889,-0.03888888888888889],[0.08888888888888889,-0.03888888888888889],[0.08888888888888889,-0.03888888888888889],[0.08888888888888889,-0.04],[0.08888888888888889,-0.04]],[[0.0077777777777777776,-0.19444444444444445],[0.0077777777777777776,-0.19444444444444445],[0.0077777777777777776,-0.19444444444444445],[0.0077777777777777776,-0.19444444444444445],[0.0077777777777777776,-0.19444444444444445],[0.0077777777777777776,-0.19444444444444445],[0.0077777777777777776,-0.19444444444444445],[0.0077777777777777776,-0.19444444444444445],[0.0077777777777777776,-0.19444444444444445],[0.0077777777777777776,-0.19444444444444445],[0.006666666666666667,-0.19444444444444445],[0.0044444444444444444,-0.19444444444444445],[-0.0044444444444444444,-0.19444444444444445],[-0.025555555555555557,-0.19111111111111112],[-0.06222222222222222,-0.18444444444444444],[-0.11555555555555555,-0.17444444444444446],[-0.18666666666666668,-0.15666666666666668],[-0.25666666666666665,-0.13666666666666666],[-0.30666666666666664,-0.12],[-0.33555555555555555,-0.10888888888888888]]]",2,"[51,20]",,,,,,,,,,,,,,hut2.jpg,space,3.598,0,4,4,63,1,museum6.jpg,hotelRoom2.jpg,lab4.jpg,highway2.jpg,,
Image_List_1,,,,,,,,,,,,,,,,46690,2022-03-11_17h01.06.078,analogCatScenes,2020.1.3,MacIntel,60,"[1440,900]","[[[0.0011111111111111111,-0.2],[0.0011111111111111111,-0.2],[0.0011111111111111111,-0.2],[0.0011111111111111111,-0.2],[0.0011111111111111111,-0.2],[0.0011111111111111111,-0.2],[0.0011111111111111111,-0.2],[0.0011111111111111111,-0.2],[0.0011111111111111111,-0.2],[0.0022222222222222222,-0.2],[0.006666666666666667,-0.2],[0.027777777777777776,-0.19555555555555557],[0.06111111111111111,-0.18777777777777777],[0.09111111111111111,-0.1811111111111111],[0.11333333333333333,-0.17666666666666667],[0.12777777777777777,-0.17444444444444446],[0.13666666666666666,-0.17333333333333334],[0.14333333333333334,-0.17222222222222222],[0.15222222222222223,-0.17],[0.15888888888888889,-0.16777777777777778],[0.1711111111111111,-0.16333333333333333],[0.1811111111111111,-0.16],[0.18666666666666668,-0.15777777777777777],[0.19,-0.15666666666666668],[0.19333333333333333,-0.15555555555555556],[0.19666666666666666,-0.15333333333333332],[0.20555555555555555,-0.15],[0.21777777777777776,-0.14666666666666667],[0.2288888888888889,-0.14333333333333334],[0.23777777777777778,-0.14222222222222222],[0.24444444444444444,-0.14],[0.25,-0.1388888888888889],[0.25555555555555554,-0.13777777777777778],[0.2644444444444444,-0.13555555555555557],[0.27444444444444444,-0.1322222222222222],[0.2833333333333333,-0.13],[0.29,-0.12777777777777777],[0.29333333333333333,-0.12666666666666668],[0.29444444444444445,-0.12666666666666668],[0.2966666666666667,-0.12555555555555556],[0.3,-0.12555555555555556],[0.30444444444444446,-0.12444444444444444],[0.3088888888888889,-0.12333333333333334],[0.31222222222222223,-0.12222222222222222],[0.31444444444444447,-0.12222222222222222],[0.31555555555555553,-0.12222222222222222],[0.31666666666666665,-0.12222222222222222],[0.31666666666666665,-0.12111111111111111],[0.31666666666666665,-0.12111111111111111],[0.31666666666666665,-0.12111111111111111],[0.31222222222222223,-0.12111111111111111]],[[0.0033333333333333335,-0.19444444444444445],[0.0033333333333333335,-0.19444444444444445],[0.0033333333333333335,-0.19444444444444445],[0.0033333333333333335,-0.19444444444444445],[0.0033333333333333335,-0.19444444444444445],[0.0033333333333333335,-0.19444444444444445],[0.0033333333333333335,-0.19444444444444445],[0.0033333333333333335,-0.19444444444444445],[0.0044444444444444444,-0.19444444444444445],[0.006666666666666667,-0.19333333333333333],[0.013333333333333334,-0.19],[0.025555555555555557,-0.18333333333333332],[0.044444444444444446,-0.17555555555555555],[0.06111111111111111,-0.16666666666666666],[0.07222222222222222,-0.1622222222222222],[0.07888888888888888,-0.15888888888888889],[0.08444444444444445,-0.15555555555555556],[0.08888888888888889,-0.15333333333333332],[0.09333333333333334,-0.15],[0.1,-0.14555555555555555],[0.10666666666666667,-0.14],[0.11222222222222222,-0.13666666666666666],[0.11555555555555555,-0.13333333333333333],[0.11666666666666667,-0.13111111111111112],[0.11777777777777777,-0.13],[0.11777777777777777,-0.1288888888888889],[0.11888888888888889,-0.12666666666666668],[0.12111111111111111,-0.12111111111111111],[0.12444444444444444,-0.11333333333333333],[0.1288888888888889,-0.10222222222222223],[0.1322222222222222,-0.09333333333333334],[0.13444444444444445,-0.08777777777777777],[0.13777777777777778,-0.0811111111111111],[0.1388888888888889,-0.07777777777777778],[0.14,-0.07555555555555556],[0.1411111111111111,-0.07555555555555556],[0.1411111111111111,-0.07444444444444444],[0.1411111111111111,-0.07444444444444444],[0.1411111111111111,-0.07333333333333333],[0.1411111111111111,-0.07111111111111111],[0.14222222222222222,-0.06555555555555556],[0.14444444444444443,-0.057777777777777775],[0.14555555555555555,-0.052222222222222225],[0.14666666666666667,-0.04888888888888889],[0.14666666666666667,-0.04666666666666667],[0.14666666666666667,-0.04555555555555556],[0.14666666666666667,-0.04555555555555556],[0.14666666666666667,-0.04555555555555556],[0.14666666666666667,-0.04555555555555556],[0.14666666666666667,-0.044444444444444446],[0.14666666666666667,-0.044444444444444446],[0.14666666666666667,-0.044444444444444446],[0.14666666666666667,-0.043333333333333335],[0.14666666666666667,-0.043333333333333335],[0.14666666666666667,-0.043333333333333335],[0.14666666666666667,-0.043333333333333335],[0.14666666666666667,-0.043333333333333335],[0.14666666666666667,-0.043333333333333335],[0.14666666666666667,-0.043333333333333335],[0.14666666666666667,-0.044444444444444446]],[[-0.011111111111111112,-0.2],[-0.011111111111111112,-0.2],[-0.011111111111111112,-0.2],[-0.011111111111111112,-0.2],[-0.011111111111111112,-0.2],[-0.011111111111111112,-0.2]],[[-0.011111111111111112,-0.2],[-0.011111111111111112,-0.2],[-0.011111111111111112,-0.2],[-0.011111111111111112,-0.2],[-0.011111111111111112,-0.2],[-0.011111111111111112,-0.2],[-0.011111111111111112,-0.2],[-0.011111111111111112,-0.2],[-0.011111111111111112,-0.2],[-0.013333333333333334,-0.2],[-0.016666666666666666,-0.2],[-0.021111111111111112,-0.2],[-0.025555555555555557,-0.2],[-0.03,-0.2],[-0.03222222222222222,-0.2],[-0.035555555555555556,-0.2],[-0.04111111111111111,-0.2],[-0.051111111111111114,-0.20222222222222222],[-0.06555555555555556,-0.20666666666666667],[-0.07777777777777778,-0.21],[-0.09,-0.21333333333333335],[-0.09666666666666666,-0.21444444444444444],[-0.10111111111111111,-0.21555555555555556],[-0.10333333333333333,-0.21666666666666667],[-0.10444444444444445,-0.21666666666666667],[-0.10555555555555556,-0.21777777777777776],[-0.10777777777777778,-0.21777777777777776],[-0.10888888888888888,-0.21777777777777776],[-0.10888888888888888,-0.21777777777777776],[-0.10888888888888888,-0.21777777777777776],[-0.10888888888888888,-0.21777777777777776],[-0.10888888888888888,-0.21777777777777776],[-0.10888888888888888,-0.21777777777777776],[-0.10888888888888888,-0.21777777777777776],[-0.10888888888888888,-0.21777777777777776],[-0.10888888888888888,-0.21777777777777776],[-0.1111111111111111,-0.21777777777777776],[-0.11666666666666667,-0.21777777777777776],[-0.12666666666666668,-0.21888888888888888],[-0.13666666666666666,-0.22],[-0.14555555555555555,-0.22],[-0.1511111111111111,-0.22],[-0.15333333333333332,-0.22],[-0.15444444444444444,-0.22],[-0.15555555555555556,-0.22],[-0.15555555555555556,-0.22],[-0.15555555555555556,-0.22],[-0.15666666666666668,-0.22],[-0.15666666666666668,-0.22],[-0.15666666666666668,-0.22],[-0.15666666666666668,-0.22],[-0.15666666666666668,-0.21888888888888888],[-0.15555555555555556,-0.21777777777777776]]]",4,"[51,60,6,53]",,,,,,,,,,,,,,campsite.jpg,space,7.43,0,5,5,24,1,cliff3.jpg,cave6.jpg,cemetery5.jpg,boardwalk.jpg,,
Image_List_1,,,,,,,,,,,,,,,,46690,2022-03-11_17h01.06.078,analogCatScenes,2020.1.3,MacIntel,60,"[1440,900]","[[[0,-0.19555555555555557],[0,-0.19555555555555557],[0,-0.19555555555555557],[0,-0.19555555555555557],[0,-0.19555555555555557],[0,-0.19555555555555557],[0,-0.19555555555555557],[0,-0.19555555555555557],[0,-0.19555555555555557],[0,-0.19555555555555557],[0,-0.19555555555555557],[0,-0.19555555555555557],[-0.0011111111111111111,-0.19555555555555557],[-0.0011111111111111111,-0.19555555555555557],[-0.013333333333333334,-0.19555555555555557],[-0.03888888888888889,-0.19555555555555557],[-0.03888888888888889,-0.19555555555555557],[-0.07,-0.19555555555555557],[-0.07,-0.19555555555555557],[-0.07,-0.19555555555555557],[-0.1,-0.19333333333333333],[-0.10666666666666667,-0.1922222222222222],[-0.11444444444444445,-0.19111111111111112],[-0.12,-0.19],[-0.1322222222222222,-0.18666666666666668],[-0.13777777777777778,-0.18555555555555556],[-0.14222222222222222,-0.18333333333333332],[-0.14666666666666667,-0.18222222222222223],[-0.15,-0.1811111111111111],[-0.15333333333333332,-0.18],[-0.15777777777777777,-0.17777777777777778],[-0.1622222222222222,-0.17555555555555555],[-0.16666666666666666,-0.17333333333333334],[-0.1688888888888889,-0.17222222222222222],[-0.1688888888888889,-0.17222222222222222],[-0.1711111111111111,-0.1711111111111111],[-0.17333333333333334,-0.17],[-0.17777777777777778,-0.16444444444444445],[-0.18,-0.16],[-0.1811111111111111,-0.15555555555555556],[-0.18333333333333332,-0.15222222222222223],[-0.18333333333333332,-0.15],[-0.18444444444444444,-0.14777777777777779],[-0.18555555555555556,-0.14333333333333334],[-0.18666666666666668,-0.13666666666666666],[-0.18777777777777777,-0.13111111111111112],[-0.18888888888888888,-0.12555555555555556],[-0.19,-0.12111111111111111],[-0.19111111111111112,-0.11888888888888889],[-0.1922222222222222,-0.11777777777777777],[-0.19333333333333333,-0.11555555555555555],[-0.19333333333333333,-0.11444444444444445],[-0.19333333333333333,-0.11333333333333333],[-0.19444444444444445,-0.11222222222222222],[-0.19444444444444445,-0.1111111111111111],[-0.19444444444444445,-0.1111111111111111],[-0.19555555555555557,-0.1111111111111111],[-0.19555555555555557,-0.1111111111111111],[-0.19555555555555557,-0.11],[-0.19666666666666666,-0.11],[-0.19666666666666666,-0.10888888888888888],[-0.19777777777777777,-0.10888888888888888],[-0.1988888888888889,-0.10777777777777778],[-0.1988888888888889,-0.10666666666666667],[-0.2,-0.10666666666666667],[-0.2,-0.10555555555555556],[-0.2011111111111111,-0.10555555555555556],[-0.2011111111111111,-0.10444444444444445],[-0.20222222222222222,-0.10444444444444445],[-0.20222222222222222,-0.10444444444444445],[-0.20333333333333334,-0.10444444444444445],[-0.20444444444444446,-0.10444444444444445],[-0.20444444444444446,-0.10444444444444445],[-0.20444444444444446,-0.10444444444444445]]]",1,[74],,,,,,,,,,,,,,backstage2.jpg,space,4.013,0,6,6,10,1,barbershop3.jpg,ballroom4.jpg,basketballcourt3.jpg,ATM4.jpg,,
Image_List_1,,,,,,,,,,,,,,,,46690,2022-03-11_17h01.06.078,analogCatScenes,2020.1.3,MacIntel,60,"[1440,900]","[[[-0.0011111111111111111,-0.19555555555555557],[-0.0011111111111111111,-0.19555555555555557],[-0.0011111111111111111,-0.19555555555555557],[-0.0011111111111111111,-0.19555555555555557],[-0.0011111111111111111,-0.19555555555555557],[-0.0011111111111111111,-0.19555555555555557],[-0.0011111111111111111,-0.19555555555555557],[-0.0011111111111111111,-0.19555555555555557],[-0.0011111111111111111,-0.19555555555555557],[-0.0011111111111111111,-0.19555555555555557],[0,-0.19555555555555557],[0.006666666666666667,-0.19555555555555557],[0.028888888888888888,-0.19333333333333333],[0.06444444444444444,-0.19],[0.1,-0.18666666666666668],[0.13444444444444445,-0.18555555555555556],[0.1688888888888889,-0.18444444444444444],[0.2011111111111111,-0.18333333333333332],[0.23222222222222222,-0.18],[0.26222222222222225,-0.17444444444444446],[0.2811111111111111,-0.17],[0.29888888888888887,-0.16333333333333333],[0.31666666666666665,-0.15444444444444444],[0.3288888888888889,-0.14555555555555555],[0.3377777777777778,-0.1388888888888889],[0.3411111111111111,-0.13555555555555557],[0.3433333333333333,-0.1322222222222222],[0.34444444444444444,-0.13111111111111112],[0.34444444444444444,-0.13],[0.34444444444444444,-0.1288888888888889],[0.34444444444444444,-0.12777777777777777],[0.34444444444444444,-0.12555555555555556],[0.34444444444444444,-0.12333333333333334],[0.34555555555555556,-0.12111111111111111],[0.34555555555555556,-0.11555555555555555],[0.34555555555555556,-0.11],[0.34555555555555556,-0.10777777777777778],[0.34444444444444444,-0.10555555555555556],[0.3433333333333333,-0.10444444444444445],[0.3411111111111111,-0.10333333333333333],[0.34,-0.10222222222222223],[0.3377777777777778,-0.10111111111111111],[0.33666666666666667,-0.10111111111111111],[0.33555555555555555,-0.1],[0.33444444444444443,-0.1],[0.33444444444444443,-0.09888888888888889],[0.3333333333333333,-0.09888888888888889],[0.3333333333333333,-0.09888888888888889],[0.3333333333333333,-0.09888888888888889],[0.3333333333333333,-0.09888888888888889],[0.3333333333333333,-0.09888888888888889],[0.3333333333333333,-0.09888888888888889],[0.3333333333333333,-0.09888888888888889],[0.3333333333333333,-0.09888888888888889],[0.3322222222222222,-0.09888888888888889]],[[0.0044444444444444444,-0.19666666666666666],[0.0044444444444444444,-0.19666666666666666],[0.0044444444444444444,-0.19666666666666666],[0.0044444444444444444,-0.19666666666666666],[0.0044444444444444444,-0.19666666666666666],[0.0044444444444444444,-0.19666666666666666],[0.0044444444444444444,-0.19666666666666666],[0.0044444444444444444,-0.19666666666666666],[0.0044444444444444444,-0.19666666666666666],[0.0044444444444444444,-0.19666666666666666],[0.0044444444444444444,-0.19666666666666666],[0.0033333333333333335,-0.19666666666666666],[0,-0.19666666666666666],[-0.014444444444444444,-0.19444444444444445],[-0.03777777777777778,-0.18777777777777777],[-0.06777777777777778,-0.17777777777777778],[-0.09888888888888889,-0.16666666666666666],[-0.12666666666666668,-0.15666666666666668],[-0.15222222222222223,-0.14333333333333334],[-0.16777777777777778,-0.1322222222222222],[-0.17666666666666667,-0.12333333333333334],[-0.18444444444444444,-0.11666666666666667],[-0.18777777777777777,-0.11222222222222222],[-0.18888888888888888,-0.1111111111111111],[-0.19,-0.10888888888888888],[-0.19111111111111112,-0.10555555555555556],[-0.19333333333333333,-0.1],[-0.19555555555555557,-0.09555555555555556],[-0.19777777777777777,-0.09111111111111111],[-0.2,-0.08777777777777777],[-0.20222222222222222,-0.08444444444444445],[-0.20555555555555555,-0.08222222222222222],[-0.21,-0.07888888888888888],[-0.21444444444444444,-0.07444444444444444],[-0.22,-0.07111111111111111],[-0.22444444444444445,-0.06888888888888889],[-0.23,-0.06666666666666667],[-0.23444444444444446,-0.06666666666666667],[-0.2388888888888889,-0.06666666666666667],[-0.2411111111111111,-0.06666666666666667],[-0.24444444444444444,-0.06666666666666667],[-0.24555555555555555,-0.06666666666666667],[-0.24666666666666667,-0.06666666666666667],[-0.2477777777777778,-0.06666666666666667],[-0.2477777777777778,-0.06555555555555556],[-0.24888888888888888,-0.06444444444444444],[-0.25,-0.06333333333333334],[-0.25,-0.06222222222222222],[-0.2511111111111111,-0.06111111111111111],[-0.2511111111111111,-0.06],[-0.25222222222222224,-0.06],[-0.25222222222222224,-0.058888888888888886],[-0.25222222222222224,-0.058888888888888886],[-0.25222222222222224,-0.058888888888888886],[-0.2511111111111111,-0.058888888888888886]]]",2,"[55,55]",,,,,,,,,,,,,,hayfield5.jpg,space,4.35,0,7,7,57,1,jail1.jpg,hallway4.jpg,hut5.jpg,gazebo.jpg,,
Image_List_1,,,,,,,,,,,,,,,,46690,2022-03-11_17h01.06.078,analogCatScenes,2020.1.3,MacIntel,60,"[1440,900]","[[[-0.006666666666666667,-0.20666666666666667],[-0.006666666666666667,-0.20666666666666667],[-0.006666666666666667,-0.20666666666666667],[-0.006666666666666667,-0.20666666666666667],[-0.006666666666666667,-0.20666666666666667],[-0.006666666666666667,-0.20666666666666667],[-0.006666666666666667,-0.20666666666666667],[-0.006666666666666667,-0.20666666666666667],[-0.006666666666666667,-0.20666666666666667],[-0.006666666666666667,-0.20666666666666667],[-0.006666666666666667,-0.20666666666666667],[-0.006666666666666667,-0.20666666666666667],[-0.006666666666666667,-0.20555555555555555],[-0.0077777777777777776,-0.20222222222222222],[-0.012222222222222223,-0.19444444444444445],[-0.021111111111111112,-0.18222222222222223],[-0.043333333333333335,-0.16111111111111112],[-0.07888888888888888,-0.13111111111111112],[-0.11888888888888889,-0.10222222222222223],[-0.15888888888888889,-0.07444444444444444],[-0.19777777777777777,-0.044444444444444446],[-0.22111111111111112,-0.025555555555555557],[-0.23666666666666666,-0.015555555555555555],[-0.25222222222222224,-0.006666666666666667],[-0.26222222222222225,-0.0033333333333333335],[-0.27,-0.0011111111111111111],[-0.2777777777777778,0.0022222222222222222],[-0.28555555555555556,0.006666666666666667],[-0.2922222222222222,0.008888888888888889],[-0.29777777777777775,0.011111111111111112],[-0.30333333333333334,0.012222222222222223],[-0.3055555555555556,0.013333333333333334],[-0.30777777777777776,0.013333333333333334],[-0.3088888888888889,0.013333333333333334],[-0.3088888888888889,0.013333333333333334],[-0.31,0.013333333333333334],[-0.3111111111111111,0.013333333333333334],[-0.3111111111111111,0.013333333333333334],[-0.31222222222222223,0.013333333333333334],[-0.31222222222222223,0.013333333333333334],[-0.31222222222222223,0.013333333333333334],[-0.31222222222222223,0.013333333333333334],[-0.31222222222222223,0.013333333333333334],[-0.31222222222222223,0.013333333333333334],[-0.3111111111111111,0.013333333333333334],[-0.3111111111111111,0.013333333333333334],[-0.3111111111111111,0.013333333333333334],[-0.31,0.013333333333333334],[-0.31,0.013333333333333334],[-0.31,0.014444444444444444],[-0.3088888888888889,0.014444444444444444]]]",1,[51],,,,,,,,,,,,,,airportTerminal4.jpg,space,2.864,0,8,8,1,1,apartmentBuilding1.jpg,applestore1.jpg,airportTerminal3.jpg,airportTerminal2.jpg,,
Image_List_1,,,,,,,,,,,,,,,,46690,2022-03-11_17h01.06.078,analogCatScenes,2020.1.3,MacIntel,60,"[1440,900]","[[[-0.0033333333333333335,-0.19444444444444445],[-0.0033333333333333335,-0.19444444444444445],[-0.0033333333333333335,-0.19444444444444445],[-0.0033333333333333335,-0.19444444444444445],[-0.0033333333333333335,-0.19444444444444445],[-0.0033333333333333335,-0.19444444444444445],[-0.0033333333333333335,-0.19444444444444445],[-0.0033333333333333335,-0.19444444444444445],[-0.0033333333333333335,-0.19444444444444445],[-0.0033333333333333335,-0.19444444444444445],[-0.0033333333333333335,-0.19444444444444445],[0.0022222222222222222,-0.19111111111111112],[0.017777777777777778,-0.17888888888888888],[0.04111111111111111,-0.16111111111111112],[0.06666666666666667,-0.14222222222222222],[0.08555555555555555,-0.12777777777777777],[0.09666666666666666,-0.12111111111111111],[0.10444444444444445,-0.11555555555555555],[0.10777777777777778,-0.11222222222222222],[0.11222222222222222,-0.11],[0.11777777777777777,-0.10555555555555556],[0.12444444444444444,-0.10111111111111111],[0.13,-0.09666666666666666],[0.13444444444444445,-0.09444444444444444],[0.13666666666666666,-0.09333333333333334],[0.14,-0.09222222222222222],[0.14666666666666667,-0.09111111111111111],[0.15666666666666668,-0.08888888888888889],[0.16777777777777778,-0.08555555555555555],[0.17666666666666667,-0.08444444444444445],[0.1811111111111111,-0.08333333333333333],[0.18444444444444444,-0.08333333333333333],[0.18555555555555556,-0.08333333333333333],[0.18555555555555556,-0.08333333333333333],[0.18555555555555556,-0.08333333333333333],[0.18555555555555556,-0.08333333333333333],[0.18666666666666668,-0.08333333333333333],[0.18777777777777777,-0.08444444444444445],[0.18777777777777777,-0.08444444444444445],[0.19,-0.08555555555555555],[0.19111111111111112,-0.08666666666666667],[0.19111111111111112,-0.08666666666666667],[0.1922222222222222,-0.08666666666666667],[0.1922222222222222,-0.08666666666666667],[0.1922222222222222,-0.08666666666666667],[0.1922222222222222,-0.08666666666666667],[0.1922222222222222,-0.08666666666666667],[0.19111111111111112,-0.08666666666666667]]]",1,[48],,,,,,,,,,,,,,fittingroom2.jpg,space,1.701,0,9,9,45,1,frontFoyer7.jpg,factory1.jpg,forestpath4.jpg,dock4.jpg,,
Image_List_1,,,,,,,,,,,,,,,,46690,2022-03-11_17h01.06.078,analogCatScenes,2020.1.3,MacIntel,60,"[1440,900]","[[[0.008888888888888889,-0.1988888888888889],[0.008888888888888889,-0.1988888888888889],[0.008888888888888889,-0.1988888888888889],[0.008888888888888889,-0.1988888888888889],[0.008888888888888889,-0.1988888888888889],[0.008888888888888889,-0.1988888888888889],[0.008888888888888889,-0.1988888888888889],[0.008888888888888889,-0.1988888888888889],[0.008888888888888889,-0.1988888888888889],[0.008888888888888889,-0.19555555555555557],[0.008888888888888889,-0.17222222222222222],[0.008888888888888889,-0.11777777777777777],[0.008888888888888889,-0.05555555555555555],[0.005555555555555556,-0.0044444444444444444],[-0.0044444444444444444,0.043333333333333335],[-0.016666666666666666,0.08555555555555555],[-0.025555555555555557,0.11222222222222222],[-0.03222222222222222,0.12777777777777777],[-0.03666666666666667,0.13666666666666666],[-0.042222222222222223,0.1411111111111111],[-0.04555555555555556,0.14333333333333334],[-0.04888888888888889,0.14333333333333334],[-0.052222222222222225,0.14444444444444443],[-0.05333333333333334,0.14444444444444443],[-0.05444444444444444,0.14444444444444443],[-0.05555555555555555,0.14444444444444443],[-0.057777777777777775,0.14555555555555555],[-0.06,0.14666666666666667],[-0.06222222222222222,0.14888888888888888],[-0.06444444444444444,0.15],[-0.06555555555555556,0.15222222222222223],[-0.06666666666666667,0.15222222222222223],[-0.06666666666666667,0.15333333333333332],[-0.06666666666666667,0.15333333333333332],[-0.06666666666666667,0.15333333333333332],[-0.06666666666666667,0.15333333333333332],[-0.06666666666666667,0.15333333333333332],[-0.06666666666666667,0.15333333333333332],[-0.06666666666666667,0.15333333333333332],[-0.06666666666666667,0.15333333333333332],[-0.06666666666666667,0.15333333333333332],[-0.06666666666666667,0.15333333333333332],[-0.06666666666666667,0.15444444444444444]]]",1,[43],,,,,,,,,,,,,,attic3.jpg,space,2.518,0,10,10,8,1,banquetHall6.jpg,balconyIN.jpg,bar.jpg,applestore4.jpg,,
Image_List_1,,,,,,,,,,,,,,,,46690,2022-03-11_17h01.06.078,analogCatScenes,2020.1.3,MacIntel,60,"[1440,900]","[[[-0.008888888888888889,-0.20444444444444446],[-0.008888888888888889,-0.20444444444444446],[-0.008888888888888889,-0.20444444444444446],[-0.008888888888888889,-0.20444444444444446],[-0.008888888888888889,-0.20444444444444446],[-0.008888888888888889,-0.20444444444444446],[-0.008888888888888889,-0.20444444444444446],[-0.008888888888888889,-0.20444444444444446],[-0.008888888888888889,-0.20444444444444446],[-0.005555555555555556,-0.20444444444444446],[0.0044444444444444444,-0.2011111111111111],[0.0044444444444444444,-0.2011111111111111],[0.044444444444444446,-0.1811111111111111],[0.07,-0.16777777777777778],[0.09444444444444444,-0.15555555555555556],[0.11777777777777777,-0.14444444444444443],[0.1411111111111111,-0.13111111111111112],[0.1411111111111111,-0.13111111111111112],[0.16666666666666666,-0.11666666666666667],[0.19555555555555557,-0.1],[0.19555555555555557,-0.1],[0.2411111111111111,-0.07555555555555556],[0.2644444444444444,-0.06555555555555556],[0.27,-0.06333333333333334],[0.2722222222222222,-0.06222222222222222],[0.2722222222222222,-0.06222222222222222],[0.2733333333333333,-0.06222222222222222],[0.2733333333333333,-0.06111111111111111],[0.27555555555555555,-0.06],[0.2822222222222222,-0.05333333333333334],[0.2922222222222222,-0.044444444444444446],[0.3055555555555556,-0.03333333333333333],[0.3188888888888889,-0.023333333333333334],[0.33,-0.016666666666666666],[0.33666666666666667,-0.013333333333333334],[0.3411111111111111,-0.012222222222222223],[0.3433333333333333,-0.011111111111111112],[0.34444444444444444,-0.011111111111111112],[0.34444444444444444,-0.011111111111111112],[0.34444444444444444,-0.011111111111111112],[0.34444444444444444,-0.011111111111111112],[0.3433333333333333,-0.011111111111111112],[0.3433333333333333,-0.011111111111111112],[0.3433333333333333,-0.011111111111111112],[0.3422222222222222,-0.011111111111111112],[0.3422222222222222,-0.011111111111111112],[0.3422222222222222,-0.011111111111111112],[0.34,-0.011111111111111112],[0.33444444444444443,-0.012222222222222223]],[[-0.0077777777777777776,-0.19666666666666666],[-0.0077777777777777776,-0.19666666666666666],[-0.0077777777777777776,-0.19666666666666666],[-0.0077777777777777776,-0.19666666666666666],[-0.0077777777777777776,-0.19666666666666666],[-0.0077777777777777776,-0.19666666666666666],[-0.0077777777777777776,-0.19666666666666666],[-0.0077777777777777776,-0.19666666666666666],[-0.008888888888888889,-0.19666666666666666],[-0.01,-0.19555555555555557],[-0.02,-0.19],[-0.043333333333333335,-0.17444444444444446],[-0.07111111111111111,-0.15777777777777777],[-0.09888888888888889,-0.14222222222222222],[-0.12666666666666668,-0.12666666666666668],[-0.15,-0.11444444444444445],[-0.17,-0.10333333333333333],[-0.18666666666666668,-0.09444444444444444],[-0.20444444444444446,-0.08777777777777777],[-0.22444444444444445,-0.08333333333333333],[-0.2411111111111111,-0.08222222222222222],[-0.2544444444444444,-0.08],[-0.2633333333333333,-0.07777777777777778],[-0.2688888888888889,-0.07555555555555556],[-0.27444444444444444,-0.07333333333333333],[-0.2777777777777778,-0.07111111111111111],[-0.2811111111111111,-0.07],[-0.28555555555555556,-0.06777777777777778],[-0.28888888888888886,-0.06444444444444444],[-0.2922222222222222,-0.06222222222222222],[-0.29555555555555557,-0.06],[-0.29888888888888887,-0.057777777777777775],[-0.3022222222222222,-0.05444444444444444],[-0.3055555555555556,-0.05],[-0.3088888888888889,-0.042222222222222223],[-0.3111111111111111,-0.03111111111111111],[-0.31333333333333335,-0.022222222222222223],[-0.31444444444444447,-0.014444444444444444],[-0.31555555555555553,-0.008888888888888889],[-0.31666666666666665,-0.005555555555555556],[-0.3188888888888889,-0.0033333333333333335],[-0.3188888888888889,-0.0022222222222222222],[-0.32,-0.0022222222222222222],[-0.3211111111111111,-0.0022222222222222222],[-0.3211111111111111,-0.0022222222222222222],[-0.3211111111111111,-0.0022222222222222222],[-0.3211111111111111,-0.0011111111111111111],[-0.3211111111111111,-0.0011111111111111111],[-0.32,0.0011111111111111111],[-0.31,0.017777777777777778]]]",2,"[49,50]",,,,,,,,,,,,,,deck4.jpg,space,3.799,0,11,11,34,1,diningroom5.jpg,courthouse4.jpg,diner11.jpg,campusquad1.jpg,,
Image_List_1,,,,,,,,,,,,,,,,46690,2022-03-11_17h01.06.078,analogCatScenes,2020.1.3,MacIntel,60,"[1440,900]","[[[-0.0044444444444444444,-0.2011111111111111],[-0.0044444444444444444,-0.2011111111111111],[-0.0044444444444444444,-0.2011111111111111],[-0.0044444444444444444,-0.2011111111111111],[-0.0044444444444444444,-0.2011111111111111],[-0.0044444444444444444,-0.2011111111111111],[-0.0044444444444444444,-0.2011111111111111],[-0.0044444444444444444,-0.2011111111111111],[-0.0077777777777777776,-0.2011111111111111],[-0.017777777777777778,-0.2011111111111111],[-0.044444444444444446,-0.1988888888888889],[-0.08555555555555555,-0.1922222222222222],[-0.12444444444444444,-0.18444444444444444],[-0.15888888888888889,-0.17444444444444446],[-0.19,-0.16],[-0.21333333333333335,-0.14444444444444443],[-0.23444444444444446,-0.12555555555555556],[-0.25555555555555554,-0.10111111111111111],[-0.27666666666666667,-0.07222222222222222],[-0.29333333333333333,-0.043333333333333335],[-0.3022222222222222,-0.021111111111111112],[-0.30777777777777776,-0.0033333333333333335],[-0.3111111111111111,0.011111111111111112],[-0.31333333333333335,0.017777777777777778],[-0.31444444444444447,0.022222222222222223],[-0.31555555555555553,0.023333333333333334],[-0.31777777777777777,0.023333333333333334],[-0.32,0.024444444444444446],[-0.3233333333333333,0.025555555555555557],[-0.32666666666666666,0.027777777777777776],[-0.33,0.03],[-0.33,0.03],[-0.3322222222222222,0.03222222222222222],[-0.33555555555555555,0.035555555555555556],[-0.3377777777777778,0.03777777777777778],[-0.34,0.04],[-0.3411111111111111,0.043333333333333335],[-0.3422222222222222,0.043333333333333335],[-0.3422222222222222,0.043333333333333335],[-0.3422222222222222,0.043333333333333335],[-0.3422222222222222,0.043333333333333335],[-0.3422222222222222,0.043333333333333335],[-0.3422222222222222,0.043333333333333335]]]",1,[43],,,,,,,,,,,,,,ATM1.jpg,space,1.829,0,12,12,6,1,banquetHall2.jpg,auto_showroom5.jpg,baggageClaim1.jpg,apartmentBuilding3.jpg,,
Image_List_1,,,,,,,,,,,,,,,,46690,2022-03-11_17h01.06.078,analogCatScenes,2020.1.3,MacIntel,60,"[1440,900]","[[[-0.006666666666666667,-0.19444444444444445],[-0.006666666666666667,-0.19444444444444445],[-0.006666666666666667,-0.19444444444444445],[-0.006666666666666667,-0.19444444444444445],[-0.006666666666666667,-0.19444444444444445],[-0.006666666666666667,-0.19444444444444445],[-0.006666666666666667,-0.19444444444444445],[-0.006666666666666667,-0.19444444444444445],[-0.006666666666666667,-0.19444444444444445],[-0.006666666666666667,-0.19444444444444445],[-0.005555555555555556,-0.19444444444444445],[-0.0033333333333333335,-0.19444444444444445],[0.0044444444444444444,-0.19333333333333333],[0.01888888888888889,-0.18888888888888888],[0.035555555555555556,-0.18333333333333332],[0.05444444444444444,-0.17666666666666667],[0.07555555555555556,-0.1688888888888889],[0.09444444444444444,-0.1622222222222222],[0.11,-0.15777777777777777],[0.12444444444444444,-0.15333333333333332],[0.13444444444444445,-0.15],[0.1411111111111111,-0.14777777777777779],[0.15222222222222223,-0.14222222222222222],[0.16777777777777778,-0.13333333333333333],[0.18555555555555556,-0.12444444444444444],[0.20222222222222222,-0.11777777777777777],[0.21555555555555556,-0.11333333333333333],[0.22333333333333333,-0.11],[0.22777777777777777,-0.10777777777777778],[0.23222222222222222,-0.10666666666666667],[0.23666666666666666,-0.10555555555555556],[0.24444444444444444,-0.10333333333333333],[0.2511111111111111,-0.10111111111111111],[0.25555555555555554,-0.1],[0.2588888888888889,-0.09888888888888889],[0.26,-0.09777777777777778],[0.2644444444444444,-0.09555555555555556],[0.27666666666666667,-0.08777777777777777],[0.2966666666666667,-0.07555555555555556],[0.31444444444444447,-0.06555555555555556],[0.32555555555555554,-0.06],[0.3333333333333333,-0.056666666666666664],[0.3377777777777778,-0.05444444444444444],[0.3388888888888889,-0.05444444444444444],[0.3388888888888889,-0.05444444444444444],[0.3388888888888889,-0.05444444444444444],[0.3388888888888889,-0.05444444444444444],[0.3388888888888889,-0.05444444444444444],[0.3388888888888889,-0.05444444444444444],[0.3388888888888889,-0.05444444444444444],[0.3388888888888889,-0.05444444444444444],[0.3388888888888889,-0.05444444444444444]],[[0,-0.19333333333333333],[0,-0.19333333333333333],[0,-0.19333333333333333],[0,-0.19333333333333333],[0,-0.19333333333333333],[0,-0.19333333333333333],[0,-0.1922222222222222],[0,-0.18777777777777777],[0,-0.1811111111111111],[0,-0.17],[0,-0.1622222222222222],[0,-0.15888888888888889],[0,-0.15666666666666668],[0,-0.15555555555555556],[0,-0.15444444444444444],[-0.0011111111111111111,-0.1511111111111111],[-0.005555555555555556,-0.14444444444444443],[-0.013333333333333334,-0.13],[-0.025555555555555557,-0.10777777777777778],[-0.03777777777777778,-0.08555555555555555],[-0.04777777777777778,-0.06444444444444444],[-0.057777777777777775,-0.04666666666666667],[-0.06555555555555556,-0.03111111111111111],[-0.07111111111111111,-0.021111111111111112],[-0.07555555555555556,-0.013333333333333334],[-0.0811111111111111,-0.006666666666666667],[-0.08555555555555555,-0.0022222222222222222],[-0.09111111111111111,0.0022222222222222222],[-0.09666666666666666,0.006666666666666667],[-0.10111111111111111,0.011111111111111112],[-0.10555555555555556,0.017777777777777778],[-0.1111111111111111,0.02666666666666667],[-0.11555555555555555,0.034444444444444444],[-0.12111111111111111,0.04],[-0.12555555555555556,0.044444444444444446],[-0.1322222222222222,0.04888888888888889],[-0.1388888888888889,0.051111111111111114],[-0.14555555555555555,0.05333333333333334],[-0.15222222222222223,0.05555555555555555],[-0.15666666666666668,0.056666666666666664],[-0.16111111111111112,0.057777777777777775],[-0.16444444444444445,0.058888888888888886],[-0.16555555555555557,0.058888888888888886],[-0.16777777777777778,0.058888888888888886],[-0.1688888888888889,0.058888888888888886],[-0.1711111111111111,0.058888888888888886],[-0.17444444444444446,0.058888888888888886],[-0.17666666666666667,0.058888888888888886],[-0.18,0.058888888888888886],[-0.18333333333333332,0.058888888888888886],[-0.18666666666666668,0.058888888888888886],[-0.19,0.058888888888888886],[-0.19333333333333333,0.058888888888888886],[-0.19666666666666666,0.058888888888888886],[-0.1988888888888889,0.058888888888888886],[-0.2011111111111111,0.058888888888888886],[-0.20333333333333334,0.058888888888888886],[-0.20444444444444446,0.058888888888888886],[-0.20666666666666667,0.058888888888888886],[-0.2088888888888889,0.058888888888888886],[-0.21,0.058888888888888886],[-0.21222222222222223,0.058888888888888886],[-0.21333333333333335,0.06],[-0.21444444444444444,0.06],[-0.21444444444444444,0.06111111111111111],[-0.21444444444444444,0.06222222222222222],[-0.21555555555555556,0.06333333333333334],[-0.21555555555555556,0.06444444444444444]]]",2,"[52,68]",,,,,,,,,,,,,,bleachers5.jpg,space,4.701,0,13,13,18,1,casino1.jpg,brewery4.jpg,castle2.jpg,basement6.jpg,,
Image_List_1,,,,,,,,,,,,,,,,46690,2022-03-11_17h01.06.078,analogCatScenes,2020.1.3,MacIntel,60,"[1440,900]","[[[-0.0033333333333333335,-0.19],[-0.0033333333333333335,-0.19],[-0.0033333333333333335,-0.19],[-0.0033333333333333335,-0.19],[-0.0033333333333333335,-0.19],[-0.0033333333333333335,-0.19],[-0.0033333333333333335,-0.19],[-0.0033333333333333335,-0.19],[-0.0033333333333333335,-0.19],[-0.0022222222222222222,-0.19],[0,-0.19],[0.008888888888888889,-0.18888888888888888],[0.025555555555555557,-0.18444444444444444],[0.04777777777777778,-0.17666666666666667],[0.06666666666666667,-0.1711111111111111],[0.08333333333333333,-0.16666666666666666],[0.09666666666666666,-0.16333333333333333],[0.11666666666666667,-0.15777777777777777],[0.14,-0.15],[0.1622222222222222,-0.14222222222222222],[0.18333333333333332,-0.13444444444444445],[0.19777777777777777,-0.13111111111111112],[0.2088888888888889,-0.12777777777777777],[0.21888888888888888,-0.12555555555555556],[0.22444444444444445,-0.12444444444444444],[0.2288888888888889,-0.12333333333333334],[0.23555555555555555,-0.12222222222222222],[0.24444444444444444,-0.12],[0.2577777777777778,-0.11888888888888889],[0.2677777777777778,-0.11666666666666667],[0.27444444444444444,-0.11555555555555555],[0.2788888888888889,-0.11555555555555555],[0.2811111111111111,-0.11555555555555555],[0.2822222222222222,-0.11555555555555555],[0.2822222222222222,-0.11555555555555555],[0.2822222222222222,-0.11555555555555555],[0.2822222222222222,-0.11333333333333333],[0.27555555555555555,-0.11]],[[0.0011111111111111111,-0.1988888888888889],[0.0011111111111111111,-0.1988888888888889],[0.0011111111111111111,-0.1988888888888889],[0.0011111111111111111,-0.1988888888888889],[0.0011111111111111111,-0.1988888888888889],[0.0011111111111111111,-0.1988888888888889],[0.0011111111111111111,-0.1988888888888889],[0.0011111111111111111,-0.1988888888888889],[-0.0022222222222222222,-0.19555555555555557],[-0.021111111111111112,-0.17666666666666667],[-0.07444444444444444,-0.13],[-0.14222222222222222,-0.07777777777777778],[-0.19333333333333333,-0.04111111111111111],[-0.22777777777777777,-0.01888888888888889],[-0.25333333333333335,-0.0022222222222222222],[-0.2722222222222222,0.008888888888888889],[-0.2822222222222222,0.016666666666666666],[-0.28888888888888886,0.022222222222222223],[-0.2922222222222222,0.02666666666666667],[-0.29444444444444445,0.03111111111111111],[-0.29444444444444445,0.034444444444444444],[-0.2922222222222222,0.03888888888888889],[-0.28444444444444444,0.04888888888888889],[-0.27111111111111114,0.06555555555555556],[-0.26,0.0811111111111111],[-0.2511111111111111,0.09444444444444444],[-0.2411111111111111,0.11555555555555555],[-0.23444444444444446,0.1322222222222222],[-0.2311111111111111,0.14],[-0.22777777777777777,0.14666666666666667],[-0.22555555555555556,0.15222222222222223],[-0.22111111111111112,0.15666666666666668],[-0.21444444444444444,0.1622222222222222],[-0.19555555555555557,0.17888888888888888],[-0.17222222222222222,0.19777777777777777],[-0.15222222222222223,0.2111111111111111],[-0.13777777777777778,0.21888888888888888],[-0.12666666666666668,0.22333333333333333],[-0.12111111111111111,0.22666666666666666],[-0.11888888888888889,0.2288888888888889],[-0.11777777777777777,0.23],[-0.11777777777777777,0.2311111111111111],[-0.11666666666666667,0.2311111111111111],[-0.11555555555555555,0.2311111111111111],[-0.11,0.2311111111111111],[-0.10333333333333333,0.2311111111111111],[-0.09333333333333334,0.2311111111111111],[-0.0811111111111111,0.2311111111111111],[-0.06666666666666667,0.2311111111111111],[-0.05,0.2311111111111111],[-0.034444444444444444,0.2311111111111111],[-0.017777777777777778,0.2311111111111111],[-0.0011111111111111111,0.2311111111111111],[0.015555555555555555,0.23222222222222222],[0.03111111111111111,0.23333333333333334],[0.043333333333333335,0.23444444444444446],[0.05333333333333334,0.23444444444444446],[0.06111111111111111,0.23555555555555555],[0.06666666666666667,0.23555555555555555],[0.07111111111111111,0.23555555555555555],[0.07555555555555556,0.23555555555555555],[0.08,0.23555555555555555],[0.08444444444444445,0.23555555555555555],[0.08777777777777777,0.23555555555555555],[0.09,0.23555555555555555],[0.09222222222222222,0.23555555555555555],[0.09222222222222222,0.23555555555555555],[0.09222222222222222,0.23555555555555555],[0.09222222222222222,0.23555555555555555],[0.09222222222222222,0.23555555555555555],[0.09222222222222222,0.23555555555555555],[0.09222222222222222,0.23555555555555555],[0.09222222222222222,0.23555555555555555],[0.09222222222222222,0.23555555555555555],[0.09222222222222222,0.23555555555555555],[0.09222222222222222,0.23555555555555555],[0.09222222222222222,0.23555555555555555],[0.09222222222222222,0.23555555555555555],[0.09111111111111111,0.23555555555555555],[0.09111111111111111,0.23666666666666666],[0.09111111111111111,0.23666666666666666],[0.09111111111111111,0.23666666666666666],[0.09,0.23666666666666666],[0.09,0.23666666666666666],[0.09,0.23666666666666666],[0.09,0.23666666666666666],[0.09,0.23666666666666666],[0.09,0.23666666666666666],[0.09,0.23666666666666666],[0.09,0.23666666666666666],[0.09,0.23666666666666666],[0.09,0.23666666666666666],[0.08888888888888889,0.23666666666666666],[0.08888888888888889,0.23666666666666666]]]",2,"[38,94]",,,,,,,,,,,,,,HorseRaceTrack.jpg,space,5.577,0,14,14,61,1,metroInside4.jpg,homegarden6.jpg,kindergarten_classroom7.jpg,hayfield6.jpg,,
Image_List_1,,,,,,,,,,,,,,,,46690,2022-03-11_17h01.06.078,analogCatScenes,2020.1.3,MacIntel,60,"[1440,900]","[[[0.005555555555555556,-0.2],[0.005555555555555556,-0.2],[0.005555555555555556,-0.2],[0.005555555555555556,-0.2],[0.005555555555555556,-0.2],[0.005555555555555556,-0.2],[0.005555555555555556,-0.2],[0.005555555555555556,-0.2],[0.005555555555555556,-0.2],[0.005555555555555556,-0.2],[0.006666666666666667,-0.1988888888888889],[0.008888888888888889,-0.19666666666666666],[0.017777777777777778,-0.19],[0.035555555555555556,-0.17777777777777778],[0.05444444444444444,-0.16666666666666666],[0.07111111111111111,-0.15777777777777777],[0.08555555555555555,-0.1511111111111111],[0.1,-0.14666666666666667],[0.12,-0.14333333333333334],[0.14444444444444443,-0.14],[0.17222222222222222,-0.13777777777777778],[0.19333333333333333,-0.13666666666666666],[0.20777777777777778,-0.13666666666666666],[0.21777777777777776,-0.13666666666666666],[0.22444444444444445,-0.1388888888888889],[0.2288888888888889,-0.1411111111111111],[0.23444444444444446,-0.14333333333333334],[0.24,-0.14555555555555555],[0.24555555555555555,-0.14666666666666667],[0.24555555555555555,-0.14666666666666667],[0.25222222222222224,-0.15],[0.25333333333333335,-0.1511111111111111],[0.2544444444444444,-0.1511111111111111],[0.25555555555555554,-0.15222222222222223],[0.25666666666666665,-0.15222222222222223],[0.2588888888888889,-0.15333333333333332],[0.2611111111111111,-0.15444444444444444],[0.2633333333333333,-0.15444444444444444],[0.2644444444444444,-0.15444444444444444],[0.2644444444444444,-0.15444444444444444],[0.2644444444444444,-0.15444444444444444],[0.26555555555555554,-0.15555555555555556],[0.26555555555555554,-0.15555555555555556],[0.26555555555555554,-0.15555555555555556],[0.26555555555555554,-0.15555555555555556],[0.26555555555555554,-0.15555555555555556],[0.26555555555555554,-0.15555555555555556],[0.26555555555555554,-0.15555555555555556],[0.26555555555555554,-0.15555555555555556],[0.26555555555555554,-0.15555555555555556],[0.26555555555555554,-0.15555555555555556],[0.26555555555555554,-0.15555555555555556],[0.2611111111111111,-0.15222222222222223],[0.2611111111111111,-0.15222222222222223]]]",1,[54],,,,,,,,,,,,,,apartmentBuilding2.jpg,space,2.931,0,15,15,3,1,attic1.jpg,aquarium1.jpg,appleorchard2.jpg,alley3.jpg,,
Image_List_1,,,,,,,,,,,,,,,,46690,2022-03-11_17h01.06.078,analogCatScenes,2020.1.3,MacIntel,60,"[1440,900]","[[[0.005555555555555556,-0.20555555555555555],[0.005555555555555556,-0.20444444444444446],[0.005555555555555556,-0.20444444444444446],[0.005555555555555556,-0.20444444444444446],[0.005555555555555556,-0.20444444444444446],[0.005555555555555556,-0.20444444444444446],[0.005555555555555556,-0.20444444444444446],[0.005555555555555556,-0.20444444444444446],[0.005555555555555556,-0.20444444444444446],[0.005555555555555556,-0.20444444444444446],[0.005555555555555556,-0.18222222222222223],[0.005555555555555556,-0.18222222222222223],[0.005555555555555556,-0.12111111111111111],[0.005555555555555556,-0.12111111111111111],[0.0077777777777777776,-0.09222222222222222],[0.01,-0.08444444444444445],[0.011111111111111112,-0.07777777777777778],[0.013333333333333334,-0.07444444444444444],[0.013333333333333334,-0.07444444444444444],[0.014444444444444444,-0.07111111111111111],[0.015555555555555555,-0.07],[0.016666666666666666,-0.06888888888888889],[0.01888888888888889,-0.06666666666666667],[0.02666666666666667,-0.057777777777777775],[0.04111111111111111,-0.042222222222222223],[0.05333333333333334,-0.03],[0.06,-0.023333333333333334],[0.06444444444444444,-0.01888888888888889],[0.06666666666666667,-0.017777777777777778],[0.06777777777777778,-0.017777777777777778],[0.06777777777777778,-0.017777777777777778],[0.06777777777777778,-0.017777777777777778],[0.06888888888888889,-0.017777777777777778],[0.06888888888888889,-0.017777777777777778],[0.06888888888888889,-0.017777777777777778],[0.07555555555555556,-0.017777777777777778],[0.07666666666666666,-0.017777777777777778],[0.07666666666666666,-0.017777777777777778],[0.08,-0.017777777777777778],[0.0811111111111111,-0.017777777777777778],[0.08333333333333333,-0.017777777777777778],[0.08666666666666667,-0.016666666666666666],[0.09111111111111111,-0.013333333333333334],[0.09111111111111111,-0.013333333333333334],[0.09777777777777778,-0.01],[0.10333333333333333,-0.0077777777777777776],[0.1111111111111111,-0.0044444444444444444],[0.11222222222222222,-0.0044444444444444444],[0.11333333333333333,-0.0033333333333333335],[0.11333333333333333,-0.0033333333333333335],[0.11333333333333333,-0.0033333333333333335],[0.11333333333333333,-0.0033333333333333335],[0.11333333333333333,-0.0022222222222222222],[0.11333333333333333,-0.0022222222222222222],[0.11333333333333333,-0.0022222222222222222],[0.11333333333333333,-0.0022222222222222222],[0.11333333333333333,-0.0022222222222222222],[0.11333333333333333,-0.0022222222222222222],[0.11333333333333333,-0.0022222222222222222],[0.11333333333333333,-0.0022222222222222222]],[[0.0022222222222222222,-0.20444444444444446],[0.0033333333333333335,-0.20444444444444446],[0.0033333333333333335,-0.20444444444444446],[0.0033333333333333335,-0.20444444444444446],[0.0033333333333333335,-0.20444444444444446],[0.0033333333333333335,-0.20444444444444446],[0.0033333333333333335,-0.20444444444444446],[0.0033333333333333335,-0.20444444444444446],[0.0033333333333333335,-0.20444444444444446],[0.0033333333333333335,-0.20444444444444446],[0.0033333333333333335,-0.20444444444444446],[0.0033333333333333335,-0.20444444444444446],[0.0033333333333333335,-0.20444444444444446],[0.0033333333333333335,-0.20444444444444446],[-0.0077777777777777776,-0.20333333333333334],[-0.0077777777777777776,-0.20333333333333334],[-0.04111111111111111,-0.19],[-0.11888888888888889,-0.1511111111111111],[-0.11888888888888889,-0.1511111111111111],[-0.19777777777777777,-0.11],[-0.19777777777777777,-0.11],[-0.22666666666666666,-0.09222222222222222],[-0.22666666666666666,-0.09222222222222222],[-0.23333333333333334,-0.08666666666666667],[-0.23333333333333334,-0.08666666666666667],[-0.23555555555555555,-0.08333333333333333],[-0.23555555555555555,-0.08333333333333333],[-0.23555555555555555,-0.08222222222222222],[-0.23555555555555555,-0.08222222222222222],[-0.23555555555555555,-0.0811111111111111],[-0.23555555555555555,-0.08],[-0.23555555555555555,-0.08],[-0.23555555555555555,-0.07888888888888888],[-0.23555555555555555,-0.07888888888888888],[-0.23666666666666666,-0.07666666666666666],[-0.23666666666666666,-0.07666666666666666],[-0.23666666666666666,-0.07666666666666666],[-0.23777777777777778,-0.07444444444444444],[-0.23777777777777778,-0.07444444444444444],[-0.23777777777777778,-0.07444444444444444],[-0.23777777777777778,-0.07444444444444444],[-0.24222222222222223,-0.07],[-0.2477777777777778,-0.06222222222222222],[-0.2477777777777778,-0.06222222222222222],[-0.25,-0.058888888888888886],[-0.25,-0.058888888888888886],[-0.25,-0.058888888888888886],[-0.25,-0.058888888888888886],[-0.25,-0.058888888888888886],[-0.25,-0.058888888888888886],[-0.25,-0.058888888888888886],[-0.25,-0.058888888888888886],[-0.25,-0.058888888888888886],[-0.25,-0.058888888888888886],[-0.24666666666666667,-0.06],[-0.24666666666666667,-0.06]],[[0.0011111111111111111,-0.19],[0.0011111111111111111,-0.19],[0.0011111111111111111,-0.19],[0.0011111111111111111,-0.19],[0.0011111111111111111,-0.19],[0.0011111111111111111,-0.19],[0.0011111111111111111,-0.19],[0.0011111111111111111,-0.19],[0.0011111111111111111,-0.19],[0.0011111111111111111,-0.19],[0.0011111111111111111,-0.19],[0.0011111111111111111,-0.19],[0.0011111111111111111,-0.19],[-0.04,-0.15],[-0.04,-0.15],[-0.04888888888888889,-0.1411111111111111],[-0.06444444444444444,-0.12666666666666668],[-0.07333333333333333,-0.12],[-0.0811111111111111,-0.11555555555555555],[-0.08777777777777777,-0.1111111111111111],[-0.08777777777777777,-0.1111111111111111],[-0.09777777777777778,-0.10555555555555556],[-0.10777777777777778,-0.1],[-0.10777777777777778,-0.1],[-0.13666666666666666,-0.08666666666666667],[-0.13666666666666666,-0.08666666666666667],[-0.1688888888888889,-0.06888888888888889],[-0.18555555555555556,-0.058888888888888886],[-0.19,-0.056666666666666664],[-0.19111111111111112,-0.05555555555555555],[-0.1922222222222222,-0.05555555555555555],[-0.1922222222222222,-0.05555555555555555],[-0.1922222222222222,-0.05555555555555555],[-0.1922222222222222,-0.05555555555555555],[-0.19444444444444445,-0.05555555555555555],[-0.19444444444444445,-0.05555555555555555],[-0.19444444444444445,-0.05555555555555555],[-0.21666666666666667,-0.04555555555555556],[-0.21666666666666667,-0.04555555555555556],[-0.22333333333333333,-0.04111111111111111],[-0.23,-0.03666666666666667],[-0.23,-0.03666666666666667],[-0.23,-0.035555555555555556],[-0.23,-0.035555555555555556],[-0.23,-0.035555555555555556],[-0.23,-0.035555555555555556],[-0.22777777777777777,-0.035555555555555556],[-0.22777777777777777,-0.035555555555555556]],[[0.0011111111111111111,-0.20555555555555555],[0.0011111111111111111,-0.20555555555555555],[0.0011111111111111111,-0.20555555555555555],[0.0011111111111111111,-0.20555555555555555],[0.0011111111111111111,-0.20555555555555555],[0.0011111111111111111,-0.20555555555555555],[0.0011111111111111111,-0.20555555555555555],[0.0011111111111111111,-0.20555555555555555],[0.0011111111111111111,-0.20555555555555555],[0.0011111111111111111,-0.20555555555555555],[0,-0.20555555555555555],[-0.0033333333333333335,-0.20333333333333334],[-0.01888888888888889,-0.19333333333333333],[-0.043333333333333335,-0.17666666666666667],[-0.07111111111111111,-0.16111111111111112],[-0.09,-0.14888888888888888],[-0.1,-0.14222222222222222],[-0.10666666666666667,-0.13777777777777778],[-0.1111111111111111,-0.13555555555555557],[-0.11333333333333333,-0.13333333333333333],[-0.11777777777777777,-0.13111111111111112],[-0.12333333333333334,-0.12777777777777777],[-0.13,-0.12444444444444444],[-0.14,-0.11888888888888889],[-0.14888888888888888,-0.11333333333333333],[-0.15777777777777777,-0.10777777777777778],[-0.17222222222222222,-0.09777777777777778],[-0.19,-0.08777777777777777],[-0.20555555555555555,-0.07888888888888888],[-0.21666666666666667,-0.07111111111111111],[-0.22444444444444445,-0.06444444444444444],[-0.23,-0.06],[-0.23222222222222222,-0.05555555555555555],[-0.23666666666666666,-0.05],[-0.2411111111111111,-0.044444444444444446],[-0.24555555555555555,-0.03888888888888889],[-0.25,-0.034444444444444444],[-0.25333333333333335,-0.03111111111111111],[-0.25555555555555554,-0.028888888888888888],[-0.25666666666666665,-0.028888888888888888],[-0.2588888888888889,-0.027777777777777776],[-0.2611111111111111,-0.02666666666666667],[-0.2633333333333333,-0.024444444444444446],[-0.26666666666666666,-0.022222222222222223],[-0.2688888888888889,-0.021111111111111112],[-0.27,-0.01888888888888889],[-0.27,-0.017777777777777778],[-0.27,-0.016666666666666666],[-0.27,-0.015555555555555555],[-0.27,-0.015555555555555555]]]",4,"[60,56,48,50]",,,,,,,,,,,,,,rooftop1.jpg,space,10.312,0,16,16,88,1,track.jpg,sculpturegarden4.jpg,soccerfield.jpg,sandbox.jpg,,
Image_List_1,,,,,,,,,,,,,,,,46690,2022-03-11_17h01.06.078,analogCatScenes,2020.1.3,MacIntel,60,"[1440,900]","[[[0.0022222222222222222,-0.19555555555555557],[0.0022222222222222222,-0.19555555555555557],[0.0022222222222222222,-0.19555555555555557],[0.0022222222222222222,-0.19555555555555557],[0.0022222222222222222,-0.19555555555555557],[0.0022222222222222222,-0.19555555555555557],[0.0022222222222222222,-0.19555555555555557],[0.0022222222222222222,-0.19555555555555557],[0.0022222222222222222,-0.19444444444444445],[0.0022222222222222222,-0.19],[0.0022222222222222222,-0.17888888888888888],[0.0022222222222222222,-0.15777777777777777],[0.0022222222222222222,-0.1288888888888889],[0.0022222222222222222,-0.09444444444444444],[0.0022222222222222222,-0.058888888888888886],[0.0022222222222222222,-0.02666666666666667],[0.0022222222222222222,-0.0044444444444444444],[0.0022222222222222222,0.008888888888888889],[0.0022222222222222222,0.016666666666666666],[0.0022222222222222222,0.02],[0.0022222222222222222,0.021111111111111112],[0.0022222222222222222,0.021111111111111112],[0.0022222222222222222,0.021111111111111112],[0.0011111111111111111,0.021111111111111112],[0.0011111111111111111,0.021111111111111112],[0.0011111111111111111,0.021111111111111112],[0,0.021111111111111112],[0,0.022222222222222223],[0,0.022222222222222223],[-0.0011111111111111111,0.023333333333333334],[-0.0011111111111111111,0.023333333333333334],[-0.0011111111111111111,0.023333333333333334],[-0.0011111111111111111,0.023333333333333334],[-0.0011111111111111111,0.023333333333333334],[-0.0022222222222222222,0.023333333333333334],[-0.0022222222222222222,0.023333333333333334]]]",1,[36],,,,,,,,,,,,,,restaurantkitchen2.jpg,space,2.082,0,17,17,87,1,theater2.jpg,savanna.jpg,sculpturegarden2.jpg,RVinside2.jpg,,
Image_List_1,,,,,,,,,,,,,,,,46690,2022-03-11_17h01.06.078,analogCatScenes,2020.1.3,MacIntel,60,"[1440,900]","[[[0,-0.20222222222222222],[0,-0.20222222222222222],[0,-0.20222222222222222],[0,-0.20222222222222222],[0,-0.20222222222222222],[0,-0.20222222222222222],[0,-0.20222222222222222],[0,-0.20222222222222222],[0,-0.20222222222222222],[0.0022222222222222222,-0.20222222222222222],[0.012222222222222223,-0.2011111111111111],[0.03111111111111111,-0.19777777777777777],[0.05555555555555555,-0.19333333333333333],[0.08,-0.18777777777777777],[0.1,-0.18444444444444444],[0.12,-0.1811111111111111],[0.1411111111111111,-0.17777777777777778],[0.1411111111111111,-0.17777777777777778],[0.15888888888888889,-0.17555555555555555],[0.17666666666666667,-0.1711111111111111],[0.21,-0.16444444444444445],[0.2222222222222222,-0.16111111111111112],[0.23222222222222222,-0.15888888888888889],[0.24,-0.15666666666666668],[0.2477777777777778,-0.15333333333333332],[0.25333333333333335,-0.1511111111111111],[0.26222222222222225,-0.14888888888888888],[0.27,-0.14555555555555555],[0.2777777777777778,-0.14222222222222222],[0.2822222222222222,-0.14],[0.28555555555555556,-0.1388888888888889],[0.28555555555555556,-0.1388888888888889],[0.2877777777777778,-0.13777777777777778],[0.2877777777777778,-0.13777777777777778],[0.3011111111111111,-0.13],[0.31222222222222223,-0.12333333333333334],[0.32222222222222224,-0.11777777777777777],[0.3288888888888889,-0.11333333333333333],[0.3322222222222222,-0.1111111111111111],[0.3333333333333333,-0.11],[0.3333333333333333,-0.11],[0.3333333333333333,-0.11],[0.3333333333333333,-0.11],[0.3333333333333333,-0.11],[0.3333333333333333,-0.11],[0.3333333333333333,-0.11],[0.3333333333333333,-0.11],[0.3333333333333333,-0.11],[0.3333333333333333,-0.11],[0.3333333333333333,-0.11],[0.33111111111111113,-0.11],[0.33111111111111113,-0.11]],[[-0.005555555555555556,-0.19444444444444445],[-0.005555555555555556,-0.19444444444444445],[-0.005555555555555556,-0.19444444444444445],[-0.005555555555555556,-0.19444444444444445],[-0.005555555555555556,-0.19444444444444445],[-0.005555555555555556,-0.19444444444444445],[-0.005555555555555556,-0.19444444444444445],[-0.005555555555555556,-0.19444444444444445],[-0.005555555555555556,-0.19333333333333333],[-0.005555555555555556,-0.19111111111111112],[-0.008888888888888889,-0.18222222222222223],[-0.02,-0.16444444444444445],[-0.034444444444444444,-0.14333333333333334],[-0.052222222222222225,-0.11777777777777777],[-0.07,-0.09333333333333334],[-0.08666666666666667,-0.06888888888888889],[-0.10222222222222223,-0.04111111111111111],[-0.11555555555555555,-0.008888888888888889],[-0.1288888888888889,0.02666666666666667],[-0.1388888888888889,0.052222222222222225],[-0.14888888888888888,0.07111111111111111],[-0.15888888888888889,0.08666666666666667],[-0.1688888888888889,0.09888888888888889],[-0.1811111111111111,0.10888888888888888],[-0.19333333333333333,0.12],[-0.20444444444444446,0.13111111111111112],[-0.21444444444444444,0.14],[-0.22111111111111112,0.14666666666666667],[-0.22666666666666666,0.1511111111111111],[-0.23222222222222222,0.15444444444444444],[-0.23444444444444446,0.15777777777777777],[-0.23666666666666666,0.16111111111111112],[-0.2388888888888889,0.16444444444444445],[-0.24222222222222223,0.16666666666666666],[-0.24666666666666667,0.17],[-0.25222222222222224,0.17222222222222222],[-0.25666666666666665,0.17444444444444446],[-0.26,0.17666666666666667],[-0.2633333333333333,0.17888888888888888],[-0.2644444444444444,0.18],[-0.26555555555555554,0.1811111111111111],[-0.26555555555555554,0.18222222222222223],[-0.26555555555555554,0.18222222222222223],[-0.26555555555555554,0.18333333333333332],[-0.26555555555555554,0.18333333333333332],[-0.26555555555555554,0.18333333333333332]]]",2,"[52,46]",,,,,,,,,,,,,,botanicalGarden6.jpg,space,3.746,0,18,18,21,1,cemetery6.jpg,campusquad3.jpg,cave5.jpg,beach1.jpeg,,
Image_List_1,,,,,,,,,,,,,,,,46690,2022-03-11_17h01.06.078,analogCatScenes,2020.1.3,MacIntel,60,"[1440,900]","[[[-0.0033333333333333335,-0.20222222222222222],[-0.0033333333333333335,-0.20222222222222222],[-0.0033333333333333335,-0.20222222222222222],[-0.0033333333333333335,-0.20222222222222222],[-0.0033333333333333335,-0.20222222222222222],[-0.0033333333333333335,-0.20222222222222222],[-0.0033333333333333335,-0.20222222222222222],[-0.0033333333333333335,-0.20222222222222222],[-0.0033333333333333335,-0.2011111111111111],[0.0022222222222222222,-0.19555555555555557],[0.01888888888888889,-0.1811111111111111],[0.04,-0.16333333333333333],[0.06444444444444444,-0.14222222222222222],[0.09111111111111111,-0.11888888888888889],[0.12111111111111111,-0.09222222222222222],[0.15444444444444444,-0.06333333333333334],[0.18444444444444444,-0.03666666666666667],[0.2088888888888889,-0.016666666666666666],[0.22333333333333333,-0.0044444444444444444],[0.23222222222222222,0.0033333333333333335],[0.23777777777777778,0.0077777777777777776],[0.24,0.008888888888888889],[0.2411111111111111,0.01],[0.24222222222222223,0.011111111111111112],[0.2477777777777778,0.014444444444444444],[0.2544444444444444,0.02],[0.2611111111111111,0.025555555555555557],[0.26666666666666666,0.03],[0.2688888888888889,0.03222222222222222],[0.27,0.035555555555555556],[0.27666666666666667,0.04666666666666667],[0.29,0.07111111111111111],[0.30333333333333334,0.09111111111111111],[0.3111111111111111,0.10333333333333333],[0.31666666666666665,0.11222222222222222],[0.31777777777777777,0.11666666666666667],[0.3188888888888889,0.11777777777777777],[0.3188888888888889,0.11888888888888889],[0.31777777777777777,0.12],[0.31555555555555553,0.12111111111111111],[0.31333333333333335,0.12333333333333334],[0.3111111111111111,0.12444444444444444],[0.31,0.12555555555555556],[0.3088888888888889,0.12666666666666668],[0.30777777777777776,0.12666666666666668],[0.30777777777777776,0.12666666666666668],[0.30777777777777776,0.12666666666666668],[0.30777777777777776,0.12666666666666668],[0.30777777777777776,0.12666666666666668],[0.30777777777777776,0.12666666666666668],[0.30666666666666664,0.12666666666666668],[0.3055555555555556,0.12555555555555556]]]",1,[52],,,,,,,,,,,,,,alley1.jpg,space,2.283,0,19,19,2,1,arcade1.jpg,applestore6.jpg,apartmentBuilding4.jpg,airportTerminal6.jpg,,
Image_List_1,,,,,,,,,,,,,,,,46690,2022-03-11_17h01.06.078,analogCatScenes,2020.1.3,MacIntel,60,"[1440,900]","[[[0.0011111111111111111,-0.19444444444444445],[0.0011111111111111111,-0.19444444444444445],[0.0011111111111111111,-0.19444444444444445],[0.0011111111111111111,-0.19444444444444445],[0.0011111111111111111,-0.19444444444444445],[0.0011111111111111111,-0.19444444444444445],[0.0011111111111111111,-0.19444444444444445],[0.0011111111111111111,-0.19111111111111112],[0.0022222222222222222,-0.18777777777777777],[0.005555555555555556,-0.18222222222222223],[0.008888888888888889,-0.17777777777777778],[0.01,-0.17444444444444446],[0.011111111111111112,-0.17333333333333334],[0.014444444444444444,-0.1688888888888889],[0.025555555555555557,-0.15444444444444444],[0.057777777777777775,-0.1111111111111111],[0.10333333333333333,-0.05555555555555555],[0.13,-0.025555555555555557],[0.1411111111111111,-0.014444444444444444],[0.15,-0.005555555555555556],[0.15444444444444444,-0.0011111111111111111],[0.15555555555555556,0],[0.15555555555555556,0],[0.15666666666666668,0],[0.15666666666666668,0.0011111111111111111],[0.15666666666666668,0.0022222222222222222],[0.15666666666666668,0.0033333333333333335],[0.15777777777777777,0.01],[0.16666666666666666,0.03222222222222222],[0.17888888888888888,0.056666666666666664],[0.18444444444444444,0.07],[0.18777777777777777,0.07888888888888888],[0.19,0.08444444444444445],[0.19111111111111112,0.08666666666666667],[0.19111111111111112,0.08777777777777777],[0.19111111111111112,0.08888888888888889],[0.19111111111111112,0.09],[0.19111111111111112,0.09111111111111111],[0.19111111111111112,0.09111111111111111],[0.19111111111111112,0.09111111111111111],[0.19111111111111112,0.09111111111111111],[0.19111111111111112,0.09111111111111111],[0.19111111111111112,0.09111111111111111],[0.19111111111111112,0.09111111111111111],[0.19111111111111112,0.09111111111111111],[0.19111111111111112,0.09111111111111111],[0.19111111111111112,0.09111111111111111],[0.19111111111111112,0.09111111111111111],[0.19,0.09111111111111111],[0.19,0.09111111111111111],[0.19,0.09111111111111111],[0.19,0.09111111111111111],[0.19,0.09111111111111111]]]",1,[53],,,,,,,,,,,,,,restaurant14.jpg,space,2.291,0,20,20,86,1,stripmall.jpg,ruralroad3.jpg,sandDunes_desert_outdoor8.jpg,rooftop4.jpg,,
Image_List_1,,,,,,,,,,,,,,,,46690,2022-03-11_17h01.06.078,analogCatScenes,2020.1.3,MacIntel,60,"[1440,900]","[[[0.008888888888888889,-0.18888888888888888],[0.008888888888888889,-0.18888888888888888],[0.008888888888888889,-0.18888888888888888],[0.008888888888888889,-0.18888888888888888],[0.008888888888888889,-0.18888888888888888],[0.008888888888888889,-0.18888888888888888],[0.008888888888888889,-0.18888888888888888],[0.008888888888888889,-0.18888888888888888],[0.008888888888888889,-0.18888888888888888],[0.008888888888888889,-0.18888888888888888],[0.011111111111111112,-0.18888888888888888],[0.02,-0.18888888888888888],[0.03777777777777778,-0.18666666666666668],[0.06222222222222222,-0.18333333333333332],[0.08777777777777777,-0.18],[0.10777777777777778,-0.17777777777777778],[0.12555555555555556,-0.17444444444444446],[0.14777777777777779,-0.1711111111111111],[0.16777777777777778,-0.16666666666666666],[0.18888888888888888,-0.1622222222222222],[0.2088888888888889,-0.15666666666666668],[0.22666666666666666,-0.15333333333333332],[0.2411111111111111,-0.15],[0.25555555555555554,-0.14666666666666667],[0.27,-0.14222222222222222],[0.2833333333333333,-0.1388888888888889],[0.2922222222222222,-0.13666666666666666],[0.2966666666666667,-0.13555555555555557],[0.3,-0.13444444444444445],[0.3022222222222222,-0.13444444444444445],[0.30666666666666664,-0.1322222222222222],[0.31444444444444447,-0.12777777777777777],[0.32555555555555554,-0.12222222222222222],[0.33666666666666667,-0.11555555555555555],[0.34444444444444444,-0.11],[0.3477777777777778,-0.10666666666666667],[0.3488888888888889,-0.09333333333333334],[0.3477777777777778,-0.09333333333333334],[0.34555555555555556,-0.09333333333333334]]]",1,[39],,,,,,,,,,,,,,pasture.jpg,space,2.445,0,21,21,79,1,poolhall2.jpeg,playground9.jpg,pier2.jpg,observatory2.jpg,,
Image_List_1,,,,,,,,,,,,,,,,46690,2022-03-11_17h01.06.078,analogCatScenes,2020.1.3,MacIntel,60,"[1440,900]","[[[-0.006666666666666667,-0.19666666666666666],[-0.006666666666666667,-0.19666666666666666],[-0.006666666666666667,-0.19666666666666666],[-0.006666666666666667,-0.19666666666666666],[-0.006666666666666667,-0.19666666666666666],[-0.006666666666666667,-0.19666666666666666],[-0.006666666666666667,-0.19666666666666666],[-0.006666666666666667,-0.19666666666666666],[-0.006666666666666667,-0.19666666666666666],[-0.006666666666666667,-0.19666666666666666],[-0.006666666666666667,-0.19666666666666666],[-0.006666666666666667,-0.19666666666666666],[-0.006666666666666667,-0.19666666666666666],[-0.006666666666666667,-0.19666666666666666],[-0.0077777777777777776,-0.19444444444444445],[-0.014444444444444444,-0.18888888888888888],[-0.027777777777777776,-0.17888888888888888],[-0.052222222222222225,-0.16111111111111112],[-0.08222222222222222,-0.1388888888888889],[-0.10777777777777778,-0.11555555555555555],[-0.13444444444444445,-0.09222222222222222],[-0.15555555555555556,-0.07222222222222222],[-0.17222222222222222,-0.057777777777777775],[-0.18555555555555556,-0.04777777777777778],[-0.19444444444444445,-0.042222222222222223],[-0.2011111111111111,-0.03888888888888889],[-0.20555555555555555,-0.03666666666666667],[-0.20666666666666667,-0.03666666666666667],[-0.2088888888888889,-0.035555555555555556],[-0.21,-0.035555555555555556],[-0.21333333333333335,-0.03222222222222222],[-0.21777777777777776,-0.028888888888888888],[-0.22111111111111112,-0.023333333333333334],[-0.22444444444444445,-0.01888888888888889],[-0.22666666666666666,-0.015555555555555555],[-0.2288888888888889,-0.013333333333333334],[-0.23222222222222222,-0.01],[-0.23666666666666666,-0.0044444444444444444],[-0.2411111111111111,0],[-0.24333333333333335,0.0033333333333333335],[-0.24666666666666667,0.006666666666666667],[-0.2477777777777778,0.0077777777777777776],[-0.24888888888888888,0.0077777777777777776],[-0.24888888888888888,0.0077777777777777776],[-0.25,0.0077777777777777776],[-0.25,0.0077777777777777776],[-0.25,0.0077777777777777776],[-0.25,0.0077777777777777776],[-0.25,0.0077777777777777776]]]",1,[49],,,,,,,,,,,,,,exerciseequipment3.jpg,space,2.265,0,22,22,42,1,firestation3.jpg,drymountains6.jpg,farm4.jpg,desertvegetation2.jpg,,
Image_List_1,,,,,,,,,,,,,,,,46690,2022-03-11_17h01.06.078,analogCatScenes,2020.1.3,MacIntel,60,"[1440,900]","[[[0.0011111111111111111,-0.19444444444444445],[0.0011111111111111111,-0.19444444444444445],[0.0011111111111111111,-0.19444444444444445],[0.0011111111111111111,-0.19444444444444445],[0.0011111111111111111,-0.19444444444444445],[0.0011111111111111111,-0.19444444444444445],[0.0011111111111111111,-0.19444444444444445],[0.0011111111111111111,-0.19444444444444445],[0.0011111111111111111,-0.19444444444444445],[0.0011111111111111111,-0.19444444444444445],[0.0011111111111111111,-0.19444444444444445],[0.0022222222222222222,-0.19444444444444445],[0.005555555555555556,-0.19444444444444445],[0.015555555555555555,-0.19111111111111112],[0.03,-0.18666666666666668],[0.04555555555555556,-0.1811111111111111],[0.058888888888888886,-0.17666666666666667],[0.07111111111111111,-0.17222222222222222],[0.08444444444444445,-0.16777777777777778],[0.1,-0.1622222222222222],[0.11777777777777777,-0.15444444444444444],[0.13666666666666666,-0.14666666666666667],[0.15,-0.14],[0.16111111111111112,-0.13555555555555557],[0.17222222222222222,-0.13],[0.18222222222222223,-0.12555555555555556],[0.18888888888888888,-0.12111111111111111],[0.19444444444444445,-0.11888888888888889],[0.19777777777777777,-0.11666666666666667],[0.2,-0.11555555555555555],[0.2011111111111111,-0.11444444444444445],[0.20222222222222222,-0.11444444444444445],[0.20222222222222222,-0.11444444444444445],[0.20222222222222222,-0.11444444444444445],[0.20222222222222222,-0.11444444444444445],[0.20444444444444446,-0.11333333333333333],[0.2088888888888889,-0.11],[0.21777777777777776,-0.10444444444444445],[0.22777777777777777,-0.09888888888888889],[0.23555555555555555,-0.09444444444444444],[0.24,-0.09111111111111111],[0.24222222222222223,-0.08888888888888889],[0.24333333333333335,-0.08888888888888889],[0.24666666666666667,-0.08666666666666667],[0.2544444444444444,-0.08333333333333333],[0.26222222222222225,-0.07888888888888888],[0.27,-0.07555555555555556],[0.27444444444444444,-0.07333333333333333],[0.27666666666666667,-0.07222222222222222],[0.2788888888888889,-0.07111111111111111],[0.2788888888888889,-0.07111111111111111],[0.2788888888888889,-0.07111111111111111],[0.2788888888888889,-0.07111111111111111],[0.2788888888888889,-0.07111111111111111],[0.2788888888888889,-0.07111111111111111],[0.2788888888888889,-0.07111111111111111],[0.2788888888888889,-0.07111111111111111],[0.28,-0.07111111111111111],[0.2811111111111111,-0.07111111111111111],[0.2833333333333333,-0.07],[0.2833333333333333,-0.07],[0.28444444444444444,-0.07],[0.28444444444444444,-0.07],[0.28444444444444444,-0.07],[0.2833333333333333,-0.07]]]",1,[65],,,,,,,,,,,,,,auto_showroom3.jpg,space,3.687,0,23,23,9,1,bar2.jpg,ballroom2.jpg,basement5.jpg,arcade2.jpg,,
Image_List_1,,,,,,,,,,,,,,,,46690,2022-03-11_17h01.06.078,analogCatScenes,2020.1.3,MacIntel,60,"[1440,900]","[[[0.0044444444444444444,-0.19555555555555557],[0.0044444444444444444,-0.19555555555555557],[0.0044444444444444444,-0.19555555555555557],[0.0044444444444444444,-0.19555555555555557],[0.0044444444444444444,-0.19555555555555557],[0.0044444444444444444,-0.19555555555555557],[0.0044444444444444444,-0.19555555555555557],[0.0044444444444444444,-0.19555555555555557],[0.0044444444444444444,-0.19555555555555557],[0.0044444444444444444,-0.19444444444444445],[0.005555555555555556,-0.19333333333333333],[0.006666666666666667,-0.19111111111111112],[0.01,-0.18888888888888888],[0.013333333333333334,-0.18555555555555556],[0.01888888888888889,-0.1811111111111111],[0.025555555555555557,-0.17666666666666667],[0.03111111111111111,-0.17222222222222222],[0.03777777777777778,-0.16666666666666666],[0.04555555555555556,-0.15888888888888889],[0.05444444444444444,-0.15222222222222223],[0.06333333333333334,-0.14666666666666667],[0.06777777777777778,-0.14222222222222222],[0.07444444444444444,-0.1388888888888889],[0.07777777777777778,-0.13555555555555557],[0.0811111111111111,-0.13333333333333333],[0.08333333333333333,-0.1322222222222222],[0.08444444444444445,-0.13],[0.08555555555555555,-0.1288888888888889],[0.08888888888888889,-0.12555555555555556],[0.09777777777777778,-0.11555555555555555],[0.11333333333333333,-0.10111111111111111],[0.12666666666666668,-0.08777777777777777],[0.13555555555555557,-0.07888888888888888],[0.1411111111111111,-0.07333333333333333],[0.14333333333333334,-0.07],[0.14444444444444443,-0.06888888888888889],[0.14555555555555555,-0.06888888888888889],[0.14555555555555555,-0.06888888888888889],[0.14555555555555555,-0.06888888888888889],[0.14555555555555555,-0.06888888888888889],[0.14555555555555555,-0.06888888888888889],[0.14555555555555555,-0.06888888888888889],[0.15,-0.06555555555555556],[0.16111111111111112,-0.057777777777777775],[0.1711111111111111,-0.05],[0.17777777777777778,-0.044444444444444446],[0.18222222222222223,-0.042222222222222223],[0.18444444444444444,-0.04111111111111111],[0.18444444444444444,-0.04],[0.18444444444444444,-0.04],[0.18444444444444444,-0.04],[0.18444444444444444,-0.04],[0.18444444444444444,-0.04],[0.18444444444444444,-0.04],[0.18444444444444444,-0.04],[0.18444444444444444,-0.04],[0.18444444444444444,-0.04],[0.18444444444444444,-0.04111111111111111],[0.18333333333333332,-0.042222222222222223]],[[0.006666666666666667,-0.1922222222222222],[0.006666666666666667,-0.1922222222222222],[0.006666666666666667,-0.1922222222222222],[0.006666666666666667,-0.1922222222222222],[0.006666666666666667,-0.1922222222222222],[0.006666666666666667,-0.1922222222222222],[0.006666666666666667,-0.1922222222222222],[0.006666666666666667,-0.1922222222222222],[0.006666666666666667,-0.1922222222222222],[0.006666666666666667,-0.1922222222222222],[0.005555555555555556,-0.1922222222222222],[0.0033333333333333335,-0.1922222222222222],[-0.006666666666666667,-0.1922222222222222],[-0.027777777777777776,-0.19333333333333333],[-0.057777777777777775,-0.19444444444444445],[-0.08777777777777777,-0.19666666666666666],[-0.11555555555555555,-0.19777777777777777],[-0.1411111111111111,-0.2],[-0.1622222222222222,-0.20222222222222222],[-0.17555555555555555,-0.20444444444444446],[-0.18555555555555556,-0.20555555555555555],[-0.19111111111111112,-0.20555555555555555],[-0.19444444444444445,-0.20555555555555555],[-0.19444444444444445,-0.20555555555555555],[-0.19555555555555557,-0.20555555555555555],[-0.19555555555555557,-0.20555555555555555],[-0.19666666666666666,-0.20555555555555555],[-0.2,-0.20555555555555555],[-0.20222222222222222,-0.20555555555555555],[-0.20444444444444446,-0.20555555555555555],[-0.20555555555555555,-0.20555555555555555],[-0.20555555555555555,-0.20555555555555555],[-0.20555555555555555,-0.20555555555555555],[-0.20555555555555555,-0.20555555555555555],[-0.20666666666666667,-0.20555555555555555],[-0.20666666666666667,-0.20555555555555555],[-0.20777777777777778,-0.20555555555555555],[-0.2088888888888889,-0.20555555555555555],[-0.21,-0.20555555555555555],[-0.21,-0.20555555555555555],[-0.21,-0.20555555555555555],[-0.21,-0.20555555555555555],[-0.21,-0.20555555555555555],[-0.21,-0.20555555555555555],[-0.21,-0.20555555555555555],[-0.21,-0.20555555555555555],[-0.21,-0.20444444444444446],[-0.2088888888888889,-0.20333333333333334]],[[-0.0044444444444444444,-0.18888888888888888],[-0.0044444444444444444,-0.18888888888888888],[-0.0044444444444444444,-0.18888888888888888],[-0.0044444444444444444,-0.18888888888888888],[-0.0044444444444444444,-0.18888888888888888],[-0.0044444444444444444,-0.18888888888888888],[-0.0044444444444444444,-0.18888888888888888],[-0.0044444444444444444,-0.18888888888888888],[-0.005555555555555556,-0.18888888888888888],[-0.011111111111111112,-0.18666666666666668],[-0.024444444444444446,-0.18],[-0.044444444444444446,-0.1711111111111111],[-0.06777777777777778,-0.16111111111111112],[-0.08666666666666667,-0.15444444444444444],[-0.09888888888888889,-0.15],[-0.10777777777777778,-0.14777777777777779],[-0.11222222222222222,-0.14666666666666667],[-0.11444444444444445,-0.14555555555555555],[-0.11555555555555555,-0.14444444444444443],[-0.12,-0.14222222222222222],[-0.12777777777777777,-0.13777777777777778],[-0.13444444444444445,-0.13333333333333333],[-0.1411111111111111,-0.1288888888888889],[-0.14555555555555555,-0.12555555555555556],[-0.14888888888888888,-0.12333333333333334],[-0.1511111111111111,-0.12111111111111111],[-0.15444444444444444,-0.11777777777777777],[-0.15666666666666668,-0.11444444444444445],[-0.15888888888888889,-0.11222222222222222],[-0.16111111111111112,-0.11],[-0.1622222222222222,-0.11],[-0.1622222222222222,-0.10888888888888888],[-0.16333333333333333,-0.10888888888888888],[-0.16333333333333333,-0.10777777777777778],[-0.16444444444444445,-0.10666666666666667],[-0.16444444444444445,-0.10555555555555556],[-0.16444444444444445,-0.10555555555555556],[-0.16555555555555557,-0.10555555555555556],[-0.16555555555555557,-0.10555555555555556],[-0.16555555555555557,-0.10555555555555556],[-0.16555555555555557,-0.10555555555555556]]]",3,"[59,48,41]",,,,,,,,,,,,,,hotellobby2.jpg,space,5.067,0,24,24,62,1,minigolf.jpg,horsebarn8.jpg,lab3.jpg,hayfield7.jpg,,
