image_list,key_resp_intructions.keys,key_resp_intructions.rt,key_resp_intructions_3.keys,key_resp_intructions_3.rt,PracticeComplete_2.keys,PracticeComplete_2.rt,PracticeComplete_3.keys,PracticeComplete_3.rt,demo_trials.thisRepN,demo_trials.thisTrialN,demo_trials.thisN,demo_trials.thisIndex,demo_trials.ran,demo_images,path_images,participant,date,expName,psychopyVersion,OS,frameRate,windowSize,drawing,numDrawings,drawingSizes,practice_complete.keys,practice_complete.rt,PracticeComplete.keys,PracticeComplete.rt,practice_trials.thisRepN,practice_trials.thisTrialN,practice_trials.thisN,practice_trials.thisIndex,practice_trials.ran,practice_images,feedback_images,key_resp_intructions_2.keys,key_resp_intructions_2.rt,Image_List_5,trial_complete.keys,trial_complete.rt,trials.thisRepN,trials.thisTrialN,trials.thisN,trials.thisIndex,trials.ran,Image_List_1,Image_List_2,Image_List_3,Image_List_4,key_resp.keys,key_resp.rt
Image_List_5,space,23.9478,space,4.6782,space,6.0441,space,5.3147,0,0,0,6,1,right_left.jpg,right_left_path.jpg,46695,2022-03-14_08h49.06.942,analogCatScenes,2020.1.3,Win32,60,,,,,,,,,,,,,,,,,,,,,,,,,,,,,,,
Image_List_5,,,,,space,2.8002,space,2.3323,0,1,1,2,1,ahead_right.jpg,ahead_right_path.jpg,46695,2022-03-14_08h49.06.942,analogCatScenes,2020.1.3,Win32,60,,,,,,,,,,,,,,,,,,,,,,,,,,,,,,,
Image_List_5,,,,,space,1.2427,space,4.7721,0,2,2,0,1,ahead.jpg,ahead_path.jpg,46695,2022-03-14_08h49.06.942,analogCatScenes,2020.1.3,Win32,60,,,,,,,,,,,,,,,,,,,,,,,,,,,,,,,
Image_List_5,,,,,space,0.9201,space,2.3763,0,3,3,1,1,ahead_left.jpg,ahead_left_path.jpg,46695,2022-03-14_08h49.06.942,analogCatScenes,2020.1.3,Win32,60,,,,,,,,,,,,,,,,,,,,,,,,,,,,,,,
Image_List_5,,,,,space,0.8239,space,2.738,0,4,4,5,1,right.jpg,right_path.jpg,46695,2022-03-14_08h49.06.942,analogCatScenes,2020.1.3,Win32,60,,,,,,,,,,,,,,,,,,,,,,,,,,,,,,,
Image_List_5,,,,,space,0.6604,space,1.0668,0,5,5,4,1,left.jpg,left_path.jpg,46695,2022-03-14_08h49.06.942,analogCatScenes,2020.1.3,Win32,60,,,,,,,,,,,,,,,,,,,,,,,,,,,,,,,
Image_List_5,,,,,space,3.4642,space,6.8226,0,6,6,3,1,ahead_right_left.jpg,ahead_right_left_path.jpg,46695,2022-03-14_08h49.06.942,analogCatScenes,2020.1.3,Win32,60,,,,,,,,,,,,,,,,,,,,,,,,,,,,,,,
Image_List_5,,,,,,,,,,,,,,,,46695,2022-03-14_08h49.06.942,analogCatScenes,2020.1.3,Win32,60,"[1920,1080]",[],0,[],space,0.7334,space,0.4778,0,0,0,0,1,ahead_2.jpg,ahead_2_path.jpg,,,,,,,,,,,,,,,,
Image_List_5,,,,,,,,,,,,,,,,46695,2022-03-14_08h49.06.942,analogCatScenes,2020.1.3,Win32,60,"[1920,1080]",[],0,[],space,0.6707,space,0.6878,0,1,1,4,1,left_2.jpg,left_2_path.jpg,,,,,,,,,,,,,,,,
Image_List_5,,,,,,,,,,,,,,,,46695,2022-03-14_08h49.06.942,analogCatScenes,2020.1.3,Win32,60,"[1920,1080]",[],0,[],space,0.8134,space,3.6563,0,2,2,3,1,ahead_right_left_2.jpg,ahead_right_left_2_path.jpg,,,,,,,,,,,,,,,,
Image_List_5,,,,,,,,,,,,,,,,46695,2022-03-14_08h49.06.942,analogCatScenes,2020.1.3,Win32,60,"[1920,1080]",[],0,[],space,0.8464,space,0.8248,0,3,3,1,1,ahead_left_2.jpg,ahead_left_2_path.jpg,,,,,,,,,,,,,,,,
Image_List_5,,,,,,,,,,,,,,,,46695,2022-03-14_08h49.06.942,analogCatScenes,2020.1.3,Win32,60,"[1920,1080]",[],0,[],space,0.7595,space,0.5522,0,4,4,6,1,right_left_2.jpg,right_left_2_path.jpg,,,,,,,,,,,,,,,,
Image_List_5,,,,,,,,,,,,,,,,46695,2022-03-14_08h49.06.942,analogCatScenes,2020.1.3,Win32,60,"[1920,1080]",[],0,[],space,0.4183,space,0.6239,0,5,5,5,1,right_2.jpg,right_2_path.jpg,,,,,,,,,,,,,,,,
Image_List_5,,,,,,,,,,,,,,,,46695,2022-03-14_08h49.06.942,analogCatScenes,2020.1.3,Win32,60,"[1920,1080]","[[[-0.000925925925925926,-0.2],[-0.000925925925925926,-0.2],[-0.000925925925925926,-0.2],[-0.000925925925925926,-0.19907407407407407],[-0.001851851851851852,-0.19166666666666668],[-0.002777777777777778,-0.17777777777777778],[-0.004629629629629629,-0.15833333333333333],[-0.007407407407407408,-0.14074074074074075],[-0.011111111111111112,-0.12222222222222222],[-0.01574074074074074,-0.1],[-0.019444444444444445,-0.08333333333333333],[-0.024074074074074074,-0.06296296296296296],[-0.026851851851851852,-0.046296296296296294],[-0.02962962962962963,-0.024074074074074074],[-0.032407407407407406,-0.002777777777777778],[-0.03425925925925926,0.016666666666666666],[-0.03518518518518519,0.03611111111111111],[-0.03518518518518519,0.05648148148148148],[-0.03518518518518519,0.07314814814814814],[-0.03518518518518519,0.08518518518518518],[-0.03518518518518519,0.0962962962962963],[-0.03518518518518519,0.10833333333333334],[-0.03518518518518519,0.11388888888888889],[-0.03518518518518519,0.11574074074074074],[-0.03518518518518519,0.11574074074074074],[-0.03518518518518519,0.11574074074074074],[-0.03518518518518519,0.11574074074074074],[-0.03518518518518519,0.11574074074074074],[-0.03518518518518519,0.11574074074074074],[-0.03518518518518519,0.11574074074074074],[-0.03518518518518519,0.11574074074074074],[-0.03518518518518519,0.11574074074074074]],[[-0.002777777777777778,-0.19907407407407407],[-0.002777777777777778,-0.19907407407407407],[-0.001851851851851852,-0.19907407407407407],[0,-0.19722222222222222],[0.005555555555555556,-0.19537037037037036],[0.012962962962962963,-0.1925925925925926],[0.022222222222222223,-0.19074074074074074],[0.03148148148148148,-0.18888888888888888],[0.041666666666666664,-0.18796296296296297],[0.05740740740740741,-0.18518518518518517],[0.07685185185185185,-0.1824074074074074],[0.09444444444444444,-0.18055555555555555],[0.1175925925925926,-0.1787037037037037],[0.1398148148148148,-0.1787037037037037],[0.1685185185185185,-0.1787037037037037],[0.20555555555555555,-0.1787037037037037],[0.24074074074074073,-0.17777777777777778],[0.2712962962962963,-0.17777777777777778],[0.30092592592592593,-0.17777777777777778],[0.325,-0.17777777777777778],[0.33796296296296297,-0.17777777777777778],[0.34074074074074073,-0.17685185185185184],[0.34074074074074073,-0.17685185185185184],[0.34074074074074073,-0.17685185185185184],[0.34074074074074073,-0.17685185185185184],[0.34074074074074073,-0.17685185185185184],[0.34074074074074073,-0.17685185185185184]]]",2,"[32,27]",space,13.3079,space,1.9851,0,6,6,2,1,ahead_right_2.jpg,ahead_right_2_path.jpg,,,,,,,,,,,,,,,,
Image_List_5,,,,,,,,,,,,,,,,46695,2022-03-14_08h49.06.942,analogCatScenes,2020.1.3,Win32,60,"[1920,1080]","[[[0.000925925925925926,-0.20092592592592592],[0.000925925925925926,-0.20092592592592592],[0.000925925925925926,-0.20092592592592592],[0.000925925925925926,-0.20092592592592592],[0.000925925925925926,-0.20092592592592592],[0.001851851851851852,-0.19814814814814816],[0.004629629629629629,-0.1925925925925926],[0.008333333333333333,-0.18611111111111112],[0.013888888888888888,-0.1787037037037037],[0.018518518518518517,-0.17314814814814813],[0.025,-0.16666666666666666],[0.03425925925925926,-0.15925925925925927],[0.04814814814814815,-0.15185185185185185],[0.06388888888888888,-0.14629629629629629],[0.07777777777777778,-0.14166666666666666],[0.08703703703703704,-0.13796296296296295],[0.09444444444444444,-0.1361111111111111],[0.1,-0.13425925925925927],[0.10648148148148148,-0.13240740740740742],[0.11296296296296296,-0.13148148148148148],[0.12685185185185185,-0.12962962962962962],[0.14166666666666666,-0.12962962962962962],[0.15092592592592594,-0.12777777777777777],[0.15185185185185185,-0.12777777777777777],[0.15185185185185185,-0.12777777777777777],[0.15185185185185185,-0.12777777777777777],[0.15185185185185185,-0.12777777777777777],[0.15185185185185185,-0.12777777777777777],[0.15185185185185185,-0.12777777777777777],[0.15185185185185185,-0.12777777777777777],[0.1527777777777778,-0.12777777777777777],[0.15462962962962962,-0.12777777777777777],[0.15555555555555556,-0.12777777777777777],[0.15555555555555556,-0.12777777777777777],[0.15555555555555556,-0.12777777777777777],[0.15555555555555556,-0.12777777777777777],[0.15555555555555556,-0.12777777777777777],[0.15555555555555556,-0.12777777777777777],[0.15555555555555556,-0.12777777777777777],[0.15555555555555556,-0.12777777777777777]]]",1,[40],,,,,,,,,,,,space,3.9793,ballroom3.jpg,space,18.7819,0,0,0,14,1,ballroom1.jpg,breakroom5.jpg,bistrooutdoor5.jpg,botanicalGarden5.jpg,,
Image_List_5,,,,,,,,,,,,,,,,46695,2022-03-14_08h49.06.942,analogCatScenes,2020.1.3,Win32,60,"[1920,1080]","[[[0.002777777777777778,-0.19166666666666668],[0.002777777777777778,-0.19166666666666668],[0.002777777777777778,-0.19166666666666668],[0.002777777777777778,-0.19166666666666668],[0.002777777777777778,-0.19166666666666668],[0.002777777777777778,-0.19166666666666668],[0.002777777777777778,-0.19166666666666668],[0.002777777777777778,-0.19166666666666668],[0.002777777777777778,-0.19166666666666668],[0.002777777777777778,-0.19166666666666668],[0.002777777777777778,-0.19166666666666668],[0.008333333333333333,-0.19074074074074074],[0.023148148148148147,-0.18703703703703703],[0.03981481481481482,-0.1824074074074074],[0.062037037037037036,-0.17592592592592593],[0.08611111111111111,-0.16666666666666666],[0.10833333333333334,-0.15555555555555556],[0.13518518518518519,-0.1388888888888889],[0.1648148148148148,-0.12129629629629629],[0.1962962962962963,-0.10092592592592593],[0.2175925925925926,-0.08611111111111111],[0.23703703703703705,-0.07222222222222222],[0.25,-0.06111111111111111],[0.2638888888888889,-0.04722222222222222],[0.275,-0.03611111111111111],[0.29074074074074074,-0.021296296296296296],[0.30277777777777776,-0.011111111111111112],[0.3101851851851852,-0.002777777777777778],[0.3148148148148148,0.001851851851851852],[0.31666666666666665,0.003703703703703704],[0.3194444444444444,0.008333333333333333],[0.32314814814814813,0.01574074074074074],[0.32407407407407407,0.018518518518518517],[0.325,0.020370370370370372],[0.325,0.020370370370370372],[0.325,0.020370370370370372],[0.325,0.020370370370370372],[0.32685185185185184,0.022222222222222223],[0.32685185185185184,0.023148148148148147],[0.32685185185185184,0.024074074074074074],[0.3277777777777778,0.025],[0.3287037037037037,0.025925925925925925],[0.3287037037037037,0.025925925925925925],[0.3287037037037037,0.025925925925925925],[0.3287037037037037,0.025925925925925925],[0.3287037037037037,0.025925925925925925],[0.3287037037037037,0.025925925925925925],[0.3296296296296296,0.026851851851851852],[0.33240740740740743,0.027777777777777776],[0.33240740740740743,0.028703703703703703],[0.33240740740740743,0.028703703703703703],[0.33240740740740743,0.028703703703703703],[0.33240740740740743,0.028703703703703703],[0.33240740740740743,0.028703703703703703],[0.33240740740740743,0.028703703703703703],[0.33240740740740743,0.028703703703703703],[0.3333333333333333,0.02962962962962963],[0.33425925925925926,0.032407407407407406],[0.33611111111111114,0.03333333333333333],[0.337037037037037,0.03518518518518519],[0.33796296296296297,0.03796296296296296],[0.3388888888888889,0.03981481481481482],[0.3398148148148148,0.040740740740740744],[0.3398148148148148,0.040740740740740744],[0.3398148148148148,0.040740740740740744],[0.3398148148148148,0.040740740740740744],[0.3398148148148148,0.040740740740740744],[0.3398148148148148,0.040740740740740744],[0.3398148148148148,0.040740740740740744]]]",1,[69],,,,,,,,,,,,,,icecream2.jpg,space,6.5381,0,1,1,69,1,liquorstore8.jpg,parkinglot2.jpg,livingroom.jpg,metroInside1.jpg,,
Image_List_5,,,,,,,,,,,,,,,,46695,2022-03-14_08h49.06.942,analogCatScenes,2020.1.3,Win32,60,"[1920,1080]","[[[0.002777777777777778,-0.19907407407407407],[0.002777777777777778,-0.1962962962962963],[0.004629629629629629,-0.19166666666666668],[0.006481481481481481,-0.18425925925925926],[0.006481481481481481,-0.17592592592592593],[0.008333333333333333,-0.15925925925925927],[0.009259259259259259,-0.14537037037037037],[0.009259259259259259,-0.1287037037037037],[0.007407407407407408,-0.11296296296296296],[0.005555555555555556,-0.10092592592592593],[0.003703703703703704,-0.08796296296296297],[0.001851851851851852,-0.07407407407407407],[-0.001851851851851852,-0.05740740740740741],[-0.002777777777777778,-0.04351851851851852],[-0.004629629629629629,-0.020370370370370372],[-0.005555555555555556,-0.003703703703703704],[-0.006481481481481481,0.007407407407407408],[-0.006481481481481481,0.01574074074074074],[-0.007407407407407408,0.019444444444444445],[-0.008333333333333333,0.023148148148148147],[-0.008333333333333333,0.025],[-0.008333333333333333,0.026851851851851852],[-0.008333333333333333,0.026851851851851852],[-0.008333333333333333,0.026851851851851852],[-0.008333333333333333,0.026851851851851852],[-0.008333333333333333,0.026851851851851852],[-0.008333333333333333,0.026851851851851852],[-0.008333333333333333,0.026851851851851852],[-0.008333333333333333,0.026851851851851852],[-0.008333333333333333,0.028703703703703703],[-0.008333333333333333,0.02962962962962963],[-0.008333333333333333,0.02962962962962963],[-0.008333333333333333,0.02962962962962963],[-0.008333333333333333,0.02962962962962963],[-0.008333333333333333,0.02962962962962963],[-0.008333333333333333,0.02962962962962963]]]",1,[36],,,,,,,,,,,,,,readingroom2.jpg,space,4.3109,0,2,2,83,1,readingroom1.jpg,sculpturegarden1.jpg,promenadeDeck6.jpg,restaurant8.jpg,,
Image_List_5,,,,,,,,,,,,,,,,46695,2022-03-14_08h49.06.942,analogCatScenes,2020.1.3,Win32,60,"[1920,1080]","[[[0.007407407407407408,-0.2037037037037037],[0.007407407407407408,-0.2037037037037037],[0.007407407407407408,-0.2037037037037037],[0.007407407407407408,-0.2037037037037037],[0.007407407407407408,-0.2037037037037037],[0.009259259259259259,-0.20277777777777778],[0.017592592592592594,-0.2],[0.03888888888888889,-0.19722222222222222],[0.06759259259259259,-0.19166666666666668],[0.10185185185185185,-0.18611111111111112],[0.1398148148148148,-0.17777777777777778],[0.1712962962962963,-0.17037037037037037],[0.20277777777777778,-0.16018518518518518],[0.2361111111111111,-0.1425925925925926],[0.2638888888888889,-0.12407407407407407],[0.28703703703703703,-0.10740740740740741],[0.3055555555555556,-0.09444444444444444],[0.31666666666666665,-0.08611111111111111],[0.31851851851851853,-0.08425925925925926],[0.31851851851851853,-0.08425925925925926],[0.31851851851851853,-0.08425925925925926],[0.31851851851851853,-0.08425925925925926],[0.31851851851851853,-0.08425925925925926],[0.31851851851851853,-0.08425925925925926],[0.31851851851851853,-0.08425925925925926],[0.31851851851851853,-0.08425925925925926],[0.31851851851851853,-0.08425925925925926],[0.31851851851851853,-0.08425925925925926]]]",1,[28],,,,,,,,,,,,,,campusquad1.jpg,space,12.167,0,3,3,34,1,deck4.jpg,diningroom5.jpg,courthouse4.jpg,diner11.jpg,,
Image_List_5,,,,,,,,,,,,,,,,46695,2022-03-14_08h49.06.942,analogCatScenes,2020.1.3,Win32,60,"[1920,1080]","[[[-0.003703703703703704,-0.19814814814814816],[-0.003703703703703704,-0.19814814814814816],[-0.003703703703703704,-0.19814814814814816],[-0.003703703703703704,-0.19814814814814816],[0.000925925925925926,-0.19722222222222222],[0.01574074074074074,-0.19166666666666668],[0.03796296296296296,-0.18611111111111112],[0.06666666666666667,-0.1824074074074074],[0.08981481481481482,-0.1814814814814815],[0.11018518518518519,-0.1814814814814815],[0.1287037037037037,-0.1814814814814815],[0.1527777777777778,-0.1814814814814815],[0.18518518518518517,-0.1787037037037037],[0.20925925925925926,-0.17777777777777778],[0.24259259259259258,-0.17685185185185184],[0.2657407407407407,-0.17685185185185184],[0.2833333333333333,-0.17592592592592593],[0.287962962962963,-0.175],[0.28888888888888886,-0.17407407407407408],[0.2898148148148148,-0.17314814814814813],[0.2916666666666667,-0.17037037037037037],[0.2916666666666667,-0.1685185185185185]],[[-0.002777777777777778,-0.1935185185185185],[-0.002777777777777778,-0.1935185185185185],[-0.002777777777777778,-0.1935185185185185],[-0.004629629629629629,-0.19537037037037036],[-0.010185185185185186,-0.19814814814814816],[-0.018518518518518517,-0.2037037037037037],[-0.028703703703703703,-0.20925925925925926],[-0.03888888888888889,-0.21296296296296297],[-0.05185185185185185,-0.2175925925925926],[-0.06851851851851852,-0.2222222222222222],[-0.08425925925925926,-0.22592592592592592],[-0.10833333333333334,-0.23055555555555557],[-0.13703703703703704,-0.2324074074074074],[-0.175,-0.23055555555555557],[-0.2175925925925926,-0.22777777777777777],[-0.262037037037037,-0.21944444444444444],[-0.3138888888888889,-0.20833333333333334],[-0.3472222222222222,-0.20092592592592592],[-0.34814814814814815,-0.16111111111111112],[-0.337037037037037,-0.15833333333333333],[-0.33425925925925926,-0.1574074074074074],[-0.33425925925925926,-0.1574074074074074],[-0.33425925925925926,-0.1574074074074074],[-0.33425925925925926,-0.1574074074074074],[-0.33425925925925926,-0.1574074074074074],[-0.33425925925925926,-0.1574074074074074],[-0.33425925925925926,-0.1574074074074074]],[[-0.006481481481481481,-0.19722222222222222],[-0.006481481481481481,-0.19722222222222222],[-0.006481481481481481,-0.19722222222222222],[-0.005555555555555556,-0.1962962962962963],[-0.000925925925925926,-0.19166666666666668],[0.005555555555555556,-0.18611111111111112],[0.019444444444444445,-0.17962962962962964],[0.03333333333333333,-0.17407407407407408],[0.04351851851851852,-0.17037037037037037],[0.049074074074074076,-0.1675925925925926],[0.058333333333333334,-0.1648148148148148],[0.06666666666666667,-0.16296296296296298],[0.07592592592592592,-0.15833333333333333],[0.08333333333333333,-0.1537037037037037],[0.08796296296296297,-0.14814814814814814],[0.08981481481481482,-0.14537037037037037],[0.08981481481481482,-0.14166666666666666],[0.08981481481481482,-0.13796296296296295],[0.08611111111111111,-0.13425925925925927],[0.08148148148148149,-0.13333333333333333],[0.07685185185185185,-0.13333333333333333],[0.07592592592592592,-0.13333333333333333],[0.07592592592592592,-0.13333333333333333],[0.07592592592592592,-0.13333333333333333],[0.07592592592592592,-0.13333333333333333],[0.07592592592592592,-0.13333333333333333],[0.07592592592592592,-0.13333333333333333]]]",3,"[22,27,27]",,,,,,,,,,,,,,clothingstore3.jpg,space,9.9643,0,4,4,40,1,drycleaners4.jpg,farm1.jpg,drymountains.jpg,dugout1.jpg,,
Image_List_5,,,,,,,,,,,,,,,,46695,2022-03-14_08h49.06.942,analogCatScenes,2020.1.3,Win32,60,"[1920,1080]","[[[0.002777777777777778,-0.19814814814814816],[0.002777777777777778,-0.19814814814814816],[0.002777777777777778,-0.19814814814814816],[0.03796296296296296,-0.18611111111111112],[0.11481481481481481,-0.16111111111111112],[0.21666666666666667,-0.12407407407407407],[0.3148148148148148,-0.08981481481481482]],[[-0.007407407407407408,-0.19537037037037036],[-0.008333333333333333,-0.19444444444444445],[-0.009259259259259259,-0.19166666666666668],[-0.012962962962962963,-0.18518518518518517],[-0.018518518518518517,-0.18055555555555555],[-0.024074074074074074,-0.17592592592592593],[-0.040740740740740744,-0.16666666666666666],[-0.06851851851851852,-0.15462962962962962],[-0.10092592592592593,-0.1425925925925926],[-0.12962962962962962,-0.13333333333333333],[-0.1388888888888889,-0.13148148148148148],[-0.1398148148148148,-0.13148148148148148],[-0.1398148148148148,-0.13148148148148148],[-0.14074074074074075,-0.13148148148148148]]]",2,"[7,14]",,,,,,,,,,,,,,airportTerminal2.jpg,space,7.7028,0,5,5,1,1,airportTerminal4.jpg,apartmentBuilding1.jpg,applestore1.jpg,airportTerminal3.jpg,,
Image_List_5,,,,,,,,,,,,,,,,46695,2022-03-14_08h49.06.942,analogCatScenes,2020.1.3,Win32,60,"[1920,1080]","[[[0.003703703703703704,-0.19814814814814816],[0.003703703703703704,-0.19814814814814816],[0.005555555555555556,-0.1962962962962963],[0.008333333333333333,-0.18888888888888888],[0.013888888888888888,-0.1712962962962963],[0.017592592592592594,-0.1537037037037037],[0.021296296296296296,-0.12685185185185185],[0.025,-0.09814814814814815],[0.02962962962962963,-0.0787037037037037],[0.03611111111111111,-0.06296296296296296],[0.037037037037037035,-0.06018518518518518],[0.037037037037037035,-0.06018518518518518],[0.037037037037037035,-0.06018518518518518],[0.037037037037037035,-0.06018518518518518],[0.037037037037037035,-0.06018518518518518],[0.037037037037037035,-0.06018518518518518]],[[0.000925925925925926,-0.20092592592592592],[0.000925925925925926,-0.20092592592592592],[0.004629629629629629,-0.20185185185185187],[0.022222222222222223,-0.20185185185185187],[0.06388888888888888,-0.20277777777777778],[0.11944444444444445,-0.20462962962962963],[0.16666666666666666,-0.2074074074074074],[0.20462962962962963,-0.21388888888888888],[0.22314814814814815,-0.2175925925925926],[0.22777777777777777,-0.21944444444444444],[0.22777777777777777,-0.21944444444444444],[0.22777777777777777,-0.21944444444444444],[0.22870370370370371,-0.21944444444444444]]]",2,"[16,13]",,,,,,,,,,,,,,trainStation3.jpg,space,7.3895,0,6,6,94,1,treehouse.jpg,waitingroom3.jpg,staircase6.jpg,weightroom.jpg,,
Image_List_5,,,,,,,,,,,,,,,,46695,2022-03-14_08h49.06.942,analogCatScenes,2020.1.3,Win32,60,"[1920,1080]","[[[0.000925925925925926,-0.19537037037037036],[0.000925925925925926,-0.19537037037037036],[0.000925925925925926,-0.19537037037037036],[0.001851851851851852,-0.19537037037037036],[0.002777777777777778,-0.19166666666666668],[0.004629629629629629,-0.17962962962962964],[0.005555555555555556,-0.16296296296296298],[0.006481481481481481,-0.14351851851851852],[0.006481481481481481,-0.1287037037037037],[0.006481481481481481,-0.12777777777777777],[0.006481481481481481,-0.12777777777777777],[0.006481481481481481,-0.12777777777777777]]]",1,[12],,,,,,,,,,,,,,dormroom6.jpg,space,3.781,0,7,7,46,1,flowershop.jpg,frontLawn5.jpg,farmersmarket4.jpg,fountain4.jpg,,
Image_List_5,,,,,,,,,,,,,,,,46695,2022-03-14_08h49.06.942,analogCatScenes,2020.1.3,Win32,60,"[1920,1080]","[[[-0.005555555555555556,-0.20462962962962963],[-0.005555555555555556,-0.20462962962962963],[-0.005555555555555556,-0.20462962962962963],[-0.005555555555555556,-0.20462962962962963],[-0.005555555555555556,-0.20462962962962963],[0.000925925925925926,-0.20462962962962963],[0.017592592592592594,-0.20462962962962963],[0.04537037037037037,-0.20277777777777778],[0.08611111111111111,-0.19907407407407407],[0.14166666666666666,-0.1925925925925926],[0.1925925925925926,-0.18796296296296297],[0.26481481481481484,-0.18425925925925926],[0.3212962962962963,-0.17962962962962964],[0.3425925925925926,-0.17777777777777778],[0.3435185185185185,-0.17685185185185184],[0.3435185185185185,-0.17685185185185184],[0.3435185185185185,-0.17685185185185184],[0.3435185185185185,-0.17685185185185184]]]",1,[18],,,,,,,,,,,,,,bar8.jpg,space,5.5101,0,8,8,15,1,bambooforest4.jpg,cafeteria5.jpg,bleachers8.jpg,cabinIndoors.jpg,,
Image_List_5,,,,,,,,,,,,,,,,46695,2022-03-14_08h49.06.942,analogCatScenes,2020.1.3,Win32,60,"[1920,1080]","[[[0.000925925925925926,-0.20092592592592592],[0.000925925925925926,-0.19814814814814816],[0,-0.1935185185185185],[-0.006481481481481481,-0.18425925925925926],[-0.022222222222222223,-0.175],[-0.040740740740740744,-0.16666666666666666],[-0.08888888888888889,-0.15555555555555556],[-0.1398148148148148,-0.14722222222222223],[-0.18703703703703703,-0.13796296296296295],[-0.2222222222222222,-0.12962962962962962],[-0.23981481481481481,-0.1259259259259259],[-0.24351851851851852,-0.1259259259259259],[-0.24351851851851852,-0.1259259259259259],[-0.24537037037037038,-0.125],[-0.24722222222222223,-0.12407407407407407],[-0.24722222222222223,-0.12407407407407407],[-0.24722222222222223,-0.12407407407407407],[-0.25277777777777777,-0.11851851851851852],[-0.2638888888888889,-0.10833333333333334],[-0.2759259259259259,-0.09814814814814815],[-0.28888888888888886,-0.08981481481481482],[-0.2935185185185185,-0.08703703703703704],[-0.29444444444444445,-0.08703703703703704],[-0.29444444444444445,-0.08703703703703704],[-0.29444444444444445,-0.08703703703703704],[-0.2972222222222222,-0.08703703703703704],[-0.3037037037037037,-0.08611111111111111],[-0.31574074074074077,-0.08611111111111111],[-0.33055555555555555,-0.08611111111111111],[-0.3398148148148148,-0.08518518518518518],[-0.3416666666666667,-0.08518518518518518],[-0.3416666666666667,-0.08518518518518518],[-0.3416666666666667,-0.08518518518518518]],[[-0.004629629629629629,-0.1925925925925926],[-0.004629629629629629,-0.18981481481481483],[-0.003703703703703704,-0.17222222222222222],[-0.011111111111111112,-0.15092592592592594],[-0.030555555555555555,-0.11481481481481481],[-0.062037037037037036,-0.08055555555555556],[-0.08518518518518518,-0.05740740740740741],[-0.10740740740740741,-0.03796296296296296],[-0.12037037037037036,-0.026851851851851852],[-0.1287037037037037,-0.019444444444444445],[-0.13055555555555556,-0.018518518518518517],[-0.13055555555555556,-0.018518518518518517],[-0.13240740740740742,-0.016666666666666666],[-0.13425925925925927,-0.012037037037037037],[-0.13796296296296295,-0.008333333333333333],[-0.1398148148148148,-0.005555555555555556],[-0.14074074074074075,-0.005555555555555556],[-0.14074074074074075,-0.005555555555555556],[-0.14074074074074075,-0.005555555555555556],[-0.14074074074074075,-0.005555555555555556],[-0.14074074074074075,-0.005555555555555556],[-0.14074074074074075,-0.005555555555555556],[-0.14074074074074075,-0.005555555555555556],[-0.14074074074074075,-0.005555555555555556],[-0.14074074074074075,-0.005555555555555556],[-0.14074074074074075,-0.004629629629629629],[-0.14166666666666666,-0.004629629629629629],[-0.14166666666666666,-0.004629629629629629],[-0.14166666666666666,-0.004629629629629629]],[[0.002777777777777778,-0.2],[0.002777777777777778,-0.2],[0.002777777777777778,-0.19814814814814816],[0.002777777777777778,-0.19537037037037036],[0.002777777777777778,-0.1925925925925926],[0.002777777777777778,-0.18333333333333332],[0.002777777777777778,-0.17314814814814813],[0.004629629629629629,-0.16018518518518518],[0.007407407407407408,-0.15092592592592594],[0.009259259259259259,-0.14629629629629629],[0.012037037037037037,-0.1388888888888889],[0.014814814814814815,-0.13333333333333333],[0.018518518518518517,-0.12777777777777777],[0.022222222222222223,-0.12407407407407407],[0.028703703703703703,-0.1175925925925926],[0.037037037037037035,-0.1111111111111111],[0.04351851851851852,-0.10648148148148148],[0.05092592592592592,-0.10185185185185185],[0.05648148148148148,-0.09907407407407408],[0.06388888888888888,-0.0962962962962963],[0.06944444444444445,-0.09351851851851851],[0.075,-0.09166666666666666],[0.08055555555555556,-0.08981481481481482],[0.08703703703703704,-0.08888888888888889],[0.09537037037037037,-0.08796296296296297],[0.10462962962962963,-0.08611111111111111],[0.11203703703703703,-0.08611111111111111],[0.1175925925925926,-0.08611111111111111],[0.11944444444444445,-0.08518518518518518],[0.12129629629629629,-0.08518518518518518],[0.12222222222222222,-0.08518518518518518],[0.12407407407407407,-0.08518518518518518],[0.12407407407407407,-0.08518518518518518],[0.12407407407407407,-0.08518518518518518],[0.12407407407407407,-0.08518518518518518],[0.12407407407407407,-0.08518518518518518],[0.12407407407407407,-0.08518518518518518],[0.12407407407407407,-0.08518518518518518],[0.12407407407407407,-0.08518518518518518],[0.12407407407407407,-0.08518518518518518],[0.12407407407407407,-0.08518518518518518],[0.12407407407407407,-0.08518518518518518],[0.12407407407407407,-0.08518518518518518],[0.12407407407407407,-0.08518518518518518],[0.12407407407407407,-0.08518518518518518],[0.12407407407407407,-0.08518518518518518],[0.12407407407407407,-0.08518518518518518],[0.12407407407407407,-0.08518518518518518],[0.12407407407407407,-0.08518518518518518],[0.12407407407407407,-0.08518518518518518],[0.12407407407407407,-0.08518518518518518],[0.12407407407407407,-0.08518518518518518],[0.12407407407407407,-0.08518518518518518],[0.12407407407407407,-0.08518518518518518]],[[0.001851851851851852,-0.1935185185185185],[0.001851851851851852,-0.1935185185185185],[0.001851851851851852,-0.1925925925925926],[0,-0.19074074074074074],[-0.001851851851851852,-0.18425925925925926],[-0.003703703703703704,-0.17037037037037037],[-0.004629629629629629,-0.15092592592592594],[-0.004629629629629629,-0.13518518518518519],[-0.000925925925925926,-0.11574074074074074],[0.003703703703703704,-0.09722222222222222],[0.009259259259259259,-0.08055555555555556],[0.014814814814814815,-0.07222222222222222],[0.020370370370370372,-0.06666666666666667],[0.030555555555555555,-0.05925925925925926],[0.04351851851851852,-0.05185185185185185],[0.05925925925925926,-0.04537037037037037],[0.07314814814814814,-0.041666666666666664],[0.08981481481481482,-0.037037037037037035],[0.10555555555555556,-0.03333333333333333],[0.12129629629629629,-0.030555555555555555],[0.14074074074074075,-0.028703703703703703],[0.15648148148148147,-0.025925925925925925],[0.1685185185185185,-0.024074074074074074],[0.17592592592592593,-0.023148148148148147],[0.1814814814814815,-0.022222222222222223],[0.18518518518518517,-0.021296296296296296],[0.18796296296296297,-0.020370370370370372],[0.18888888888888888,-0.019444444444444445],[0.18888888888888888,-0.019444444444444445],[0.18888888888888888,-0.019444444444444445],[0.18888888888888888,-0.019444444444444445],[0.18888888888888888,-0.019444444444444445],[0.18888888888888888,-0.019444444444444445],[0.18888888888888888,-0.019444444444444445],[0.18888888888888888,-0.019444444444444445]],[[-0.002777777777777778,-0.2],[-0.002777777777777778,-0.2],[-0.003703703703703704,-0.19537037037037036],[-0.003703703703703704,-0.1814814814814815],[-0.003703703703703704,-0.15833333333333333],[-0.008333333333333333,-0.13425925925925927],[-0.011111111111111112,-0.11481481481481481],[-0.012962962962962963,-0.10185185185185185],[-0.014814814814814815,-0.09074074074074075],[-0.017592592592592594,-0.08055555555555556],[-0.023148148148148147,-0.06666666666666667],[-0.028703703703703703,-0.05648148148148148],[-0.03425925925925926,-0.04537037037037037],[-0.03981481481481482,-0.032407407407407406],[-0.04537037037037037,-0.021296296296296296],[-0.05092592592592592,-0.012962962962962963],[-0.05648148148148148,-0.006481481481481481],[-0.05925925925925926,-0.000925925925925926],[-0.06296296296296296,0.003703703703703704],[-0.06481481481481481,0.006481481481481481],[-0.06574074074074074,0.008333333333333333],[-0.06666666666666667,0.012037037037037037],[-0.06759259259259259,0.014814814814814815],[-0.06944444444444445,0.019444444444444445],[-0.06944444444444445,0.022222222222222223],[-0.06944444444444445,0.025925925925925925],[-0.06944444444444445,0.027777777777777776],[-0.06944444444444445,0.027777777777777776],[-0.06944444444444445,0.027777777777777776],[-0.06944444444444445,0.027777777777777776],[-0.06944444444444445,0.027777777777777776],[-0.06944444444444445,0.027777777777777776],[-0.06944444444444445,0.027777777777777776],[-0.06944444444444445,0.027777777777777776],[-0.06944444444444445,0.027777777777777776],[-0.06944444444444445,0.027777777777777776]]]",5,"[33,29,54,35,36]",,,,,,,,,,,,,,botanicalGarden4.jpg,space,14.1171,0,9,9,25,1,campsite7.jpg,conference3.jpg,church3.jpg,checkoutcounter2.jpg,,
Image_List_5,,,,,,,,,,,,,,,,46695,2022-03-14_08h49.06.942,analogCatScenes,2020.1.3,Win32,60,"[1920,1080]","[[[0.005555555555555556,-0.1935185185185185],[0.005555555555555556,-0.18796296296296297],[0.009259259259259259,-0.17407407407407408],[0.012962962962962963,-0.15462962962962962],[0.024074074074074074,-0.12222222222222222],[0.03796296296296296,-0.09722222222222222],[0.049074074074074076,-0.0787037037037037],[0.05740740740740741,-0.06759259259259259],[0.06388888888888888,-0.06018518518518518],[0.06574074074074074,-0.05740740740740741],[0.06666666666666667,-0.05648148148148148],[0.06666666666666667,-0.05648148148148148],[0.06666666666666667,-0.05648148148148148],[0.06666666666666667,-0.05648148148148148]],[[0.004629629629629629,-0.19166666666666668],[0.006481481481481481,-0.1935185185185185],[0.022222222222222223,-0.19814814814814816],[0.05462962962962963,-0.20277777777777778],[0.09814814814814815,-0.20555555555555555],[0.1388888888888889,-0.2101851851851852],[0.19444444444444445,-0.21481481481481482],[0.2361111111111111,-0.21481481481481482],[0.2611111111111111,-0.21203703703703702],[0.26851851851851855,-0.20925925925925926],[0.26944444444444443,-0.20925925925925926],[0.26944444444444443,-0.20925925925925926],[0.26944444444444443,-0.20925925925925926],[0.26944444444444443,-0.20925925925925926],[0.26944444444444443,-0.20925925925925926],[0.26944444444444443,-0.20925925925925926]]]",2,"[14,16]",,,,,,,,,,,,,,postoffice4.jpg,space,3.9971,0,10,10,82,1,publicrestroom2.jpg,sandDunes_desert_outdoor9.jpg,promenadeDeck3.jpg,readingroom4.jpg,,
Image_List_5,,,,,,,,,,,,,,,,46695,2022-03-14_08h49.06.942,analogCatScenes,2020.1.3,Win32,60,"[1920,1080]","[[[-0.001851851851851852,-0.19722222222222222],[-0.001851851851851852,-0.19722222222222222],[0.003703703703703704,-0.19722222222222222],[0.030555555555555555,-0.19722222222222222],[0.07685185185185185,-0.19722222222222222],[0.14351851851851852,-0.19907407407407407],[0.19444444444444445,-0.2],[0.22870370370370371,-0.20092592592592592],[0.24537037037037038,-0.20092592592592592],[0.24814814814814815,-0.20092592592592592],[0.25555555555555554,-0.20092592592592592],[0.262037037037037,-0.2],[0.2675925925925926,-0.19814814814814816]],[[-0.006481481481481481,-0.19907407407407407],[-0.012962962962962963,-0.19814814814814816],[-0.037037037037037035,-0.1925925925925926],[-0.08981481481481482,-0.18333333333333332],[-0.1388888888888889,-0.17777777777777778],[-0.17314814814814813,-0.17407407407407408],[-0.2101851851851852,-0.1648148148148148],[-0.22870370370370371,-0.15555555555555556],[-0.2361111111111111,-0.15092592592592594],[-0.23796296296296296,-0.14907407407407408],[-0.24259259259259258,-0.14351851851851852],[-0.2537037037037037,-0.13518518518518519],[-0.26944444444444443,-0.1259259259259259],[-0.2796296296296296,-0.12222222222222222],[-0.2814814814814815,-0.12129629629629629],[-0.2814814814814815,-0.12129629629629629],[-0.28425925925925927,-0.12129629629629629],[-0.28703703703703703,-0.12037037037037036],[-0.287962962962963,-0.12037037037037036]],[[-0.005555555555555556,-0.20185185185185187],[-0.005555555555555556,-0.20185185185185187],[-0.005555555555555556,-0.20185185185185187],[-0.005555555555555556,-0.19722222222222222],[-0.003703703703703704,-0.18703703703703703],[-0.002777777777777778,-0.16944444444444445],[-0.002777777777777778,-0.14629629629629629],[-0.002777777777777778,-0.13333333333333333],[-0.002777777777777778,-0.12314814814814815],[-0.002777777777777778,-0.1175925925925926],[-0.003703703703703704,-0.1111111111111111],[-0.004629629629629629,-0.10555555555555556],[-0.005555555555555556,-0.1],[-0.007407407407407408,-0.09259259259259259],[-0.008333333333333333,-0.08425925925925926],[-0.009259259259259259,-0.07777777777777778],[-0.012037037037037037,-0.06944444444444445],[-0.013888888888888888,-0.062037037037037036],[-0.014814814814814815,-0.05555555555555555],[-0.01574074074074074,-0.046296296296296294],[-0.017592592592592594,-0.03796296296296296],[-0.017592592592592594,-0.037037037037037035],[-0.017592592592592594,-0.037037037037037035],[-0.017592592592592594,-0.037037037037037035],[-0.017592592592592594,-0.037037037037037035],[-0.017592592592592594,-0.037037037037037035]]]",3,"[13,19,26]",,,,,,,,,,,,,,frontFoyer.jpg,space,6.3069,0,11,11,54,1,greenhouse2.jpg,horsebarn11.jpg,gazebo2.jpg,homegarage4.jpg,,
Image_List_5,,,,,,,,,,,,,,,,46695,2022-03-14_08h49.06.942,analogCatScenes,2020.1.3,Win32,60,"[1920,1080]","[[[-0.009259259259259259,-0.20277777777777778],[-0.009259259259259259,-0.20277777777777778],[-0.001851851851851852,-0.20185185185185187],[0.024074074074074074,-0.19074074074074074],[0.06018518518518518,-0.175],[0.08981481481481482,-0.15925925925925927],[0.10555555555555556,-0.14537037037037037],[0.10925925925925926,-0.13796296296296295],[0.11018518518518519,-0.1361111111111111],[0.11018518518518519,-0.1361111111111111]]]",1,[10],,,,,,,,,,,,,,airplanecabin3.jpg,space,3.6227,0,12,12,0,1,airplanecabin1.jpg,alley2.jpg,appleorchard4.jpg,airplanecabin5.jpg,,
Image_List_5,,,,,,,,,,,,,,,,46695,2022-03-14_08h49.06.942,analogCatScenes,2020.1.3,Win32,60,"[1920,1080]","[[[0,-0.1925925925925926],[0,-0.19166666666666668],[0,-0.19166666666666668],[0.000925925925925926,-0.18796296296296297],[0.004629629629629629,-0.17222222222222222],[0.012037037037037037,-0.14537037037037037],[0.022222222222222223,-0.1175925925925926],[0.03425925925925926,-0.07777777777777778],[0.03981481481481482,-0.044444444444444446],[0.044444444444444446,-0.017592592592592594],[0.049074074074074076,-0.003703703703703704],[0.049074074074074076,-0.000925925925925926],[0.049074074074074076,-0.000925925925925926],[0.05,0.000925925925925926],[0.05092592592592592,0.002777777777777778],[0.05092592592592592,0.003703703703703704],[0.05185185185185185,0.005555555555555556],[0.053703703703703705,0.009259259259259259],[0.05555555555555555,0.014814814814814815],[0.06018518518518518,0.022222222222222223],[0.062037037037037036,0.025925925925925925],[0.06388888888888888,0.03148148148148148],[0.06666666666666667,0.03518518518518519],[0.06666666666666667,0.037037037037037035],[0.06666666666666667,0.037037037037037035],[0.06666666666666667,0.037037037037037035],[0.06666666666666667,0.037037037037037035],[0.06666666666666667,0.037037037037037035],[0.06666666666666667,0.037037037037037035],[0.06666666666666667,0.037037037037037035],[0.06666666666666667,0.037037037037037035]]]",1,[31],,,,,,,,,,,,,,homegarage2.jpg,space,3.662,0,13,13,64,1,igloo2.jpg,newsstand5.jpg,jewelrystore8.jpg,lab5.jpg,,
Image_List_5,,,,,,,,,,,,,,,,46695,2022-03-14_08h49.06.942,analogCatScenes,2020.1.3,Win32,60,"[1920,1080]","[[[-0.000925925925925926,-0.19907407407407407],[-0.000925925925925926,-0.19907407407407407],[0,-0.19907407407407407],[0.005555555555555556,-0.19814814814814816],[0.018518518518518517,-0.19722222222222222],[0.03518518518518519,-0.19444444444444445],[0.05555555555555555,-0.19074074074074074],[0.07314814814814814,-0.18518518518518517],[0.09722222222222222,-0.17407407407407408],[0.12777777777777777,-0.15462962962962962],[0.15925925925925927,-0.13333333333333333],[0.18425925925925926,-0.11481481481481481],[0.20925925925925926,-0.0962962962962963],[0.225,-0.08425925925925926],[0.23333333333333334,-0.07777777777777778],[0.2351851851851852,-0.075],[0.2361111111111111,-0.07314814814814814],[0.23796296296296296,-0.07222222222222222],[0.24259259259259258,-0.06944444444444445],[0.2462962962962963,-0.06851851851851852],[0.25,-0.06666666666666667],[0.25277777777777777,-0.06666666666666667],[0.25462962962962965,-0.06666666666666667],[0.25462962962962965,-0.06666666666666667],[0.25462962962962965,-0.06666666666666667],[0.25462962962962965,-0.06666666666666667],[0.25462962962962965,-0.06666666666666667],[0.25462962962962965,-0.06666666666666667],[0.25462962962962965,-0.06666666666666667]]]",1,[29],,,,,,,,,,,,,,checkoutcounter9.jpg,space,6.4876,0,14,14,36,1,diner14.jpg,dormroom9.jpg,dining_car3.jpg,doctor1.jpg,,
Image_List_5,,,,,,,,,,,,,,,,46695,2022-03-14_08h49.06.942,analogCatScenes,2020.1.3,Win32,60,"[1920,1080]","[[[0.001851851851851852,-0.2],[0.001851851851851852,-0.20092592592592592],[0.001851851851851852,-0.20185185185185187],[0.009259259259259259,-0.20462962962962963],[0.027777777777777776,-0.2074074074074074],[0.06851851851851852,-0.20925925925925926],[0.13240740740740742,-0.20925925925925926],[0.2,-0.20092592592592592],[0.25462962962962965,-0.18611111111111112],[0.2851851851851852,-0.16203703703703703],[0.2972222222222222,-0.13333333333333333],[0.29907407407407405,-0.10740740740740741],[0.2962962962962963,-0.08796296296296297],[0.2898148148148148,-0.07685185185185185],[0.28425925925925927,-0.07222222222222222],[0.28425925925925927,-0.07222222222222222],[0.28425925925925927,-0.07222222222222222],[0.28425925925925927,-0.07222222222222222],[0.28425925925925927,-0.07222222222222222],[0.28425925925925927,-0.07222222222222222]],[[-0.003703703703703704,-0.20185185185185187],[-0.000925925925925926,-0.19907407407407407],[0.002777777777777778,-0.19537037037037036],[0.009259259259259259,-0.19166666666666668],[0.017592592592592594,-0.18611111111111112],[0.026851851851851852,-0.17962962962962964],[0.03888888888888889,-0.1712962962962963],[0.046296296296296294,-0.1648148148148148],[0.058333333333333334,-0.15555555555555556],[0.06851851851851852,-0.14722222222222223],[0.07407407407407407,-0.1425925925925926],[0.08148148148148149,-0.13518518518518519],[0.08611111111111111,-0.1287037037037037],[0.09166666666666666,-0.1175925925925926],[0.09722222222222222,-0.10648148148148148],[0.1,-0.09907407407407408],[0.10092592592592593,-0.08703703703703704],[0.10185185185185185,-0.075],[0.10185185185185185,-0.06851851851851852],[0.09907407407407408,-0.05925925925925926],[0.09351851851851851,-0.05092592592592592],[0.08148148148148149,-0.04351851851851852],[0.06296296296296296,-0.037037037037037035],[0.04722222222222222,-0.03333333333333333],[0.025925925925925925,-0.030555555555555555],[0.003703703703703704,-0.030555555555555555],[-0.01574074074074074,-0.032407407407407406],[-0.03333333333333333,-0.03425925925925926],[-0.05462962962962963,-0.037037037037037035],[-0.06851851851851852,-0.03981481481481482],[-0.08425925925925926,-0.04351851851851852],[-0.1037037037037037,-0.04814814814814815],[-0.12314814814814815,-0.05092592592592592],[-0.14629629629629629,-0.053703703703703705],[-0.1638888888888889,-0.053703703703703705],[-0.18333333333333332,-0.05185185185185185],[-0.2064814814814815,-0.05092592592592592],[-0.23796296296296296,-0.049074074074074076],[-0.27314814814814814,-0.04537037037037037],[-0.3055555555555556,-0.041666666666666664],[-0.33055555555555555,-0.03611111111111111],[-0.3351851851851852,-0.03518518518518519],[-0.3351851851851852,-0.03518518518518519],[-0.3351851851851852,-0.03518518518518519],[-0.3351851851851852,-0.03518518518518519]],[[0.003703703703703704,-0.19537037037037036],[0.009259259259259259,-0.1935185185185185],[0.026851851851851852,-0.1787037037037037],[0.04814814814814815,-0.16203703703703703],[0.07407407407407407,-0.14444444444444443],[0.10092592592592593,-0.12962962962962962],[0.12222222222222222,-0.11574074074074074],[0.13333333333333333,-0.10185185185185185],[0.13796296296296295,-0.09259259259259259],[0.14166666666666666,-0.08425925925925926],[0.1425925925925926,-0.07777777777777778],[0.1425925925925926,-0.06944444444444445],[0.14166666666666666,-0.06018518518518518],[0.13703703703703704,-0.05092592592592592],[0.1287037037037037,-0.04537037037037037],[0.12222222222222222,-0.040740740740740744],[0.11203703703703703,-0.03796296296296296],[0.10092592592592593,-0.03425925925925926],[0.08611111111111111,-0.030555555555555555],[0.06759259259259259,-0.025925925925925925],[0.058333333333333334,-0.024074074074074074],[0.05185185185185185,-0.021296296296296296],[0.05,-0.020370370370370372],[0.049074074074074076,-0.018518518518518517],[0.04814814814814815,-0.016666666666666666],[0.04814814814814815,-0.011111111111111112],[0.05185185185185185,-0.002777777777777778],[0.05555555555555555,0.005555555555555556],[0.062037037037037036,0.014814814814814815],[0.06481481481481481,0.018518518518518517],[0.06481481481481481,0.018518518518518517],[0.06481481481481481,0.018518518518518517],[0.06481481481481481,0.018518518518518517],[0.06481481481481481,0.018518518518518517]]]",3,"[20,45,34]",,,,,,,,,,,,,,cliff5.jpg,space,10.8031,0,15,15,39,1,driveway6.jpg,eyeglassstore9.jpg,drycleaners6.jpg,drymountains5.jpg,,
Image_List_5,,,,,,,,,,,,,,,,46695,2022-03-14_08h49.06.942,analogCatScenes,2020.1.3,Win32,60,"[1920,1080]","[[[0.004629629629629629,-0.1935185185185185],[0.001851851851851852,-0.1935185185185185],[0,-0.1935185185185185],[-0.001851851851851852,-0.1935185185185185],[-0.011111111111111112,-0.1935185185185185],[-0.040740740740740744,-0.1935185185185185],[-0.0962962962962963,-0.19074074074074074],[-0.14907407407407408,-0.18611111111111112],[-0.20277777777777778,-0.1824074074074074],[-0.24444444444444444,-0.17777777777777778],[-0.27870370370370373,-0.16944444444444445],[-0.30092592592592593,-0.16111111111111112],[-0.3138888888888889,-0.1537037037037037],[-0.325,-0.14629629629629629],[-0.337037037037037,-0.1388888888888889],[-0.3453703703703704,-0.13333333333333333],[-0.34629629629629627,-0.13333333333333333],[-0.34629629629629627,-0.13333333333333333],[-0.34629629629629627,-0.13333333333333333],[-0.34629629629629627,-0.13333333333333333],[-0.34629629629629627,-0.13333333333333333],[-0.34629629629629627,-0.13333333333333333]],[[0.002777777777777778,-0.20092592592592592],[0.002777777777777778,-0.20277777777777778],[0.005555555555555556,-0.20555555555555555],[0.020370370370370372,-0.21296296296296297],[0.05185185185185185,-0.22037037037037038],[0.1,-0.22777777777777777],[0.15833333333333333,-0.23055555555555557],[0.2111111111111111,-0.22870370370370371],[0.24259259259259258,-0.225],[0.2601851851851852,-0.22407407407407406],[0.2722222222222222,-0.22314814814814815],[0.2777777777777778,-0.2222222222222222],[0.27870370370370373,-0.2212962962962963],[0.2814814814814815,-0.22037037037037038],[0.2824074074074074,-0.21944444444444444],[0.2824074074074074,-0.21944444444444444],[0.2824074074074074,-0.21944444444444444],[0.2824074074074074,-0.21944444444444444],[0.2833333333333333,-0.21851851851851853],[0.2851851851851852,-0.21666666666666667],[0.2851851851851852,-0.21666666666666667],[0.2851851851851852,-0.21666666666666667],[0.2851851851851852,-0.21666666666666667]],[[-0.005555555555555556,-0.2],[-0.005555555555555556,-0.2],[-0.005555555555555556,-0.2],[-0.004629629629629629,-0.1962962962962963],[0.000925925925925926,-0.1824074074074074],[0.009259259259259259,-0.1638888888888889],[0.018518518518518517,-0.14444444444444443],[0.024074074074074074,-0.13148148148148148],[0.027777777777777776,-0.1175925925925926],[0.03148148148148148,-0.10555555555555556],[0.03333333333333333,-0.09814814814814815],[0.03425925925925926,-0.09537037037037037],[0.03518518518518519,-0.09351851851851851],[0.03518518518518519,-0.09351851851851851],[0.03518518518518519,-0.09351851851851851],[0.03518518518518519,-0.09351851851851851],[0.03518518518518519,-0.09351851851851851],[0.03518518518518519,-0.09351851851851851],[0.03518518518518519,-0.09351851851851851],[0.03518518518518519,-0.09351851851851851],[0.03518518518518519,-0.09351851851851851],[0.03518518518518519,-0.09351851851851851],[0.03518518518518519,-0.09351851851851851],[0.03518518518518519,-0.09351851851851851]]]",3,"[22,23,24]",,,,,,,,,,,,,,cabin4.jpg,space,6.8017,0,16,16,32,1,dancestudio6.jpg,diner12.jpg,constructionSite2.jpg,dentist4.jpg,,
Image_List_5,,,,,,,,,,,,,,,,46695,2022-03-14_08h49.06.942,analogCatScenes,2020.1.3,Win32,60,"[1920,1080]","[[[-0.003703703703703704,-0.2],[0.001851851851851852,-0.1935185185185185],[0.013888888888888888,-0.18055555555555555],[0.03611111111111111,-0.15648148148148147],[0.06666666666666667,-0.12314814814814815],[0.10092592592592593,-0.09074074074074075],[0.13240740740740742,-0.06388888888888888],[0.15,-0.04537037037037037],[0.15833333333333333,-0.03518518518518519],[0.15833333333333333,-0.03425925925925926],[0.15833333333333333,-0.03425925925925926],[0.15833333333333333,-0.03425925925925926],[0.15833333333333333,-0.03425925925925926],[0.15925925925925927,-0.03425925925925926]]]",1,[14],,,,,,,,,,,,,,boardwalk.jpg,space,5.3609,0,17,17,24,1,campsite.jpg,cliff3.jpg,cave6.jpg,cemetery5.jpg,,
Image_List_5,,,,,,,,,,,,,,,,46695,2022-03-14_08h49.06.942,analogCatScenes,2020.1.3,Win32,60,"[1920,1080]","[[[0.006481481481481481,-0.19907407407407407],[0.006481481481481481,-0.19907407407407407],[0.006481481481481481,-0.19907407407407407],[0.004629629629629629,-0.19907407407407407],[-0.007407407407407408,-0.1962962962962963],[-0.028703703703703703,-0.1925925925925926],[-0.07314814814814814,-0.18518518518518517],[-0.1259259259259259,-0.17777777777777778],[-0.1685185185185185,-0.16944444444444445],[-0.20833333333333334,-0.15925925925925927],[-0.2324074074074074,-0.15],[-0.24537037037037038,-0.14537037037037037],[-0.25,-0.14444444444444443],[-0.25,-0.14444444444444443],[-0.25,-0.14444444444444443],[-0.25,-0.14444444444444443],[-0.25,-0.14444444444444443]],[[0.004629629629629629,-0.2],[0.006481481481481481,-0.2],[0.017592592592592594,-0.20092592592592592],[0.04814814814814815,-0.2037037037037037],[0.10277777777777777,-0.2074074074074074],[0.1648148148148148,-0.20925925925925926],[0.20833333333333334,-0.20925925925925926],[0.225,-0.2074074074074074],[0.2351851851851852,-0.20462962962962963],[0.24259259259259258,-0.2],[0.25,-0.1935185185185185],[0.2574074074074074,-0.18703703703703703],[0.26481481481481484,-0.17962962962962964],[0.2675925925925926,-0.1712962962962963],[0.26851851851851855,-0.1685185185185185],[0.26851851851851855,-0.1685185185185185],[0.26851851851851855,-0.1685185185185185],[0.26851851851851855,-0.1685185185185185],[0.26851851851851855,-0.1685185185185185],[0.26851851851851855,-0.1685185185185185],[0.26851851851851855,-0.1685185185185185]]]",2,"[17,21]",,,,,,,,,,,,,,tenniscourt.jpg,space,6.6501,0,18,18,93,1,tollbooth8.jpg,volleyballcourt4.jpg,staircase4.jpg,warehouseoutside2.jpg,,
Image_List_5,,,,,,,,,,,,,,,,46695,2022-03-14_08h49.06.942,analogCatScenes,2020.1.3,Win32,60,"[1920,1080]","[[[0.001851851851851852,-0.19907407407407407],[0.001851851851851852,-0.19814814814814816],[0.001851851851851852,-0.18425925925925926],[-0.006481481481481481,-0.14444444444444443],[-0.016666666666666666,-0.11203703703703703],[-0.025925925925925925,-0.08333333333333333],[-0.03425925925925926,-0.05740740740740741],[-0.040740740740740744,-0.03518518518518519],[-0.04259259259259259,-0.025],[-0.04259259259259259,-0.024074074074074074]]]",1,[10],,,,,,,,,,,,,,alley4.jpg,space,4.2844,0,19,19,4,1,artStudio1.jpg,baggageClaim2.jpg,auto_showroom1.jpg,appleorchard3.jpg,,
Image_List_5,,,,,,,,,,,,,,,,46695,2022-03-14_08h49.06.942,analogCatScenes,2020.1.3,Win32,60,"[1920,1080]","[[[0.002777777777777778,-0.2],[0.002777777777777778,-0.2],[0.002777777777777778,-0.19907407407407407],[0.000925925925925926,-0.1925925925925926],[-0.007407407407407408,-0.17685185185185184],[-0.025,-0.15185185185185185],[-0.03611111111111111,-0.13425925925925927],[-0.04537037037037037,-0.12129629629629629],[-0.04814814814814815,-0.11574074074074074],[-0.049074074074074076,-0.11481481481481481],[-0.05,-0.11203703703703703],[-0.05,-0.11018518518518519],[-0.05,-0.11018518518518519],[-0.05,-0.11018518518518519],[-0.05,-0.11018518518518519],[-0.05,-0.11018518518518519],[-0.05,-0.11018518518518519],[-0.05,-0.11018518518518519],[-0.05,-0.11018518518518519],[-0.05092592592592592,-0.10648148148148148],[-0.05277777777777778,-0.10185185185185185],[-0.05462962962962963,-0.09722222222222222],[-0.05555555555555555,-0.09351851851851851],[-0.058333333333333334,-0.08888888888888889],[-0.05925925925925926,-0.08703703703703704],[-0.06018518518518518,-0.08611111111111111],[-0.06111111111111111,-0.08425925925925926],[-0.062037037037037036,-0.0824074074074074],[-0.062037037037037036,-0.0824074074074074],[-0.062037037037037036,-0.0824074074074074],[-0.062037037037037036,-0.0824074074074074],[-0.062037037037037036,-0.0824074074074074],[-0.062037037037037036,-0.0824074074074074]]]",1,[33],,,,,,,,,,,,,,hayfield7.jpg,space,14.103,0,20,20,62,1,hotellobby2.jpg,minigolf.jpg,horsebarn8.jpg,lab3.jpg,,
Image_List_5,,,,,,,,,,,,,,,,46695,2022-03-14_08h49.06.942,analogCatScenes,2020.1.3,Win32,60,"[1920,1080]","[[[-0.005555555555555556,-0.19814814814814816],[-0.005555555555555556,-0.19814814814814816],[-0.005555555555555556,-0.19814814814814816],[-0.005555555555555556,-0.19814814814814816],[-0.000925925925925926,-0.19722222222222222],[0.026851851851851852,-0.1925925925925926],[0.08148148148148149,-0.17962962962962964],[0.13425925925925927,-0.1675925925925926],[0.17222222222222222,-0.15555555555555556],[0.19444444444444445,-0.14444444444444443],[0.2,-0.1398148148148148],[0.2,-0.1398148148148148],[0.2,-0.1398148148148148],[0.2,-0.1398148148148148],[0.2,-0.1398148148148148],[0.2,-0.1398148148148148],[0.2,-0.1398148148148148],[0.2,-0.1398148148148148],[0.2,-0.1398148148148148],[0.2,-0.1398148148148148],[0.20185185185185187,-0.1361111111111111],[0.20555555555555555,-0.13148148148148148],[0.2101851851851852,-0.12777777777777777],[0.21296296296296297,-0.1259259259259259],[0.21296296296296297,-0.125],[0.21296296296296297,-0.125],[0.21296296296296297,-0.125],[0.21296296296296297,-0.125],[0.21296296296296297,-0.125],[0.21296296296296297,-0.125],[0.21296296296296297,-0.125],[0.21296296296296297,-0.125],[0.21296296296296297,-0.125],[0.21296296296296297,-0.125]]]",1,[34],,,,,,,,,,,,,,observatory2.jpg,space,5.5741,0,21,21,79,1,pasture.jpg,poolhall2.jpeg,playground9.jpg,pier2.jpg,,
Image_List_5,,,,,,,,,,,,,,,,46695,2022-03-14_08h49.06.942,analogCatScenes,2020.1.3,Win32,60,"[1920,1080]","[[[-0.003703703703703704,-0.2],[-0.003703703703703704,-0.2],[0.001851851851851852,-0.19814814814814816],[0.028703703703703703,-0.17222222222222222],[0.09166666666666666,-0.09814814814814815],[0.16018518518518518,-0.020370370370370372],[0.2101851851851852,0.03333333333333333],[0.22962962962962963,0.058333333333333334],[0.23055555555555557,0.05925925925925926],[0.23055555555555557,0.05925925925925926]]]",1,[10],,,,,,,,,,,,,,rooftop2.jpg,space,3.9961,0,22,22,84,1,readingroom5.jpg,sidewalk2.jpg,restaurant13.jpg,sandDunes_desert_outdoor.jpg,,
Image_List_5,,,,,,,,,,,,,,,,46695,2022-03-14_08h49.06.942,analogCatScenes,2020.1.3,Win32,60,"[1920,1080]","[[[-0.007407407407407408,-0.19814814814814816],[-0.007407407407407408,-0.19814814814814816],[-0.007407407407407408,-0.19907407407407407],[-0.001851851851851852,-0.20277777777777778],[0.025925925925925925,-0.2074074074074074],[0.075,-0.21203703703703702],[0.13333333333333333,-0.21574074074074073],[0.17222222222222222,-0.21574074074074073],[0.20833333333333334,-0.21203703703703702],[0.23055555555555557,-0.20277777777777778],[0.23981481481481481,-0.1925925925925926],[0.24166666666666667,-0.18518518518518517],[0.24259259259259258,-0.17777777777777778],[0.24259259259259258,-0.17407407407407408],[0.24259259259259258,-0.16944444444444445],[0.24074074074074073,-0.16296296296296298],[0.2388888888888889,-0.16111111111111112],[0.2388888888888889,-0.16111111111111112],[0.2388888888888889,-0.16111111111111112],[0.2388888888888889,-0.16111111111111112],[0.2388888888888889,-0.16111111111111112],[0.2388888888888889,-0.16111111111111112],[0.2388888888888889,-0.16111111111111112],[0.2388888888888889,-0.16111111111111112]]]",1,[24],,,,,,,,,,,,,,igloo.jpg,space,5.2053,0,23,23,70,1,lockerroom4.jpg,pavilion.jpg,lockerroom3.jpg,minigolf8.jpg,,
Image_List_5,,,,,,,,,,,,,,,,46695,2022-03-14_08h49.06.942,analogCatScenes,2020.1.3,Win32,60,"[1920,1080]","[[[-0.003703703703703704,-0.20462962962962963],[-0.002777777777777778,-0.20462962962962963],[0,-0.2037037037037037],[0.008333333333333333,-0.20092592592592592],[0.028703703703703703,-0.1962962962962963],[0.06018518518518518,-0.18518518518518517],[0.1,-0.16203703703703703],[0.1287037037037037,-0.14166666666666666],[0.14166666666666666,-0.13333333333333333],[0.14537037037037037,-0.13055555555555556],[0.14537037037037037,-0.13055555555555556],[0.14537037037037037,-0.13055555555555556],[0.14537037037037037,-0.13055555555555556]]]",1,[13],,,,,,,,,,,,,,jewelrystore.jpg,space,2.998,0,24,24,71,1,metroInside2.jpg,pavilion5.jpg,metroInside3.jpg,museum3.jpg,,
Image_List_5,,,,,,,,,,,,,,,,46695,2022-03-14_08h49.06.942,analogCatScenes,2020.1.3,Win32,60,"[1920,1080]","[[[0.003703703703703704,-0.19074074074074074],[0.003703703703703704,-0.19074074074074074],[0.003703703703703704,-0.18888888888888888],[0.011111111111111112,-0.15833333333333333],[0.018518518518518517,-0.10555555555555556],[0.021296296296296296,-0.05648148148148148],[0.022222222222222223,-0.030555555555555555],[0.022222222222222223,-0.027777777777777776],[0.022222222222222223,-0.027777777777777776],[0.022222222222222223,-0.027777777777777776],[0.022222222222222223,-0.027777777777777776],[0.022222222222222223,-0.027777777777777776],[0.022222222222222223,-0.027777777777777776],[0.022222222222222223,-0.027777777777777776]]]",1,[14],,,,,,,,,,,,,,cabin3.jpg,space,1.7801,0,25,25,31,1,cubicle4.jpg,desertvegetation6.jpg,conference4.jpg,courtroom2.jpg,,
Image_List_5,,,,,,,,,,,,,,,,46695,2022-03-14_08h49.06.942,analogCatScenes,2020.1.3,Win32,60,"[1920,1080]","[[[0.001851851851851852,-0.20185185185185187],[0.001851851851851852,-0.20185185185185187],[0.001851851851851852,-0.20185185185185187],[0.001851851851851852,-0.20185185185185187],[0.001851851851851852,-0.20185185185185187],[0.001851851851851852,-0.20185185185185187],[0.003703703703703704,-0.2],[0.019444444444444445,-0.1962962962962963],[0.07407407407407407,-0.19166666666666668],[0.14629629629629629,-0.18611111111111112],[0.23055555555555557,-0.1787037037037037],[0.2796296296296296,-0.17407407407407408],[0.28425925925925927,-0.17314814814814813],[0.28425925925925927,-0.17314814814814813],[0.28425925925925927,-0.17314814814814813],[0.28425925925925927,-0.17222222222222222],[0.28425925925925927,-0.17222222222222222],[0.28425925925925927,-0.17222222222222222],[0.28425925925925927,-0.17222222222222222],[0.28425925925925927,-0.17222222222222222],[0.28425925925925927,-0.17222222222222222],[0.28425925925925927,-0.17222222222222222]]]",1,[22],,,,,,,,,,,,,,gasstation2.jpg,space,4.1495,0,26,26,56,1,grocerystore5.jpg,hut3.jpg,golfcourse10.jpg,hut1.jpg,,
Image_List_5,,,,,,,,,,,,,,,,46695,2022-03-14_08h49.06.942,analogCatScenes,2020.1.3,Win32,60,"[1920,1080]","[[[0.001851851851851852,-0.2],[-0.006481481481481481,-0.2],[-0.021296296296296296,-0.20092592592592592],[-0.03888888888888889,-0.20277777777777778],[-0.058333333333333334,-0.20555555555555555],[-0.07777777777777778,-0.20462962962962963],[-0.09166666666666666,-0.19907407407407407],[-0.10092592592592593,-0.1935185185185185],[-0.12222222222222222,-0.17962962962962964],[-0.14074074074074075,-0.1675925925925926],[-0.1638888888888889,-0.15],[-0.17685185185185184,-0.1388888888888889],[-0.18518518518518517,-0.125],[-0.18981481481481483,-0.10092592592592593],[-0.18703703703703703,-0.06018518518518518],[-0.17592592592592593,-0.027777777777777776],[-0.14814814814814814,0.006481481481481481],[-0.11296296296296296,0.025],[-0.09537037037037037,0.03148148148148148],[-0.09351851851851851,0.032407407407407406],[-0.09351851851851851,0.032407407407407406],[-0.09351851851851851,0.032407407407407406],[-0.09351851851851851,0.032407407407407406],[-0.09351851851851851,0.032407407407407406]]]",1,[24],,,,,,,,,,,,,,dock2.jpg,space,2.5997,0,27,27,44,1,firestation2.jpg,frontFoyer4.jpg,elevatorOutside1.jpg,foodcourt6.jpg,,
Image_List_5,,,,,,,,,,,,,,,,46695,2022-03-14_08h49.06.942,analogCatScenes,2020.1.3,Win32,60,"[1920,1080]","[[[-0.009259259259259259,-0.1925925925925926],[-0.007407407407407408,-0.1925925925925926],[-0.002777777777777778,-0.19444444444444445],[0.001851851851851852,-0.1962962962962963],[0.005555555555555556,-0.19722222222222222],[0.009259259259259259,-0.19814814814814816],[0.017592592592592594,-0.2],[0.022222222222222223,-0.20092592592592592],[0.024074074074074074,-0.20092592592592592],[0.025925925925925925,-0.20185185185185187],[0.028703703703703703,-0.20185185185185187],[0.03148148148148148,-0.20185185185185187],[0.03333333333333333,-0.20185185185185187],[0.03333333333333333,-0.20185185185185187],[0.03333333333333333,-0.20185185185185187],[0.03333333333333333,-0.20185185185185187],[0.03333333333333333,-0.20185185185185187],[0.03333333333333333,-0.2],[0.03333333333333333,-0.19814814814814816],[0.03333333333333333,-0.19722222222222222],[0.03333333333333333,-0.19537037037037036],[0.032407407407407406,-0.1935185185185185],[0.032407407407407406,-0.1925925925925926],[0.032407407407407406,-0.19166666666666668],[0.032407407407407406,-0.19166666666666668],[0.032407407407407406,-0.19166666666666668],[0.032407407407407406,-0.19166666666666668],[0.032407407407407406,-0.19166666666666668],[0.032407407407407406,-0.19166666666666668],[0.032407407407407406,-0.19166666666666668]]]",1,[30],,,,,,,,,,,,,,observatory1.jpg,space,2.9826,0,28,28,78,1,parkinglot3.jpg,poolhall1.jpg,pier5.jpg,pavilion3.jpg,,
Image_List_5,,,,,,,,,,,,,,,,46695,2022-03-14_08h49.06.942,analogCatScenes,2020.1.3,Win32,60,"[1920,1080]","[[[-0.001851851851851852,-0.19814814814814816],[-0.001851851851851852,-0.18981481481481483],[-0.003703703703703704,-0.16666666666666666],[-0.009259259259259259,-0.13055555555555556],[-0.012962962962962963,-0.09444444444444444],[-0.013888888888888888,-0.07407407407407407],[-0.014814814814814815,-0.06296296296296296],[-0.014814814814814815,-0.06018518518518518],[-0.014814814814814815,-0.05925925925925926],[-0.013888888888888888,-0.05555555555555555],[-0.012962962962962963,-0.05277777777777778],[-0.012962962962962963,-0.05277777777777778],[-0.012962962962962963,-0.05277777777777778],[-0.012962962962962963,-0.05277777777777778],[-0.012962962962962963,-0.05277777777777778],[-0.012962962962962963,-0.05277777777777778]]]",1,[16],,,,,,,,,,,,,,library_aisle9.jpg,space,2.776,0,29,29,73,1,musicStore3.jpg,photographer_studio2.jpg,nursery.jpg,nursery4.jpg,,
Image_List_5,,,,,,,,,,,,,,,,46695,2022-03-14_08h49.06.942,analogCatScenes,2020.1.3,Win32,60,"[1920,1080]","[[[-0.004629629629629629,-0.2],[-0.004629629629629629,-0.2],[-0.007407407407407408,-0.19166666666666668],[-0.018518518518518517,-0.1648148148148148],[-0.03888888888888889,-0.12685185185185185],[-0.06388888888888888,-0.09166666666666666],[-0.08518518518518518,-0.06759259259259259],[-0.09444444444444444,-0.05740740740740741],[-0.0962962962962963,-0.05555555555555555],[-0.0962962962962963,-0.05555555555555555],[-0.0962962962962963,-0.05555555555555555],[-0.0962962962962963,-0.05555555555555555]]]",1,[12],,,,,,,,,,,,,,dentist2.jpg,space,2.1471,0,30,30,41,1,dugout4.jpg,farm3.jpg,drymountains3.jpg,fabricstore1.jpg,,
Image_List_5,,,,,,,,,,,,,,,,46695,2022-03-14_08h49.06.942,analogCatScenes,2020.1.3,Win32,60,"[1920,1080]","[[[-0.006481481481481481,-0.1962962962962963],[-0.006481481481481481,-0.1962962962962963],[-0.006481481481481481,-0.1962962962962963],[-0.006481481481481481,-0.1824074074074074],[-0.008333333333333333,-0.1537037037037037],[-0.012037037037037037,-0.12777777777777777],[-0.017592592592592594,-0.09907407407407408],[-0.021296296296296296,-0.0824074074074074],[-0.024074074074074074,-0.07314814814814814],[-0.026851851851851852,-0.06574074074074074],[-0.028703703703703703,-0.05925925925925926],[-0.02962962962962963,-0.05648148148148148],[-0.02962962962962963,-0.05648148148148148],[-0.02962962962962963,-0.05648148148148148]]]",1,[14],,,,,,,,,,,,,,sandbox.jpg,space,1.7121,0,31,31,88,1,rooftop1.jpg,track.jpg,sculpturegarden4.jpg,soccerfield.jpg,,
Image_List_5,,,,,,,,,,,,,,,,46695,2022-03-14_08h49.06.942,analogCatScenes,2020.1.3,Win32,60,"[1920,1080]","[[[-0.001851851851851852,-0.19444444444444445],[-0.001851851851851852,-0.19444444444444445],[-0.001851851851851852,-0.19444444444444445],[-0.001851851851851852,-0.18425925925925926],[-0.004629629629629629,-0.17222222222222222],[-0.009259259259259259,-0.15648148148148147],[-0.01574074074074074,-0.13518518518518519],[-0.021296296296296296,-0.10555555555555556],[-0.025,-0.08333333333333333],[-0.027777777777777776,-0.07037037037037037],[-0.02962962962962963,-0.06111111111111111],[-0.032407407407407406,-0.049074074074074076],[-0.037037037037037035,-0.02962962962962963],[-0.04351851851851852,-0.005555555555555556],[-0.046296296296296294,0.010185185185185186],[-0.049074074074074076,0.020370370370370372],[-0.049074074074074076,0.022222222222222223],[-0.049074074074074076,0.022222222222222223],[-0.049074074074074076,0.022222222222222223],[-0.049074074074074076,0.022222222222222223],[-0.049074074074074076,0.022222222222222223],[-0.049074074074074076,0.022222222222222223],[-0.049074074074074076,0.022222222222222223],[-0.049074074074074076,0.022222222222222223],[-0.049074074074074076,0.022222222222222223],[-0.049074074074074076,0.022222222222222223],[-0.049074074074074076,0.022222222222222223],[-0.049074074074074076,0.022222222222222223],[-0.049074074074074076,0.022222222222222223]]]",1,[29],,,,,,,,,,,,,,carmechanic2.jpg,space,2.5607,0,32,32,35,1,deck5.jpg,dock3.jpg,cubicle7.jpg,dining_car6.jpg,,
Image_List_5,,,,,,,,,,,,,,,,46695,2022-03-14_08h49.06.942,analogCatScenes,2020.1.3,Win32,60,"[1920,1080]","[[[-0.004629629629629629,-0.19907407407407407],[-0.004629629629629629,-0.19907407407407407],[-0.004629629629629629,-0.19907407407407407],[-0.004629629629629629,-0.19907407407407407],[0.000925925925925926,-0.19537037037037036],[0.014814814814814815,-0.18796296296296297],[0.041666666666666664,-0.175],[0.07407407407407407,-0.16666666666666666],[0.10462962962962963,-0.16111111111111112],[0.1259259259259259,-0.15925925925925927],[0.15462962962962962,-0.15462962962962962],[0.18611111111111112,-0.14629629629629629],[0.2111111111111111,-0.13703703703703704],[0.24351851851851852,-0.12407407407407407],[0.2675925925925926,-0.11481481481481481],[0.28888888888888886,-0.10555555555555556],[0.3037037037037037,-0.09722222222222222],[0.31851851851851853,-0.08518518518518518],[0.33240740740740743,-0.075]]]",1,[19],,,,,,,,,,,,,,fireplace4.jpg,space,4.1718,0,33,33,50,1,frontLawn4.jpg,grocerystore6.jpg,forestpath6.jpg,hallway2.jpg,,
Image_List_5,,,,,,,,,,,,,,,,46695,2022-03-14_08h49.06.942,analogCatScenes,2020.1.3,Win32,60,"[1920,1080]","[[[-0.000925925925925926,-0.19907407407407407],[-0.000925925925925926,-0.2],[0.01574074074074074,-0.20092592592592592],[0.05555555555555555,-0.20092592592592592],[0.09444444444444444,-0.20092592592592592],[0.1527777777777778,-0.19537037037037036],[0.19722222222222222,-0.1814814814814815],[0.22037037037037038,-0.16203703703703703],[0.23425925925925925,-0.13148148148148148],[0.2324074074074074,-0.08425925925925926],[0.2212962962962963,-0.03981481481481482],[0.21203703703703702,0.007407407407407408],[0.2101851851851852,0.030555555555555555],[0.20925925925925926,0.046296296296296294],[0.20925925925925926,0.05185185185185185],[0.2111111111111111,0.05740740740740741],[0.21203703703703702,0.06111111111111111],[0.21296296296296297,0.06296296296296296],[0.21296296296296297,0.06296296296296296],[0.21296296296296297,0.06296296296296296],[0.21296296296296297,0.06296296296296296]]]",1,[21],,,,,,,,,,,,,,botanicalGarden7.jpg,space,1.9875,0,34,34,26,1,campusquad2.jpg,cornfield4.jpg,church4.jpg,churchInside3.jpg,,
Image_List_5,,,,,,,,,,,,,,,,46695,2022-03-14_08h49.06.942,analogCatScenes,2020.1.3,Win32,60,"[1920,1080]","[[[0.009259259259259259,-0.2],[-0.002777777777777778,-0.20462962962962963],[-0.023148148148148147,-0.20833333333333334],[-0.053703703703703705,-0.2101851851851852],[-0.09814814814814815,-0.20185185185185187],[-0.16018518518518518,-0.17962962962962964],[-0.2222222222222222,-0.1527777777777778],[-0.26296296296296295,-0.13055555555555556],[-0.28425925925925927,-0.11203703703703703],[-0.2962962962962963,-0.08888888888888889],[-0.30462962962962964,-0.062037037037037036],[-0.3101851851851852,-0.041666666666666664],[-0.31203703703703706,-0.020370370370370372],[-0.3148148148148148,-0.006481481481481481],[-0.31574074074074077,-0.000925925925925926],[-0.31574074074074077,0.000925925925925926],[-0.31574074074074077,0.000925925925925926],[-0.31574074074074077,0.001851851851851852],[-0.31574074074074077,0.002777777777777778]]]",1,[19],,,,,,,,,,,,,,soccerfield2.jpg,space,2.5836,0,35,35,92,1,staircase.jpg,volleyballcourt.jpg,skatepark7.jpg,tvstudio2.jpg,,
Image_List_5,,,,,,,,,,,,,,,,46695,2022-03-14_08h49.06.942,analogCatScenes,2020.1.3,Win32,60,"[1920,1080]","[[[-0.010185185185185186,-0.2064814814814815],[-0.012962962962962963,-0.20462962962962963],[-0.028703703703703703,-0.19722222222222222],[-0.05185185185185185,-0.18888888888888888],[-0.09074074074074075,-0.17777777777777778],[-0.1527777777777778,-0.1648148148148148],[-0.20925925925925926,-0.1527777777777778],[-0.25,-0.14166666666666666],[-0.27037037037037037,-0.1287037037037037],[-0.2796296296296296,-0.12129629629629629],[-0.28425925925925927,-0.1175925925925926],[-0.29259259259259257,-0.11296296296296296],[-0.30833333333333335,-0.10555555555555556],[-0.31851851851851853,-0.10185185185185185],[-0.3212962962962963,-0.1],[-0.3287037037037037,-0.09814814814814815],[-0.337037037037037,-0.09537037037037037],[-0.3398148148148148,-0.09444444444444444],[-0.3398148148148148,-0.09444444444444444],[-0.3453703703703704,-0.09351851851851851],[-0.35,-0.09351851851851851]]]",1,[21],,,,,,,,,,,,,,gazebo.jpg,space,2.6779,0,36,36,57,1,hayfield5.jpg,jail1.jpg,hallway4.jpg,hut5.jpg,,
Image_List_5,,,,,,,,,,,,,,,,46695,2022-03-14_08h49.06.942,analogCatScenes,2020.1.3,Win32,60,"[1920,1080]","[[[0.002777777777777778,-0.19074074074074074],[0.000925925925925926,-0.18981481481481483],[-0.002777777777777778,-0.18796296296296297],[-0.012037037037037037,-0.18055555555555555],[-0.032407407407407406,-0.15925925925925927],[-0.08148148148148149,-0.11851851851851852],[-0.13425925925925927,-0.07962962962962963],[-0.1574074074074074,-0.05740740740740741],[-0.17592592592592593,-0.032407407407407406],[-0.18796296296296297,-0.002777777777777778],[-0.1935185185185185,0.017592592592592594],[-0.19537037037037036,0.027777777777777776],[-0.1962962962962963,0.03518518518518519],[-0.19722222222222222,0.04259259259259259],[-0.19814814814814816,0.04722222222222222],[-0.19814814814814816,0.04814814814814815],[-0.19814814814814816,0.04814814814814815],[-0.19814814814814816,0.04814814814814815],[-0.19814814814814816,0.04814814814814815],[-0.19814814814814816,0.04814814814814815],[-0.19814814814814816,0.04814814814814815],[-0.19814814814814816,0.04814814814814815],[-0.19814814814814816,0.04814814814814815],[-0.19814814814814816,0.04814814814814815],[-0.19814814814814816,0.04814814814814815]]]",1,[25],,,,,,,,,,,,,,arcade2.jpg,space,2.0952,0,37,37,9,1,auto_showroom3.jpg,bar2.jpg,ballroom2.jpg,basement5.jpg,,
Image_List_5,,,,,,,,,,,,,,,,46695,2022-03-14_08h49.06.942,analogCatScenes,2020.1.3,Win32,60,"[1920,1080]","[[[-0.004629629629629629,-0.20185185185185187],[-0.004629629629629629,-0.20185185185185187],[-0.001851851851851852,-0.20092592592592592],[0.007407407407407408,-0.1962962962962963],[0.021296296296296296,-0.19074074074074074],[0.04351851851851852,-0.17962962962962964],[0.06018518518518518,-0.1648148148148148],[0.06574074074074074,-0.15092592592592594],[0.06666666666666667,-0.13425925925925927],[0.058333333333333334,-0.10462962962962963],[0.037037037037037035,-0.06759259259259259],[0.001851851851851852,-0.026851851851851852],[-0.021296296296296296,0.001851851851851852],[-0.04722222222222222,0.03981481481481482],[-0.06759259259259259,0.07685185185185185],[-0.09722222222222222,0.12407407407407407],[-0.12037037037037036,0.15925925925925927],[-0.14074074074074075,0.19074074074074074],[-0.15925925925925927,0.21944444444444444],[-0.17222222222222222,0.2388888888888889],[-0.18333333333333332,0.2564814814814815],[-0.19074074074074074,0.26851851851851855],[-0.1925925925925926,0.27037037037037037],[-0.1925925925925926,0.27037037037037037]]]",1,[24],,,,,,,,,,,,,,basement6.jpg,space,4.5064,0,38,38,18,1,bleachers5.jpg,casino1.jpg,brewery4.jpg,castle2.jpg,,
Image_List_5,,,,,,,,,,,,,,,,46695,2022-03-14_08h49.06.942,analogCatScenes,2020.1.3,Win32,60,"[1920,1080]","[[[-0.001851851851851852,-0.19814814814814816],[0.000925925925925926,-0.1824074074074074],[0.009259259259259259,-0.15185185185185185],[0.019444444444444445,-0.11944444444444445],[0.025,-0.08981481481481482],[0.025,-0.07314814814814814],[0.025925925925925925,-0.06111111111111111],[0.025925925925925925,-0.05185185185185185],[0.025925925925925925,-0.03425925925925926],[0.023148148148148147,-0.020370370370370372],[0.022222222222222223,-0.01574074074074074],[0.022222222222222223,-0.01574074074074074],[0.022222222222222223,-0.013888888888888888],[0.022222222222222223,-0.012962962962962963],[0.022222222222222223,-0.012962962962962963],[0.022222222222222223,-0.012962962962962963]]]",1,[16],,,,,,,,,,,,,,lookout4.jpg,space,2.3447,0,39,39,76,1,parkinggarage.jpg,playroom4.jpg,parkinggarage3.jpg,park2.jpg,,
Image_List_5,,,,,,,,,,,,,,,,46695,2022-03-14_08h49.06.942,analogCatScenes,2020.1.3,Win32,60,"[1920,1080]","[[[0.007407407407407408,-0.19814814814814816],[0.006481481481481481,-0.175],[-0.000925925925925926,-0.1425925925925926],[-0.013888888888888888,-0.11296296296296296],[-0.03981481481481482,-0.06666666666666667],[-0.06944444444444445,-0.020370370370370372],[-0.10092592592592593,0.023148148148148147],[-0.12407407407407407,0.05648148148148148],[-0.13240740740740742,0.07037037037037037],[-0.13240740740740742,0.0712962962962963],[-0.13240740740740742,0.0712962962962963],[-0.13240740740740742,0.0712962962962963]]]",1,[12],,,,,,,,,,,,,,bleachers6.jpg,space,2.0629,0,40,40,23,1,bus_shelter.jpg,church8.jpg,carmechanic4.jpeg,cemetery3.jpg,,
Image_List_5,,,,,,,,,,,,,,,,46695,2022-03-14_08h49.06.942,analogCatScenes,2020.1.3,Win32,60,"[1920,1080]","[[[0.002777777777777778,-0.19907407407407407],[0.002777777777777778,-0.19907407407407407],[0.002777777777777778,-0.19814814814814816],[-0.009259259259259259,-0.18703703703703703],[-0.03888888888888889,-0.16574074074074074],[-0.08796296296296297,-0.13796296296296295],[-0.1398148148148148,-0.11481481481481481],[-0.19814814814814816,-0.08518518518518518],[-0.24074074074074073,-0.06018518518518518],[-0.26944444444444443,-0.04259259259259259],[-0.28055555555555556,-0.03518518518518519],[-0.2814814814814815,-0.03518518518518519],[-0.2824074074074074,-0.03425925925925926],[-0.28888888888888886,-0.03333333333333333],[-0.2916666666666667,-0.03333333333333333],[-0.2916666666666667,-0.03333333333333333],[-0.2916666666666667,-0.03333333333333333]],[[0.006481481481481481,-0.2],[0.006481481481481481,-0.2],[0.008333333333333333,-0.19074074074074074],[0.025,-0.17037037037037037],[0.04722222222222222,-0.15462962962962962],[0.07407407407407407,-0.14074074074074075],[0.1111111111111111,-0.12685185185185185],[0.15185185185185185,-0.11388888888888889],[0.18888888888888888,-0.1],[0.2212962962962963,-0.08981481481481482],[0.25277777777777777,-0.08518518518518518],[0.287962962962963,-0.08333333333333333],[0.31851851851851853,-0.0787037037037037],[0.3314814814814815,-0.07407407407407407],[0.34074074074074073,-0.06851851851851852],[0.3453703703703704,-0.06574074074074074]],[[-0.001851851851851852,-0.18888888888888888],[-0.001851851851851852,-0.18888888888888888],[-0.001851851851851852,-0.17222222222222222],[-0.007407407407407408,-0.1388888888888889],[-0.019444444444444445,-0.09722222222222222],[-0.04351851851851852,-0.053703703703703705],[-0.0787037037037037,-0.019444444444444445],[-0.11296296296296296,0.004629629629629629],[-0.12962962962962962,0.020370370370370372],[-0.14351851851851852,0.032407407407407406],[-0.15648148148148147,0.03981481481481482],[-0.16944444444444445,0.04351851851851852],[-0.175,0.046296296296296294],[-0.17685185185185184,0.04722222222222222],[-0.17777777777777778,0.04814814814814815],[-0.1787037037037037,0.049074074074074076],[-0.1787037037037037,0.049074074074074076],[-0.1787037037037037,0.049074074074074076]],[[-0.000925925925925926,-0.2037037037037037],[-0.000925925925925926,-0.20277777777777778],[-0.000925925925925926,-0.19814814814814816],[-0.001851851851851852,-0.18981481481481483],[0.003703703703703704,-0.1675925925925926],[0.014814814814814815,-0.1388888888888889],[0.037037037037037035,-0.09814814814814815],[0.07222222222222222,-0.06296296296296296],[0.09907407407407408,-0.040740740740740744],[0.12962962962962962,-0.018518518518518517],[0.15648148148148147,-0.003703703703703704],[0.17592592592592593,0.008333333333333333],[0.18981481481481483,0.013888888888888888],[0.20277777777777778,0.016666666666666666],[0.21574074074074073,0.020370370370370372],[0.22870370370370371,0.027777777777777776],[0.23333333333333334,0.03148148148148148],[0.23703703703703705,0.03425925925925926],[0.2388888888888889,0.03611111111111111],[0.23981481481481481,0.03611111111111111],[0.23981481481481481,0.03611111111111111],[0.23981481481481481,0.03611111111111111],[0.23981481481481481,0.03611111111111111],[0.23981481481481481,0.03611111111111111]],[[0.000925925925925926,-0.1962962962962963],[0.000925925925925926,-0.1962962962962963],[0.000925925925925926,-0.19444444444444445],[-0.000925925925925926,-0.18611111111111112],[-0.001851851851851852,-0.1712962962962963],[-0.002777777777777778,-0.1388888888888889],[-0.002777777777777778,-0.1],[0.001851851851851852,-0.046296296296296294],[0.006481481481481481,-0.006481481481481481],[0.009259259259259259,0.018518518518518517],[0.009259259259259259,0.03611111111111111],[0.008333333333333333,0.04259259259259259],[0.008333333333333333,0.04351851851851852],[0.008333333333333333,0.04351851851851852]]]",5,"[17,16,18,24,14]",,,,,,,,,,,,,,airportTerminal6.jpg,space,9.0916,0,41,41,2,1,alley1.jpg,arcade1.jpg,applestore6.jpg,apartmentBuilding4.jpg,,
Image_List_5,,,,,,,,,,,,,,,,46695,2022-03-14_08h49.06.942,analogCatScenes,2020.1.3,Win32,60,"[1920,1080]","[[[0.005555555555555556,-0.19814814814814816],[-0.004629629629629629,-0.19907407407407407],[-0.020370370370370372,-0.20092592592592592],[-0.044444444444444446,-0.20277777777777778],[-0.09537037037037037,-0.2],[-0.15648148148148147,-0.19444444444444445],[-0.20185185185185187,-0.18981481481481483],[-0.23333333333333334,-0.1824074074074074],[-0.25092592592592594,-0.175],[-0.262037037037037,-0.1638888888888889],[-0.2740740740740741,-0.14722222222222223],[-0.2833333333333333,-0.125],[-0.29444444444444445,-0.09814814814814815],[-0.30833333333333335,-0.07037037037037037],[-0.31851851851851853,-0.049074074074074076],[-0.32685185185185184,-0.02962962962962963],[-0.33425925925925926,-0.012962962962962963],[-0.33796296296296297,-0.003703703703703704],[-0.3388888888888889,0],[-0.3388888888888889,0],[-0.3388888888888889,0],[-0.3388888888888889,0]]]",1,[22],,,,,,,,,,,,,,winebarrel2.jpg,space,3.1342,0,42,42,98,1,weightroom5.jpg,wineVineyard8.jpg,warehouse3.jpg,winebarrel4.jpg,,
Image_List_5,,,,,,,,,,,,,,,,46695,2022-03-14_08h49.06.942,analogCatScenes,2020.1.3,Win32,60,"[1920,1080]","[[[-0.003703703703703704,-0.20277777777777778],[-0.003703703703703704,-0.20277777777777778],[-0.003703703703703704,-0.20277777777777778],[-0.002777777777777778,-0.19814814814814816],[-0.002777777777777778,-0.18888888888888888],[-0.002777777777777778,-0.1814814814814815],[-0.002777777777777778,-0.17314814814814813],[-0.004629629629629629,-0.1638888888888889],[-0.007407407407407408,-0.15555555555555556],[-0.008333333333333333,-0.1527777777777778],[-0.009259259259259259,-0.15],[-0.011111111111111112,-0.14629629629629629],[-0.013888888888888888,-0.1425925925925926],[-0.020370370370370372,-0.1388888888888889],[-0.024074074074074074,-0.13703703703703704],[-0.027777777777777776,-0.13518518518518519],[-0.03425925925925926,-0.13240740740740742],[-0.03981481481481482,-0.13055555555555556],[-0.04537037037037037,-0.12962962962962962],[-0.046296296296296294,-0.12962962962962962],[-0.046296296296296294,-0.12962962962962962],[-0.046296296296296294,-0.12962962962962962],[-0.046296296296296294,-0.12962962962962962]],[[0,-0.19814814814814816],[0.003703703703703704,-0.1935185185185185],[0.013888888888888888,-0.18425925925925926],[0.024074074074074074,-0.17407407407407408],[0.03333333333333333,-0.16111111111111112],[0.040740740740740744,-0.15092592592592594],[0.05277777777777778,-0.1398148148148148],[0.05925925925925926,-0.13333333333333333],[0.06296296296296296,-0.1259259259259259],[0.06666666666666667,-0.11944444444444445],[0.06851851851851852,-0.11296296296296296],[0.0712962962962963,-0.10833333333333334],[0.07407407407407407,-0.1037037037037037],[0.075,-0.10092592592592593],[0.07592592592592592,-0.1],[0.07592592592592592,-0.1],[0.07592592592592592,-0.1],[0.07592592592592592,-0.1],[0.07592592592592592,-0.1],[0.07592592592592592,-0.1]]]",2,"[23,20]",,,,,,,,,,,,,,bridalboutique3.jpg,space,6.6357,0,43,43,29,1,cornfield2.jpg,deck2.jpg,cliff2.jpg,constructionSite4.jpg,,
Image_List_5,,,,,,,,,,,,,,,,46695,2022-03-14_08h49.06.942,analogCatScenes,2020.1.3,Win32,60,"[1920,1080]","[[[0.010185185185185186,-0.20185185185185187],[0.010185185185185186,-0.20185185185185187],[0.010185185185185186,-0.20185185185185187],[0.010185185185185186,-0.20185185185185187],[0.010185185185185186,-0.20185185185185187],[0.01574074074074074,-0.20185185185185187],[0.03148148148148148,-0.19907407407407407],[0.06944444444444445,-0.19722222222222222],[0.12222222222222222,-0.19722222222222222],[0.18796296296296297,-0.19722222222222222],[0.23796296296296296,-0.19722222222222222],[0.2759259259259259,-0.19722222222222222],[0.2824074074074074,-0.19722222222222222],[0.2861111111111111,-0.19907407407407407],[0.2972222222222222,-0.20277777777777778],[0.3037037037037037,-0.20555555555555555],[0.3037037037037037,-0.20555555555555555]],[[-0.011111111111111112,-0.19814814814814816],[-0.016666666666666666,-0.1962962962962963],[-0.027777777777777776,-0.19444444444444445],[-0.03518518518518519,-0.19166666666666668],[-0.040740740740740744,-0.18703703703703703],[-0.04814814814814815,-0.175],[-0.06018518518518518,-0.1527777777777778],[-0.06759259259259259,-0.1287037037037037],[-0.06018518518518518,-0.1037037037037037],[-0.03981481481481482,-0.08148148148148149],[-0.021296296296296296,-0.05092592592592592],[-0.005555555555555556,-0.024074074074074074],[0.004629629629629629,-0.012037037037037037],[0.005555555555555556,-0.010185185185185186],[0.005555555555555556,-0.010185185185185186],[0.005555555555555556,-0.010185185185185186]],[[-0.010185185185185186,-0.20092592592592592],[-0.013888888888888888,-0.2037037037037037],[-0.027777777777777776,-0.20555555555555555],[-0.06574074074074074,-0.2064814814814815],[-0.10833333333333334,-0.2064814814814815],[-0.17685185185185184,-0.2064814814814815],[-0.23425925925925925,-0.21203703703703702],[-0.2740740740740741,-0.21666666666666667],[-0.28703703703703703,-0.21851851851851853],[-0.28703703703703703,-0.21851851851851853],[-0.28703703703703703,-0.21851851851851853]]]",3,"[17,16,11]",,,,,,,,,,,,,,warehouseoutside3.jpg,space,4.7142,0,44,44,97,1,warehouseoutside4.jpg,wineVineyard2.jpg,waitingroom4.jpg,winebarrel3.jpg,,
Image_List_5,,,,,,,,,,,,,,,,46695,2022-03-14_08h49.06.942,analogCatScenes,2020.1.3,Win32,60,"[1920,1080]","[[[0,-0.20092592592592592],[0,-0.20092592592592592],[0.001851851851851852,-0.20092592592592592],[0.023148148148148147,-0.2037037037037037],[0.07962962962962963,-0.2074074074074074],[0.15925925925925927,-0.2074074074074074],[0.2361111111111111,-0.2064814814814815],[0.2638888888888889,-0.20277777777777778],[0.2657407407407407,-0.20185185185185187],[0.2657407407407407,-0.20185185185185187],[0.2657407407407407,-0.20185185185185187]],[[-0.002777777777777778,-0.19907407407407407],[-0.003703703703703704,-0.19907407407407407],[-0.013888888888888888,-0.20277777777777778],[-0.04259259259259259,-0.2064814814814815],[-0.1037037037037037,-0.2074074074074074],[-0.17685185185185184,-0.2064814814814815],[-0.25277777777777777,-0.20555555555555555],[-0.2814814814814815,-0.20555555555555555],[-0.2814814814814815,-0.20555555555555555],[-0.2814814814814815,-0.20555555555555555]]]",2,"[11,10]",,,,,,,,,,,,,,citystreet9.jpg,space,6.3997,0,45,45,37,1,dining_car.jpg,driveway4.jpg,dinosaur4.jpg,driveway7.jpg,,
Image_List_5,,,,,,,,,,,,,,,,46695,2022-03-14_08h49.06.942,analogCatScenes,2020.1.3,Win32,60,"[1920,1080]","[[[0.001851851851851852,-0.2],[0.001851851851851852,-0.2],[0.000925925925925926,-0.19907407407407407],[0,-0.19722222222222222],[-0.003703703703703704,-0.18888888888888888],[-0.008333333333333333,-0.1675925925925926],[-0.01574074074074074,-0.12037037037037036],[-0.024074074074074074,-0.046296296296296294],[-0.02962962962962963,0.017592592592592594],[-0.03611111111111111,0.07962962962962963],[-0.03981481481481482,0.12962962962962962],[-0.03888888888888889,0.1537037037037037],[-0.03796296296296296,0.16018518518518518],[-0.03796296296296296,0.16018518518518518],[-0.03796296296296296,0.16018518518518518],[-0.03796296296296296,0.16018518518518518],[-0.03796296296296296,0.16018518518518518]]]",1,[17],,,,,,,,,,,,,,basketballcourt.jpg,space,4.9304,0,46,46,19,1,boardwalk2.jpg,casino3.jpg,cafeteria1.jpg,castle4.jpg,,
Image_List_5,,,,,,,,,,,,,,,,46695,2022-03-14_08h49.06.942,analogCatScenes,2020.1.3,Win32,60,"[1920,1080]","[[[-0.007407407407407408,-0.20092592592592592],[-0.007407407407407408,-0.20092592592592592],[-0.007407407407407408,-0.20092592592592592],[-0.007407407407407408,-0.20092592592592592],[-0.007407407407407408,-0.20092592592592592],[0.001851851851851852,-0.20277777777777778],[0.030555555555555555,-0.20833333333333334],[0.08981481481481482,-0.21666666666666667],[0.1425925925925926,-0.2212962962962963],[0.1787037037037037,-0.2222222222222222],[0.2,-0.21388888888888888],[0.21574074074074073,-0.19814814814814816],[0.23148148148148148,-0.18425925925925926],[0.25277777777777777,-0.1675925925925926],[0.26296296296296295,-0.15833333333333333],[0.2638888888888889,-0.15648148148148147],[0.2638888888888889,-0.15555555555555556],[0.2638888888888889,-0.15555555555555556],[0.2638888888888889,-0.15555555555555556],[0.2638888888888889,-0.15555555555555556],[0.2638888888888889,-0.15555555555555556]],[[-0.002777777777777778,-0.1962962962962963],[-0.002777777777777778,-0.1962962962962963],[-0.002777777777777778,-0.1962962962962963],[-0.002777777777777778,-0.1962962962962963],[-0.002777777777777778,-0.1962962962962963],[-0.003703703703703704,-0.1962962962962963],[-0.012962962962962963,-0.20092592592592592],[-0.044444444444444446,-0.20555555555555555],[-0.1,-0.2064814814814815],[-0.17685185185185184,-0.20555555555555555],[-0.2740740740740741,-0.2]]]",2,"[21,11]",,,,,,,,,,,,,,bistrooutdoor6.jpg,space,5.5552,0,47,47,22,1,bowlingalley5.jpg,church6.jpg,cargo5.jpg,cemetery.jpg,,
Image_List_5,,,,,,,,,,,,,,,,46695,2022-03-14_08h49.06.942,analogCatScenes,2020.1.3,Win32,60,"[1920,1080]","[[[0.007407407407407408,-0.19444444444444445],[0.018518518518518517,-0.17777777777777778],[0.03796296296296296,-0.14444444444444443],[0.05,-0.11481481481481481],[0.05740740740740741,-0.08703703703703704],[0.06388888888888888,-0.06018518518518518],[0.06944444444444445,-0.044444444444444446],[0.07037037037037037,-0.04259259259259259],[0.07037037037037037,-0.04259259259259259],[0.07037037037037037,-0.04259259259259259],[0.07037037037037037,-0.04259259259259259],[0.07037037037037037,-0.04259259259259259],[0.07037037037037037,-0.04259259259259259]]]",1,[13],,,,,,,,,,,,,,brewery2.jpg,space,2.1465,0,48,48,27,1,castle3.jpg,courtroom3.jpg,churchInside4.jpg,closet.jpg,,
Image_List_5,,,,,,,,,,,,,,,,46695,2022-03-14_08h49.06.942,analogCatScenes,2020.1.3,Win32,60,"[1920,1080]","[[[0.000925925925925926,-0.19722222222222222],[0.000925925925925926,-0.19722222222222222],[0.010185185185185186,-0.1925925925925926],[0.03148148148148148,-0.17407407407407408],[0.049074074074074076,-0.1537037037037037],[0.06574074074074074,-0.12777777777777777],[0.07037037037037037,-0.10462962962962963],[0.06666666666666667,-0.08888888888888889],[0.05740740740740741,-0.07592592592592592],[0.046296296296296294,-0.06111111111111111],[0.028703703703703703,-0.04351851851851852],[0.003703703703703704,-0.025],[-0.019444444444444445,-0.013888888888888888],[-0.03611111111111111,-0.008333333333333333],[-0.04351851851851852,-0.006481481481481481],[-0.04537037037037037,-0.005555555555555556],[-0.04537037037037037,-0.005555555555555556],[-0.04537037037037037,-0.005555555555555556],[-0.04537037037037037,-0.005555555555555556],[-0.04537037037037037,-0.005555555555555556],[-0.04537037037037037,-0.005555555555555556],[-0.04537037037037037,-0.005555555555555556],[-0.04722222222222222,-0.005555555555555556],[-0.04722222222222222,-0.005555555555555556],[-0.04722222222222222,-0.005555555555555556],[-0.04722222222222222,-0.005555555555555556],[-0.04814814814814815,-0.005555555555555556],[-0.05092592592592592,-0.006481481481481481],[-0.05092592592592592,-0.006481481481481481],[-0.05092592592592592,-0.006481481481481481],[-0.05092592592592592,-0.006481481481481481],[-0.05092592592592592,-0.006481481481481481],[-0.05092592592592592,-0.006481481481481481]],[[-0.010185185185185186,-0.19814814814814816],[-0.009259259259259259,-0.19814814814814816],[-0.002777777777777778,-0.19907407407407407],[0.018518518518518517,-0.19907407407407407],[0.05462962962962963,-0.19907407407407407],[0.09444444444444444,-0.19537037037037036],[0.1287037037037037,-0.19074074074074074],[0.17222222222222222,-0.18611111111111112],[0.20925925925925926,-0.17962962962962964],[0.24259259259259258,-0.1638888888888889],[0.2740740740740741,-0.14074074074074075],[0.29814814814814816,-0.11574074074074074],[0.30833333333333335,-0.10185185185185185],[0.3111111111111111,-0.09814814814814815],[0.3111111111111111,-0.09814814814814815],[0.3111111111111111,-0.09814814814814815],[0.3111111111111111,-0.09814814814814815],[0.3111111111111111,-0.09814814814814815]]]",2,"[33,18]",,,,,,,,,,,,,,backyard6.jpg,space,4.7402,0,49,49,13,1,balconyIN2.jpg,bowlingalley3.jpg,beach2.jpg,boardwalk4.jpg,,
Image_List_5,,,,,,,,,,,,,,,,46695,2022-03-14_08h49.06.942,analogCatScenes,2020.1.3,Win32,60,"[1920,1080]","[[[0.006481481481481481,-0.2037037037037037],[0.006481481481481481,-0.2037037037037037],[0.006481481481481481,-0.2037037037037037],[0.006481481481481481,-0.20185185185185187],[0.005555555555555556,-0.2],[0.004629629629629629,-0.18981481481481483],[0.003703703703703704,-0.17407407407407408],[0.001851851851851852,-0.14074074074074075],[-0.000925925925925926,-0.10277777777777777],[-0.003703703703703704,-0.07962962962962963],[-0.004629629629629629,-0.07222222222222222],[-0.004629629629629629,-0.07222222222222222],[-0.004629629629629629,-0.0712962962962963],[-0.004629629629629629,-0.0712962962962963],[-0.004629629629629629,-0.0712962962962963],[-0.004629629629629629,-0.0712962962962963],[-0.004629629629629629,-0.0712962962962963],[-0.004629629629629629,-0.0712962962962963],[-0.004629629629629629,-0.0712962962962963]],[[-0.000925925925925926,-0.19444444444444445],[-0.000925925925925926,-0.19444444444444445],[-0.001851851851851852,-0.19537037037037036],[-0.007407407407407408,-0.19722222222222222],[-0.019444444444444445,-0.19907407407407407],[-0.05462962962962963,-0.2],[-0.08888888888888889,-0.20092592592592592],[-0.12962962962962962,-0.2],[-0.15185185185185185,-0.1935185185185185],[-0.17314814814814813,-0.17777777777777778],[-0.19537037037037036,-0.15648148148148147],[-0.20925925925925926,-0.1398148148148148],[-0.21481481481481482,-0.12777777777777777],[-0.21851851851851853,-0.11388888888888889],[-0.2222222222222222,-0.10092592592592593],[-0.22592592592592592,-0.09166666666666666],[-0.22685185185185186,-0.08888888888888889],[-0.22685185185185186,-0.08888888888888889],[-0.22685185185185186,-0.08888888888888889],[-0.22685185185185186,-0.08888888888888889],[-0.22685185185185186,-0.08888888888888889],[-0.22685185185185186,-0.08888888888888889],[-0.22685185185185186,-0.08888888888888889]]]",2,"[19,23]",,,,,,,,,,,,,,firestation5.jpg,space,5.4614,0,50,50,51,1,gasstation6.jpg,hallway5.jpg,frontDoor5.jpg,hayfield4.jpg,,
Image_List_5,,,,,,,,,,,,,,,,46695,2022-03-14_08h49.06.942,analogCatScenes,2020.1.3,Win32,60,"[1920,1080]","[[[-0.000925925925925926,-0.19814814814814816],[-0.001851851851851852,-0.19814814814814816],[-0.001851851851851852,-0.19814814814814816],[-0.001851851851851852,-0.19814814814814816],[0,-0.18981481481481483],[0.007407407407407408,-0.16574074074074074],[0.022222222222222223,-0.125],[0.03611111111111111,-0.09259259259259259],[0.04351851851851852,-0.07222222222222222],[0.046296296296296294,-0.05648148148148148],[0.04814814814814815,-0.04537037037037037],[0.05185185185185185,-0.03518518518518519],[0.053703703703703705,-0.030555555555555555],[0.05555555555555555,-0.027777777777777776],[0.05648148148148148,-0.025925925925925925],[0.058333333333333334,-0.025],[0.058333333333333334,-0.025],[0.058333333333333334,-0.025],[0.058333333333333334,-0.025]]]",1,[19],,,,,,,,,,,,,,alley3.jpg,space,2.029,0,51,51,3,1,apartmentBuilding2.jpg,attic1.jpg,aquarium1.jpg,appleorchard2.jpg,,
Image_List_5,,,,,,,,,,,,,,,,46695,2022-03-14_08h49.06.942,analogCatScenes,2020.1.3,Win32,60,"[1920,1080]","[[[-0.001851851851851852,-0.19722222222222222],[-0.001851851851851852,-0.19722222222222222],[0.012962962962962963,-0.19444444444444445],[0.03333333333333333,-0.18518518518518517],[0.06481481481481481,-0.1638888888888889],[0.09166666666666666,-0.13518518518518519],[0.10092592592592593,-0.10740740740740741],[0.10185185185185185,-0.0824074074074074],[0.10092592592592593,-0.06851851851851852],[0.0962962962962963,-0.053703703703703705],[0.08703703703703704,-0.041666666666666664],[0.07592592592592592,-0.025],[0.06666666666666667,-0.009259259259259259],[0.05462962962962963,0.007407407407407408],[0.04537037037037037,0.021296296296296296],[0.03796296296296296,0.03333333333333333],[0.032407407407407406,0.041666666666666664],[0.028703703703703703,0.04814814814814815],[0.028703703703703703,0.04814814814814815],[0.028703703703703703,0.049074074074074076],[0.028703703703703703,0.049074074074074076]]]",1,[21],,,,,,,,,,,,,,forestpath2.jpg,space,3.2579,0,52,52,52,1,gasstation7.jpg,hardwarestore1.jpg,frontFoyer6.jpg,highway.jpg,,
Image_List_5,,,,,,,,,,,,,,,,46695,2022-03-14_08h49.06.942,analogCatScenes,2020.1.3,Win32,60,"[1920,1080]","[[[-0.007407407407407408,-0.19907407407407407],[-0.007407407407407408,-0.2],[-0.002777777777777778,-0.20185185185185187],[0.020370370370370372,-0.20185185185185187],[0.05925925925925926,-0.20185185185185187],[0.11296296296296296,-0.20185185185185187],[0.16296296296296298,-0.20092592592592592],[0.19722222222222222,-0.20092592592592592],[0.22685185185185186,-0.2],[0.24722222222222223,-0.1935185185185185],[0.2611111111111111,-0.18333333333333332],[0.27037037037037037,-0.17685185185185184],[0.2824074074074074,-0.17407407407407408],[0.30185185185185187,-0.17407407407407408],[0.31296296296296294,-0.175],[0.3138888888888889,-0.175],[0.3138888888888889,-0.175]],[[0.000925925925925926,-0.19444444444444445],[0.000925925925925926,-0.19444444444444445],[0.000925925925925926,-0.1925925925925926],[0.000925925925925926,-0.18425925925925926],[0.004629629629629629,-0.16203703703703703],[0.010185185185185186,-0.1398148148148148],[0.017592592592592594,-0.11944444444444445],[0.024074074074074074,-0.10185185185185185],[0.026851851851851852,-0.09259259259259259],[0.027777777777777776,-0.08425925925925926],[0.027777777777777776,-0.08148148148148149],[0.027777777777777776,-0.08055555555555556]],[[-0.012037037037037037,-0.1962962962962963],[-0.012037037037037037,-0.1962962962962963],[-0.020370370370370372,-0.1962962962962963],[-0.04537037037037037,-0.18888888888888888],[-0.07962962962962963,-0.17962962962962964],[-0.13055555555555556,-0.16574074074074074],[-0.15092592592592594,-0.1574074074074074],[-0.15925925925925927,-0.14814814814814814],[-0.1638888888888889,-0.1398148148148148],[-0.16666666666666666,-0.1287037037037037],[-0.1675925925925926,-0.10833333333333334],[-0.16574074074074074,-0.08703703703703704],[-0.16203703703703703,-0.0712962962962963],[-0.16018518518518518,-0.06018518518518518],[-0.15925925925925927,-0.053703703703703705],[-0.15833333333333333,-0.05],[-0.15833333333333333,-0.049074074074074076],[-0.15833333333333333,-0.049074074074074076],[-0.1574074074074074,-0.049074074074074076]],[[-0.004629629629629629,-0.19722222222222222],[-0.009259259259259259,-0.19814814814814816],[-0.037037037037037035,-0.19722222222222222],[-0.10092592592592593,-0.1935185185185185],[-0.1814814814814815,-0.18981481481481483],[-0.23425925925925925,-0.18425925925925926],[-0.28055555555555556,-0.17314814814814813],[-0.3,-0.1574074074074074],[-0.30648148148148147,-0.14537037037037037],[-0.3111111111111111,-0.13240740740740742],[-0.31203703703703706,-0.11851851851851852],[-0.31203703703703706,-0.1],[-0.3101851851851852,-0.07777777777777778],[-0.30648148148148147,-0.06481481481481481],[-0.30092592592592593,-0.05648148148148148],[-0.2935185185185185,-0.04814814814814815],[-0.28425925925925927,-0.04259259259259259],[-0.27685185185185185,-0.03981481481481482],[-0.2638888888888889,-0.03888888888888889],[-0.25555555555555554,-0.03796296296296296],[-0.2537037037037037,-0.037037037037037035],[-0.2537037037037037,-0.037037037037037035],[-0.2537037037037037,-0.037037037037037035],[-0.2537037037037037,-0.037037037037037035],[-0.2537037037037037,-0.037037037037037035],[-0.2537037037037037,-0.037037037037037035],[-0.2537037037037037,-0.037037037037037035]],[[0.001851851851851852,-0.20092592592592592],[0,-0.2],[-0.003703703703703704,-0.19907407407407407],[-0.011111111111111112,-0.19722222222222222],[-0.025,-0.19444444444444445],[-0.05,-0.18981481481481483],[-0.08611111111111111,-0.18333333333333332],[-0.12222222222222222,-0.17685185185185184],[-0.16296296296296298,-0.17037037037037037],[-0.19537037037037036,-0.1638888888888889],[-0.21388888888888888,-0.15833333333333333],[-0.22685185185185186,-0.15185185185185185],[-0.23703703703703705,-0.14537037037037037],[-0.24444444444444444,-0.14074074074074075],[-0.2518518518518518,-0.1361111111111111],[-0.25925925925925924,-0.13240740740740742],[-0.26944444444444443,-0.12962962962962962],[-0.27870370370370373,-0.12685185185185185],[-0.2861111111111111,-0.125],[-0.2962962962962963,-0.12222222222222222],[-0.30462962962962964,-0.12129629629629629],[-0.30925925925925923,-0.11944444444444445],[-0.3111111111111111,-0.11944444444444445],[-0.31666666666666665,-0.1175925925925926],[-0.32222222222222224,-0.11574074074074074],[-0.325,-0.11574074074074074],[-0.32592592592592595,-0.11574074074074074],[-0.32592592592592595,-0.11574074074074074],[-0.32685185185185184,-0.11481481481481481],[-0.33055555555555555,-0.11296296296296296],[-0.3333333333333333,-0.11203703703703703],[-0.33425925925925926,-0.1111111111111111],[-0.337037037037037,-0.11018518518518519],[-0.3398148148148148,-0.10925925925925926],[-0.3398148148148148,-0.10925925925925926],[-0.3398148148148148,-0.10925925925925926],[-0.34074074074074073,-0.10833333333333334],[-0.3435185185185185,-0.10740740740740741],[-0.34444444444444444,-0.10740740740740741],[-0.34444444444444444,-0.10740740740740741],[-0.34444444444444444,-0.10740740740740741],[-0.34444444444444444,-0.10740740740740741],[-0.34444444444444444,-0.10740740740740741],[-0.34629629629629627,-0.10740740740740741]]]",5,"[17,12,19,27,44]",,,,,,,,,,,,,,elevatorOutside2.jpg,space,9.2263,0,53,53,47,1,frontDoor.jpg,gasstation8.jpg,firestation4.jpg,fountain7.jpg,,
Image_List_5,,,,,,,,,,,,,,,,46695,2022-03-14_08h49.06.942,analogCatScenes,2020.1.3,Win32,60,"[1920,1080]","[[[-0.003703703703703704,-0.19444444444444445],[-0.003703703703703704,-0.19444444444444445],[-0.003703703703703704,-0.18796296296296297],[-0.006481481481481481,-0.1685185185185185],[-0.014814814814814815,-0.12777777777777777],[-0.019444444444444445,-0.09537037037037037],[-0.025,-0.053703703703703705],[-0.024074074074074074,-0.027777777777777776],[-0.022222222222222223,-0.01574074074074074],[-0.022222222222222223,-0.012962962962962963],[-0.021296296296296296,-0.012037037037037037],[-0.021296296296296296,-0.012037037037037037],[-0.021296296296296296,-0.012037037037037037],[-0.021296296296296296,-0.011111111111111112],[-0.021296296296296296,-0.011111111111111112],[-0.021296296296296296,-0.011111111111111112],[-0.021296296296296296,-0.011111111111111112],[-0.021296296296296296,-0.011111111111111112]]]",1,[18],,,,,,,,,,,,,,RVinside2.jpg,space,2.218,0,54,54,87,1,restaurantkitchen2.jpg,theater2.jpg,savanna.jpg,sculpturegarden2.jpg,,
